// General information: 
//  MT Manager version: 2022.2.0 
//  XDA version: 2022.2.0 build 7381 rev 124627 built on 2023-07-19
// Device information: 
//  DeviceId: 10B426F5
//  ProductCode: MTW2-3A7G6
//  Firmware Version: 4.14.0
//  Hardware Version: 3.0.0
// Device settings: 
//  Filter Profile: human(46.1)
//  Option Flags: Orientation Smoother Disabled, Position/Velocity Smoother Disabled, Continuous Zero Rotation Update Disabled, AHS Disabled, ICC Disabled
// Coordinate system: ENU
PacketCounter	SampleTimeFine	Year	Month	Day	Second	Acc_X	Acc_Y	Acc_Z	Gyr_X	Gyr_Y	Gyr_Z	Mag_X	Mag_Y	Mag_Z	Quat_q0	Quat_q1	Quat_q2	Quat_q3	Roll	Pitch	Yaw	Mat[1][1]	Mat[2][1]	Mat[3][1]	Mat[1][2]	Mat[2][2]	Mat[3][2]	Mat[1][3]	Mat[2][3]	Mat[3][3]	Vel_E	Vel_N	Vel_U
13933	0	0	0	0	0	9.786577	-0.258273	-0.856165	0.018458	-0.000467	-0.016284	-0.865234	0.299805	-0.237793	0.585083	-0.379776	-0.634816	-0.332352	-166.636165	-84.429543	106.086806	-0.026897	0.093269	0.995278	0.871082	0.490625	-0.022436	-0.490400	0.866365	-0.094441	0	0	0
13934	0	0	0	0	0	9.762050	-0.221504	-0.832878	0.016109	0.001387	-0.017920	-0.857178	0.294434	-0.235352	0.585097	-0.379692	-0.634845	-0.332367	-166.700659	-84.434199	106.157918	-0.026991	0.093158	0.995285	0.871025	0.490732	-0.022311	-0.490497	0.866316	-0.094388	0	0	0
13935	0	0	0	0	0	9.752860	-0.274837	-0.810565	0.029428	0.002233	-0.016013	-0.860107	0.294678	-0.241455	0.585147	-0.379571	-0.634888	-0.332334	-166.743445	-84.439491	106.215306	-0.027058	0.093042	0.995294	0.870899	0.490960	-0.022220	-0.490717	0.866199	-0.094315	0	0	0
13936	0	0	0	0	0	9.782814	-0.235444	-0.784778	0.025348	0.001709	-0.019382	-0.855469	0.298096	-0.244385	0.585177	-0.379455	-0.634935	-0.332324	-166.810809	-84.444504	106.294620	-0.027163	0.092921	0.995303	0.870796	0.491149	-0.022089	-0.490894	0.866105	-0.094256	0	0	0
13937	0	0	0	0	0	9.774256	-0.248140	-0.823861	0.020576	-0.006976	-0.016016	-0.857422	0.290771	-0.227783	0.585185	-0.379370	-0.634993	-0.332298	-166.870929	-84.444830	106.365198	-0.027275	0.092882	0.995303	0.870706	0.491313	-0.021989	-0.491048	0.866016	-0.094274	0	0	0
13938	0	0	0	0	0	9.783675	-0.178595	-0.866783	0.027039	-0.003663	-0.013496	-0.853027	0.291016	-0.228027	0.585211	-0.379276	-0.635046	-0.332256	-166.910882	-84.446066	106.417945	-0.027355	0.092836	0.995306	0.870595	0.491511	-0.021918	-0.491238	0.865909	-0.094268	0	0	0
13939	0	0	0	0	0	9.762572	-0.187764	-0.874104	0.027894	-0.004800	-0.011383	-0.862061	0.295166	-0.241455	0.585240	-0.379191	-0.635097	-0.332205	-166.938262	-84.446638	106.458087	-0.027417	0.092808	0.995307	0.870486	0.491707	-0.021871	-0.491429	0.865801	-0.094269	0	0	0
13940	0	0	0	0	0	9.770894	-0.185988	-0.815682	0.016688	-0.012153	-0.013024	-0.852295	0.300293	-0.237793	0.585220	-0.379144	-0.635157	-0.332178	-166.992725	-84.443067	106.519453	-0.027534	0.092838	0.995300	0.870427	0.491815	-0.021795	-0.491528	0.865736	-0.094350	0	0	0
13941	0	0	0	0	0	9.782943	-0.216145	-0.807752	0.014791	-0.005653	-0.009424	-0.854736	0.297852	-0.237061	0.585230	-0.379097	-0.635188	-0.332156	-167.016495	-84.443164	106.549700	-0.027583	0.092822	0.995301	0.870371	0.491916	-0.021756	-0.491623	0.865681	-0.094358	0	0	0
13942	0	0	0	0	0	9.749723	-0.194344	-0.824060	0.017792	-0.007094	-0.010368	-0.862549	0.294922	-0.235596	0.585233	-0.379047	-0.635230	-0.332127	-167.048335	-84.442069	106.588972	-0.027652	0.092821	0.995299	0.870307	0.492031	-0.021707	-0.491733	0.865615	-0.094388	0	0	0
13943	0	0	0	0	0	9.761992	-0.211217	-0.836227	0.011785	-0.005763	-0.007646	-0.853027	0.297852	-0.240723	0.585238	-0.379017	-0.635252	-0.332110	-167.064078	-84.441790	106.609009	-0.027686	0.092816	0.995298	0.870270	0.492097	-0.021683	-0.491796	0.865578	-0.094399	0	0	0
13944	0	0	0	0	0	9.770754	-0.182695	-0.818106	0.011801	-0.002667	-0.009308	-0.855957	0.295898	-0.241699	0.585246	-0.378980	-0.635270	-0.332106	-167.087425	-84.443029	106.636300	-0.027724	0.092782	0.995300	0.870236	0.492160	-0.021639	-0.491854	0.865546	-0.094387	0	0	0
13945	0	0	0	0	0	9.770964	-0.168274	-0.838469	0.011826	0.001977	-0.011802	-0.862793	0.290771	-0.239746	0.585271	-0.378920	-0.635278	-0.332113	-167.116480	-84.447746	106.670422	-0.027755	0.092687	0.995308	0.870192	0.492241	-0.021573	-0.491931	0.865510	-0.094318	0	0	0
13946	0	0	0	0	0	9.738158	-0.119379	-0.894989	0.003202	-0.004130	-0.009597	-0.860352	0.291016	-0.234131	0.585257	-0.378910	-0.635286	-0.332134	-167.148374	-84.448202	106.701350	-0.027803	0.092664	0.995309	0.870200	0.492229	-0.021519	-0.491914	0.865520	-0.094322	0	0	0
13947	0	0	0	0	0	9.750033	-0.163073	-0.866573	-0.006282	-0.010653	-0.008673	-0.854980	0.295654	-0.238281	0.585211	-0.378936	-0.635295	-0.332168	-167.187473	-84.445358	106.734635	-0.027871	0.092696	0.995304	0.870250	0.492143	-0.021465	-0.491821	0.865565	-0.094385	0	0	0
13948	0	0	0	0	0	9.795299	-0.214234	-0.842967	0.002326	-0.007642	-0.009215	-0.865479	0.288330	-0.237305	0.585185	-0.378936	-0.635311	-0.332184	-167.222242	-84.443799	106.767948	-0.027933	0.092705	0.995302	0.870262	0.492123	-0.021414	-0.491796	0.865575	-0.094424	0	0	0
13949	0	0	0	0	0	9.740961	-0.202617	-0.866375	0.010058	-0.008144	-0.009375	-0.858398	0.293945	-0.235352	0.585177	-0.378907	-0.635341	-0.332173	-167.252491	-84.442465	106.801861	-0.027994	0.092711	0.995299	0.870231	0.492180	-0.021369	-0.491848	0.865542	-0.094458	0	0	0
13950	0	0	0	0	0	9.783052	-0.181507	-0.853504	0.007675	-0.012485	-0.007688	-0.860352	0.292480	-0.231201	0.585148	-0.378904	-0.635377	-0.332158	-167.281669	-84.438004	106.832635	-0.028067	0.092770	0.995292	0.870217	0.492205	-0.021338	-0.491868	0.865522	-0.094545	0	0	0
13951	0	0	0	0	0	9.774028	-0.222134	-0.852660	0.014783	-0.008754	-0.007759	-0.856445	0.286377	-0.236816	0.585148	-0.378872	-0.635412	-0.332129	-167.300648	-84.435999	106.857347	-0.028117	0.092791	0.995289	0.870168	0.492293	-0.021315	-0.491952	0.865469	-0.094586	0	0	0
13952	0	0	0	0	0	9.828252	-0.232262	-0.831069	0.023141	-0.013489	-0.008009	-0.862061	0.295166	-0.235840	0.585145	-0.378824	-0.635478	-0.332064	-167.324023	-84.431015	106.891195	-0.028197	0.092857	0.995280	0.870079	0.492453	-0.021295	-0.492106	0.865372	-0.094679	0	0	0
13953	0	0	0	0	0	9.770504	-0.162199	-0.845005	0.017369	-0.007508	-0.003917	-0.859619	0.289307	-0.249023	0.585161	-0.378791	-0.635508	-0.332015	-167.317979	-84.429326	106.892752	-0.028208	0.092885	0.995277	0.870014	0.492567	-0.021312	-0.492220	0.865304	-0.094705	0	0	0
13954	0	0	0	0	0	9.767071	-0.103267	-0.836060	0.008345	-0.007830	0.001414	-0.863037	0.286133	-0.233887	0.585164	-0.378807	-0.635514	-0.331980	-167.288515	-84.426319	106.864993	-0.028178	0.092948	0.995272	0.869999	0.492589	-0.021372	-0.492247	0.865284	-0.094745	0	0	0
13955	0	0	0	0	0	9.758064	-0.144721	-0.834916	-0.010991	-0.007352	0.002234	-0.858887	0.288818	-0.243164	0.585140	-0.378872	-0.635487	-0.332001	-167.263556	-84.424092	106.831947	-0.028135	0.093002	0.995268	0.870069	0.492464	-0.021422	-0.492126	0.865350	-0.094774	0	0	0
13956	0	0	0	0	0	9.782632	-0.179844	-0.858656	-0.015062	-0.004784	-0.002798	-0.858643	0.284180	-0.242188	0.585101	-0.378937	-0.635453	-0.332059	-167.267714	-84.423317	106.824494	-0.028127	0.093018	0.995267	0.870169	0.492287	-0.021418	-0.491950	0.865448	-0.094788	0	0	0
13957	0	0	0	0	0	9.773624	-0.221073	-0.857547	-0.011003	-0.010450	0.003898	-0.859863	0.291260	-0.241211	0.585071	-0.379011	-0.635432	-0.332067	-167.237275	-84.419199	106.786180	-0.028086	0.093106	0.995260	0.870237	0.492164	-0.021484	-0.491831	0.865509	-0.094847	0	0	0
13958	0	0	0	0	0	9.761411	-0.190325	-0.867059	-0.004529	-0.004033	0.004746	-0.864258	0.289063	-0.234619	0.585067	-0.379069	-0.635400	-0.332071	-167.191305	-84.417887	106.734424	-0.028008	0.093153	0.995258	0.870288	0.492072	-0.021565	-0.491747	0.865557	-0.094852	0	0	0
13959	0	0	0	0	0	9.752267	-0.245225	-0.845208	-0.009469	-0.003428	-0.000733	-0.859375	0.298828	-0.233643	0.585051	-0.379117	-0.635368	-0.332105	-167.177336	-84.418110	106.712748	-0.027972	0.093160	0.995258	0.870354	0.491953	-0.021587	-0.491632	0.865623	-0.094843	0	0	0
13960	0	0	0	0	0	9.810378	-0.274438	-0.893972	-0.001757	-0.008575	0.001599	-0.858643	0.297119	-0.241699	0.585033	-0.379164	-0.635359	-0.332101	-167.153706	-84.414657	106.685035	-0.027944	0.093231	0.995252	0.870389	0.491888	-0.021640	-0.491570	0.865652	-0.094892	0	0	0
13961	0	0	0	0	0	9.818943	-0.260303	-0.855689	0.006218	-0.002877	0.001973	-0.858154	0.297363	-0.240234	0.585052	-0.379175	-0.635345	-0.332079	-167.113695	-84.414792	106.646002	-0.027880	0.093247	0.995253	0.870381	0.491900	-0.021705	-0.491589	0.865644	-0.094875	0	0	0
13962	0	0	0	0	0	9.776923	-0.267341	-0.889915	0.013971	0.001267	-0.000686	-0.862549	0.295166	-0.229492	0.585091	-0.379153	-0.635338	-0.332050	-167.081272	-84.417125	106.618507	-0.027823	0.093222	0.995257	0.870339	0.491973	-0.021750	-0.491667	0.865605	-0.094823	0	0	0
13963	0	0	0	0	0	9.760934	-0.217749	-0.827972	0.012234	-0.002663	-0.001582	-0.848633	0.289063	-0.239502	0.585116	-0.379137	-0.635340	-0.332021	-167.058151	-84.417764	106.599578	-0.027789	0.093220	0.995258	0.870303	0.492035	-0.021786	-0.491732	0.865570	-0.094803	0	0	0
13964	0	0	0	0	0	9.806619	-0.242815	-0.844306	0.011602	0.000022	-0.000661	-0.859131	0.286621	-0.239990	0.585146	-0.379123	-0.635333	-0.331997	-167.028542	-84.419396	106.573547	-0.027739	0.093206	0.995260	0.870272	0.492087	-0.021828	-0.491790	0.865542	-0.094764	0	0	0
13965	0	0	0	0	0	9.773875	-0.181365	-0.921086	0.002146	-0.000309	-0.003058	-0.858887	0.287354	-0.242676	0.585161	-0.379122	-0.635316	-0.332005	-167.016943	-84.421755	106.561416	-0.027708	0.093172	0.995264	0.870276	0.492079	-0.021838	-0.491784	0.865550	-0.094720	0	0	0
13966	0	0	0	0	0	9.740022	-0.214100	-0.855172	0.003883	0.003620	-0.002162	-0.856689	0.292969	-0.245117	0.585185	-0.379120	-0.635288	-0.332016	-166.995558	-84.425588	106.539205	-0.027653	0.093119	0.995271	0.870283	0.492066	-0.021859	-0.491775	0.865563	-0.094647	0	0	0
13967	0	0	0	0	0	9.740032	-0.214052	-0.855067	-0.000007	-0.001548	0.000832	-0.862549	0.297607	-0.236084	0.585200	-0.379137	-0.635266	-0.332016	-166.964367	-84.426825	106.506523	-0.027593	0.093114	0.995273	0.870296	0.492042	-0.021905	-0.491755	0.865578	-0.094614	0	0	0
13968	0	0	0	0	0	9.740160	-0.200639	-0.875790	0.005990	-0.005979	-0.000226	-0.864746	0.286621	-0.231934	0.585201	-0.379151	-0.635266	-0.331997	-166.943380	-84.425048	106.485926	-0.027569	0.093154	0.995270	0.870293	0.492045	-0.021947	-0.491762	0.865571	-0.094636	0	0	0
13969	0	0	0	0	0	9.740093	-0.200502	-0.876562	0.001029	-0.010021	-0.003209	-0.864014	0.289307	-0.236084	0.585178	-0.379176	-0.635273	-0.331995	-166.946315	-84.421767	106.486630	-0.027586	0.093208	0.995264	0.870313	0.492010	-0.021955	-0.491727	0.865585	-0.094693	0	0	0
13970	0	0	0	0	0	9.797700	-0.269942	-0.864540	0.011994	-0.008862	-0.002117	-0.852783	0.291016	-0.233643	0.585178	-0.379171	-0.635296	-0.331957	-166.936537	-84.418625	106.480751	-0.027592	0.093263	0.995259	0.870279	0.492067	-0.021984	-0.491785	0.865547	-0.094742	0	0	0
13971	0	0	0	0	0	9.806430	-0.242041	-0.846724	0.019102	-0.005131	-0.002193	-0.855225	0.283203	-0.237061	0.585207	-0.379136	-0.635318	-0.331903	-166.916778	-84.418005	106.469354	-0.027576	0.093279	0.995258	0.870208	0.492193	-0.022019	-0.491913	0.865474	-0.094745	0	0	0
13972	0	0	0	0	0	9.815029	-0.227853	-0.808227	0.018687	-0.002441	0.002593	-0.860596	0.282959	-0.240723	0.585249	-0.379116	-0.635323	-0.331842	-166.867767	-84.417833	106.427907	-0.027510	0.093302	0.995258	0.870143	0.492303	-0.022100	-0.492031	0.865409	-0.094729	0	0	0
13973	0	0	0	0	0	9.785305	-0.252728	-0.853904	0.013335	0.002401	0.001066	-0.858887	0.295898	-0.236328	0.585299	-0.379090	-0.635310	-0.331808	-166.823204	-84.421153	106.389048	-0.027430	0.093265	0.995263	0.870094	0.492388	-0.022161	-0.492122	0.865365	-0.094656	0	0	0
13974	0	0	0	0	0	9.739472	-0.241303	-0.817106	0.010966	0.001157	0.001091	-0.859131	0.288574	-0.241699	0.585335	-0.379082	-0.635295	-0.331783	-166.782344	-84.423179	106.351348	-0.027359	0.093250	0.995267	0.870067	0.492433	-0.022220	-0.492174	0.865341	-0.094606	0	0	0
13975	0	0	0	0	0	9.785021	-0.279850	-0.812812	0.010750	0.001150	-0.002773	-0.855225	0.287598	-0.239990	0.585369	-0.379057	-0.635287	-0.331767	-166.761920	-84.426226	106.334918	-0.027317	0.093207	0.995272	0.870032	0.492493	-0.022242	-0.492238	0.865311	-0.094546	0	0	0
13976	0	0	0	0	0	9.739633	-0.227751	-0.837418	0.008368	-0.003190	-0.001082	-0.855957	0.295654	-0.241211	0.585383	-0.379057	-0.635284	-0.331748	-166.740771	-84.426110	106.315525	-0.027286	0.093218	0.995272	0.870017	0.492518	-0.022277	-0.492266	0.865296	-0.094540	0	0	0
13977	0	0	0	0	0	9.748540	-0.186471	-0.839723	0.008362	-0.004738	-0.000249	-0.860352	0.293457	-0.243896	0.585399	-0.379054	-0.635285	-0.331720	-166.715065	-84.425597	106.292689	-0.027252	0.093237	0.995271	0.869993	0.492559	-0.022322	-0.492311	0.865270	-0.094539	0	0	0
13978	0	0	0	0	0	9.769430	-0.189627	-0.813013	0.004268	-0.006815	-0.002782	-0.861572	0.293457	-0.235107	0.585390	-0.379067	-0.635290	-0.331713	-166.710875	-84.423682	106.287977	-0.027253	0.093271	0.995268	0.869997	0.492550	-0.022336	-0.492303	0.865271	-0.094570	0	0	0
13979	0	0	0	0	0	9.794139	-0.211331	-0.857061	0.002128	-0.004956	-0.000558	-0.865967	0.287842	-0.239990	0.585393	-0.379084	-0.635281	-0.331706	-166.690915	-84.423022	106.267014	-0.027222	0.093292	0.995267	0.870006	0.492533	-0.022372	-0.492289	0.865279	-0.094573	0	0	0
13980	0	0	0	0	0	9.785151	-0.252670	-0.855686	0.004485	-0.006808	0.001083	-0.853516	0.292236	-0.239014	0.585391	-0.379108	-0.635279	-0.331687	-166.664542	-84.420601	106.240138	-0.027190	0.093346	0.995262	0.870011	0.492522	-0.022425	-0.492282	0.865279	-0.094604	0	0	0
13981	0	0	0	0	0	9.785103	-0.252601	-0.856250	0.015881	-0.005250	-0.004277	-0.865723	0.294434	-0.228271	0.585412	-0.379072	-0.635301	-0.331646	-166.658635	-84.420298	106.241352	-0.027194	0.093350	0.995262	0.869950	0.492630	-0.022436	-0.492390	0.865218	-0.094606	0	0	0
13982	0	0	0	0	0	9.797370	-0.270098	-0.868228	0.017607	-0.004417	-0.001717	-0.862061	0.289795	-0.241699	0.585438	-0.379045	-0.635319	-0.331598	-166.637503	-84.419579	106.227295	-0.027174	0.093369	0.995261	0.869889	0.492735	-0.022474	-0.492498	0.865156	-0.094610	0	0	0
13983	0	0	0	0	0	9.781552	-0.206981	-0.826766	0.016347	0.002504	-0.000714	-0.862549	0.296631	-0.231934	0.585488	-0.379011	-0.635311	-0.331564	-166.600582	-84.422966	106.196851	-0.027108	0.093327	0.995266	0.869833	0.492832	-0.022521	-0.492601	0.865105	-0.094538	0	0	0
13984	0	0	0	0	0	9.760478	-0.217248	-0.833454	0.010107	0.000738	-0.000189	-0.862061	0.294678	-0.246094	0.585519	-0.379002	-0.635298	-0.331544	-166.568002	-84.424916	106.166976	-0.027050	0.093308	0.995270	0.869810	0.492871	-0.022567	-0.492645	0.865085	-0.094493	0	0	0
13985	0	0	0	0	0	9.751677	-0.245347	-0.851949	0.014823	-0.002967	0.003094	-0.854492	0.296875	-0.228271	0.585557	-0.378992	-0.635297	-0.331491	-166.517076	-84.424834	106.122034	-0.026977	0.093331	0.995270	0.869758	0.492958	-0.022651	-0.492740	0.865033	-0.094474	0	0	0
13986	0	0	0	0	0	9.769337	-0.176608	-0.836169	0.008341	-0.010931	0.003089	-0.853760	0.286865	-0.239502	0.585552	-0.379018	-0.635309	-0.331446	-166.482769	-84.419839	106.089406	-0.026948	0.093430	0.995261	0.869745	0.492978	-0.022728	-0.492766	0.865011	-0.094545	0	0	0
13987	0	0	0	0	0	9.769111	-0.190350	-0.816676	0.002980	-0.007635	0.002392	-0.861816	0.291504	-0.243164	0.585550	-0.379050	-0.635303	-0.331425	-166.449311	-84.417165	106.054771	-0.026905	0.093490	0.995257	0.869755	0.492957	-0.022794	-0.492749	0.865016	-0.094577	0	0	0
13988	0	0	0	0	0	9.802587	-0.184511	-0.842346	-0.003244	-0.004756	0.000415	-0.851074	0.297363	-0.233398	0.585539	-0.379091	-0.635283	-0.331436	-166.428478	-84.415965	106.029012	-0.026868	0.093523	0.995255	0.869798	0.492880	-0.022834	-0.492676	0.865057	-0.094589	0	0	0
13989	0	0	0	0	0	9.735633	-0.183024	-0.813059	-0.010981	-0.004250	0.000579	-0.863770	0.295410	-0.232910	0.585520	-0.379150	-0.635248	-0.331470	-166.408445	-84.415517	106.000328	-0.026824	0.093543	0.995254	0.869872	0.492747	-0.022869	-0.492547	0.865130	-0.094588	0	0	0
13990	0	0	0	0	0	9.748042	-0.187073	-0.845346	-0.002594	-0.002800	-0.003004	-0.860352	0.288330	-0.230957	0.585511	-0.379175	-0.635230	-0.331492	-166.404032	-84.415867	105.991441	-0.026808	0.093542	0.995254	0.869911	0.492678	-0.022874	-0.492480	0.865169	-0.094581	0	0	0
13991	0	0	0	0	0	9.793703	-0.211736	-0.861919	-0.008190	-0.004156	-0.005064	-0.852783	0.294434	-0.239990	0.585484	-0.379212	-0.635208	-0.331538	-166.415153	-84.416054	105.994798	-0.026812	0.093537	0.995255	0.869977	0.492561	-0.022855	-0.492362	0.865236	-0.094582	0	0	0
13992	0	0	0	0	0	9.772463	-0.234838	-0.848663	-0.004952	-0.000947	-0.004645	-0.858154	0.298096	-0.231445	0.585474	-0.379236	-0.635183	-0.331576	-166.418889	-84.417656	105.992742	-0.026801	0.093511	0.995257	0.870027	0.492474	-0.022843	-0.492275	0.865289	-0.094556	0	0	0
13993	0	0	0	0	0	9.784603	-0.265589	-0.840137	0.001267	-0.005374	-0.001836	-0.853760	0.298340	-0.232178	0.585469	-0.379255	-0.635176	-0.331577	-166.407021	-84.416835	105.978964	-0.026783	0.093531	0.995256	0.870044	0.492444	-0.022865	-0.492247	0.865304	-0.094565	0	0	0
13994	0	0	0	0	0	9.763446	-0.275662	-0.847805	0.001889	-0.011158	-0.001086	-0.858398	0.295166	-0.238281	0.585445	-0.379288	-0.635186	-0.331564	-166.400627	-84.412272	105.970668	-0.026791	0.093612	0.995248	0.870061	0.492413	-0.022895	-0.492216	0.865313	-0.094640	0	0	0
13995	0	0	0	0	0	9.775534	-0.306523	-0.839889	-0.000464	-0.007757	-0.003560	-0.863037	0.288086	-0.250977	0.585426	-0.379311	-0.635185	-0.331571	-166.402865	-84.410340	105.969991	-0.026799	0.093644	0.995245	0.870086	0.492368	-0.022899	-0.492171	0.865335	-0.094673	0	0	0
13996	0	0	0	0	0	9.772095	-0.247352	-0.831254	-0.009718	-0.011175	-0.000421	-0.855225	0.297607	-0.236084	0.585381	-0.379379	-0.635175	-0.331593	-166.399376	-84.405677	105.957931	-0.026801	0.093728	0.995237	0.870160	0.492236	-0.022924	-0.492040	0.865401	-0.094751	0	0	0
13997	0	0	0	0	0	9.772016	-0.247330	-0.832188	-0.005618	-0.007549	0.001277	-0.858398	0.291016	-0.236328	0.585366	-0.379424	-0.635159	-0.331597	-166.377030	-84.403465	105.930832	-0.026768	0.093777	0.995233	0.870201	0.492161	-0.022970	-0.491969	0.865438	-0.094779	0	0	0
13998	0	0	0	0	0	9.780751	-0.219400	-0.814573	-0.001971	-0.008584	-0.002254	-0.862549	0.300537	-0.229736	0.585341	-0.379459	-0.635157	-0.331605	-166.375981	-84.400492	105.925684	-0.026773	0.093829	0.995228	0.870237	0.492098	-0.022984	-0.491906	0.865469	-0.094829	0	0	0
13999	0	0	0	0	0	9.780970	-0.192392	-0.855775	-0.011607	-0.000018	0.000667	-0.863525	0.293945	-0.239746	0.585331	-0.379518	-0.635107	-0.331651	-166.350320	-84.402235	105.890246	-0.026707	0.093817	0.995231	0.870320	0.491948	-0.023019	-0.491761	0.865555	-0.094789	0	0	0
14000	0	0	0	0	0	9.772160	-0.220312	-0.874270	-0.010749	-0.001149	0.002780	-0.861816	0.289795	-0.235596	0.585321	-0.379582	-0.635060	-0.331686	-166.315461	-84.402719	105.846072	-0.026632	0.093829	0.995232	0.870400	0.491803	-0.023075	-0.491624	0.865636	-0.094767	0	0	0
14001	0	0	0	0	0	9.759715	-0.216113	-0.842638	-0.011841	-0.004671	-0.000697	-0.857178	0.292969	-0.232910	0.585297	-0.379640	-0.635027	-0.331725	-166.304434	-84.402210	105.825965	-0.026602	0.093847	0.995231	0.870479	0.491664	-0.023095	-0.491487	0.865713	-0.094771	0	0	0
14002	0	0	0	0	0	9.784009	-0.278317	-0.825426	-0.009252	-0.003420	0.003141	-0.856445	0.295410	-0.241455	0.585283	-0.379705	-0.634988	-0.331750	-166.269814	-84.401378	105.782893	-0.026535	0.093881	0.995230	0.870551	0.491533	-0.023156	-0.491362	0.865784	-0.094771	0	0	0
14003	0	0	0	0	0	9.759513	-0.229784	-0.823099	-0.006250	-0.004863	0.002195	-0.862305	0.295410	-0.238525	0.585274	-0.379756	-0.634960	-0.331762	-166.238986	-84.400363	105.746085	-0.026480	0.093915	0.995228	0.870603	0.491439	-0.023211	-0.491274	0.865834	-0.094776	0	0	0
14004	0	0	0	0	0	9.759459	-0.229724	-0.823749	-0.009706	-0.008081	-0.002088	-0.855713	0.291748	-0.239502	0.585236	-0.379813	-0.634943	-0.331795	-166.240802	-84.397646	105.739362	-0.026482	0.093963	0.995223	0.870676	0.491308	-0.023219	-0.491143	0.865902	-0.094822	0	0	0
14005	0	0	0	0	0	9.775164	-0.292475	-0.866184	-0.009067	-0.009220	-0.003840	-0.860352	0.292969	-0.234619	0.585198	-0.379859	-0.634935	-0.331825	-166.252005	-84.395079	105.743416	-0.026500	0.094004	0.995219	0.870738	0.491199	-0.023211	-0.491033	0.865960	-0.094870	0	0	0
14006	0	0	0	0	0	9.783790	-0.277883	-0.828160	0.002125	-0.006506	0.000274	-0.858643	0.289307	-0.243652	0.585192	-0.379887	-0.634929	-0.331816	-166.231467	-84.392917	105.721043	-0.026474	0.094051	0.995215	0.870754	0.491169	-0.023254	-0.491006	0.865972	-0.094898	0	0	0
14007	0	0	0	0	0	9.817216	-0.271926	-0.854122	-0.001116	-0.011265	0.000690	-0.853027	0.292969	-0.235596	0.585171	-0.379926	-0.634932	-0.331803	-166.215547	-84.388617	105.702526	-0.026464	0.094131	0.995208	0.870777	0.491127	-0.023298	-0.490966	0.865987	-0.094964	0	0	0
14008	0	0	0	0	0	9.725695	-0.235202	-0.801935	-0.005605	-0.004455	-0.000390	-0.861328	0.297607	-0.234619	0.585154	-0.379971	-0.634909	-0.331824	-166.200385	-84.387686	105.681104	-0.026433	0.094157	0.995206	0.870830	0.491030	-0.023327	-0.490872	0.866039	-0.094974	0	0	0
14009	0	0	0	0	0	9.792411	-0.250016	-0.812002	-0.006477	-0.007970	-0.000002	-0.868164	0.293213	-0.238281	0.585130	-0.380022	-0.634892	-0.331839	-166.186538	-84.385181	105.660941	-0.026411	0.094208	0.995202	0.870885	0.490932	-0.023361	-0.490777	0.866089	-0.095011	0	0	0
14010	0	0	0	0	0	9.783668	-0.264247	-0.851371	-0.011834	-0.003125	-0.001526	-0.858887	0.293457	-0.231934	0.585105	-0.380080	-0.634857	-0.331886	-166.179541	-84.385144	105.644138	-0.026384	0.094216	0.995202	0.870969	0.490782	-0.023372	-0.490629	0.866173	-0.095008	0	0	0
14011	0	0	0	0	0	9.750133	-0.270251	-0.826730	-0.002382	-0.005891	0.002528	-0.858887	0.293457	-0.237549	0.585099	-0.380124	-0.634837	-0.331885	-166.146632	-84.383443	105.607156	-0.026331	0.094262	0.995199	0.871004	0.490717	-0.023434	-0.490570	0.866205	-0.095024	0	0	0
14012	0	0	0	0	0	9.783569	-0.264156	-0.852536	0.001037	-0.008479	-0.004037	-0.860840	0.294678	-0.232910	0.585076	-0.380144	-0.634843	-0.331888	-166.153932	-84.380771	105.612129	-0.026352	0.094304	0.995195	0.871024	0.490681	-0.023433	-0.490533	0.866221	-0.095072	0	0	0
14013	0	0	0	0	0	9.792326	-0.235888	-0.834920	-0.001326	-0.008175	-0.004841	-0.859375	0.286621	-0.228516	0.585053	-0.380165	-0.634846	-0.331901	-166.165051	-84.378827	105.620077	-0.026374	0.094333	0.995191	0.871052	0.490633	-0.023423	-0.490483	0.866245	-0.095109	0	0	0
14014	0	0	0	0	0	9.771165	-0.245699	-0.842594	0.003402	-0.008784	-0.003231	-0.866455	0.291992	-0.238770	0.585036	-0.380182	-0.634855	-0.331893	-166.166858	-84.375875	105.620893	-0.026389	0.094382	0.995186	0.871060	0.490617	-0.023432	-0.490467	0.866249	-0.095160	0	0	0
14015	0	0	0	0	0	9.774601	-0.290711	-0.873107	-0.005816	-0.001365	-0.005919	-0.861328	0.291504	-0.237061	0.585024	-0.380202	-0.634832	-0.331937	-166.177812	-84.377851	105.625999	-0.026388	0.094347	0.995190	0.871110	0.490530	-0.023405	-0.490378	0.866302	-0.095131	0	0	0
14016	0	0	0	0	0	9.762416	-0.259058	-0.882132	0.001914	-0.003416	-0.005258	-0.855713	0.288574	-0.233887	0.585017	-0.380207	-0.634828	-0.331950	-166.184452	-84.378164	105.630815	-0.026395	0.094339	0.995190	0.871126	0.490502	-0.023393	-0.490350	0.866318	-0.095128	0	0	0
14017	0	0	0	0	0	9.783393	-0.261890	-0.855254	-0.001092	-0.003522	-0.003476	-0.864014	0.295410	-0.233643	0.585012	-0.380223	-0.634815	-0.331966	-166.181543	-84.378671	105.625034	-0.026383	0.094334	0.995191	0.871150	0.490459	-0.023396	-0.490307	0.866344	-0.095118	0	0	0
14018	0	0	0	0	0	9.770979	-0.257338	-0.823742	-0.001959	-0.005489	-0.003922	-0.855957	0.297852	-0.232910	0.584994	-0.380248	-0.634807	-0.331984	-166.185735	-84.377648	105.625158	-0.026388	0.094351	0.995189	0.871185	0.490397	-0.023393	-0.490245	0.866377	-0.095137	0	0	0
14019	0	0	0	0	0	9.737536	-0.249508	-0.819838	-0.007567	-0.011495	-0.003476	-0.863770	0.285889	-0.236084	0.584950	-0.380299	-0.634806	-0.332007	-166.197084	-84.373602	105.629420	-0.026414	0.094416	0.995182	0.871246	0.490288	-0.023391	-0.490135	0.866431	-0.095210	0	0	0
14020	0	0	0	0	0	9.783118	-0.274157	-0.837287	-0.003697	-0.010971	-0.003979	-0.857422	0.295166	-0.230225	0.584911	-0.380338	-0.634811	-0.332020	-166.210191	-84.369535	105.637503	-0.026446	0.094481	0.995175	0.871290	0.490212	-0.023386	-0.490056	0.866468	-0.095284	0	0	0
14021	0	0	0	0	0	9.767570	-0.170244	-0.857844	-0.011431	-0.010471	-0.003806	-0.853760	0.290771	-0.234375	0.584862	-0.380395	-0.634801	-0.332058	-166.224805	-84.366153	105.643043	-0.026471	0.094535	0.995170	0.871368	0.490073	-0.023376	-0.489916	0.866540	-0.095347	0	0	0
14022	0	0	0	0	0	9.791906	-0.232063	-0.840892	-0.005595	-0.001359	-0.002053	-0.862305	0.294434	-0.230225	0.584853	-0.380430	-0.634772	-0.332090	-166.214820	-84.367172	105.626829	-0.026440	0.094525	0.995171	0.871421	0.489978	-0.023388	-0.489823	0.866595	-0.095326	0	0	0
14023	0	0	0	0	0	9.767342	-0.196652	-0.817727	-0.003865	0.001025	-0.000330	-0.858398	0.288574	-0.243164	0.584861	-0.380459	-0.634734	-0.332116	-166.189274	-84.369688	105.596257	-0.026377	0.094497	0.995176	0.871464	0.489901	-0.023420	-0.489750	0.866642	-0.095273	0	0	0
14024	0	0	0	0	0	9.779727	-0.200687	-0.849598	-0.017832	0.001303	-0.000456	-0.863037	0.291748	-0.240234	0.584840	-0.380530	-0.634674	-0.332187	-166.173571	-84.371970	105.567252	-0.026319	0.094472	0.995180	0.871577	0.489698	-0.023437	-0.489551	0.866759	-0.095228	0	0	0
14025	0	0	0	0	0	9.779823	-0.187087	-0.869940	-0.023204	-0.000051	0.001355	-0.861084	0.293701	-0.232422	0.584816	-0.380613	-0.634607	-0.332261	-166.151082	-84.373937	105.530003	-0.026248	0.094456	0.995183	0.871703	0.489472	-0.023466	-0.489331	0.866888	-0.095186	0	0	0
14026	0	0	0	0	0	9.746232	-0.206599	-0.824757	-0.024077	-0.005119	0.002576	-0.865234	0.297607	-0.241211	0.584767	-0.380723	-0.634550	-0.332331	-166.130754	-84.372228	105.492755	-0.026195	0.094502	0.995180	0.871848	0.489212	-0.023507	-0.489076	0.867030	-0.095206	0	0	0
14027	0	0	0	0	0	9.761909	-0.269751	-0.867185	-0.034182	-0.008968	0.004446	-0.862061	0.296387	-0.234619	0.584696	-0.380869	-0.634483	-0.332418	-166.109306	-84.368614	105.449299	-0.026140	0.094582	0.995174	0.872036	0.488874	-0.023558	-0.488743	0.867212	-0.095258	0	0	0
14028	0	0	0	0	0	9.773900	-0.314391	-0.839331	-0.032910	-0.014346	0.002606	-0.857422	0.299805	-0.237549	0.584601	-0.381020	-0.634437	-0.332498	-166.106797	-84.361767	105.424871	-0.026131	0.094708	0.995162	0.872224	0.488538	-0.023590	-0.488408	0.867388	-0.095373	0	0	0
14029	0	0	0	0	0	9.786235	-0.304915	-0.893019	-0.019802	-0.011940	-0.000213	-0.866943	0.299805	-0.229492	0.584539	-0.381115	-0.634411	-0.332548	-166.107217	-84.357125	105.411595	-0.026131	0.094792	0.995154	0.872341	0.488327	-0.023609	-0.488199	0.867497	-0.095451	0	0	0
14030	0	0	0	0	0	9.786083	-0.318191	-0.873491	-0.015694	-0.003660	-0.001013	-0.853027	0.290527	-0.236084	0.584506	-0.381186	-0.634370	-0.332604	-166.100374	-84.356719	105.392724	-0.026101	0.094807	0.995153	0.872444	0.488144	-0.023622	-0.488017	0.867599	-0.095455	0	0	0
14031	0	0	0	0	0	9.752682	-0.310472	-0.869053	0.002775	-0.002993	-0.003983	-0.857910	0.292725	-0.243896	0.584508	-0.381190	-0.634362	-0.332612	-166.097064	-84.357506	105.388368	-0.026090	0.094796	0.995155	0.872452	0.488128	-0.023624	-0.488002	0.867609	-0.095441	0	0	0
14032	0	0	0	0	0	9.770504	-0.227428	-0.872890	0.006649	0.000634	-0.006152	-0.857666	0.290283	-0.236328	0.584521	-0.381172	-0.634355	-0.332621	-166.100365	-84.360195	105.392553	-0.026085	0.094749	0.995159	0.872445	0.488142	-0.023608	-0.488016	0.867606	-0.095397	0	0	0
14033	0	0	0	0	0	9.761721	-0.254524	-0.891096	0.013528	0.004370	-0.010104	-0.859375	0.293457	-0.236816	0.584562	-0.381105	-0.634358	-0.332621	-166.115111	-84.366176	105.413781	-0.026093	0.094639	0.995170	0.872389	0.488245	-0.023558	-0.488116	0.867560	-0.095302	0	0	0
14034	0	0	0	0	0	9.766975	-0.207425	-0.801423	0.022760	0.003153	-0.010756	-0.860352	0.293945	-0.237549	0.584607	-0.381022	-0.634379	-0.332597	-166.131658	-84.370899	105.440553	-0.026115	0.094548	0.995178	0.872301	0.488404	-0.023511	-0.488271	0.867481	-0.095229	0	0	0
14035	0	0	0	0	0	9.746088	-0.189829	-0.848576	0.015893	0.004065	-0.009300	-0.865234	0.302246	-0.238037	0.584650	-0.380955	-0.634384	-0.332589	-166.140977	-84.376477	105.457096	-0.026116	0.094447	0.995187	0.872239	0.488517	-0.023472	-0.488382	0.867428	-0.095139	0	0	0
14036	0	0	0	0	0	9.737213	-0.230221	-0.846692	0.002331	-0.004555	-0.010877	-0.859375	0.295410	-0.244141	0.584631	-0.380943	-0.634394	-0.332615	-166.180716	-84.376927	105.495410	-0.026177	0.094422	0.995188	0.872251	0.488498	-0.023404	-0.488358	0.867441	-0.095147	0	0	0
14037	0	0	0	0	0	9.770436	-0.263511	-0.811127	0.002334	-0.003005	-0.011710	-0.860107	0.293701	-0.229248	0.584623	-0.380918	-0.634402	-0.332642	-166.220742	-84.378958	105.535316	-0.026234	0.094370	0.995191	0.872252	0.488501	-0.023330	-0.488353	0.867445	-0.095129	0	0	0
14038	0	0	0	0	0	9.795008	-0.297718	-0.834739	-0.000674	-0.004665	-0.009094	-0.864746	0.295166	-0.238770	0.584601	-0.380922	-0.634404	-0.332673	-166.252294	-84.379099	105.563674	-0.026280	0.094355	0.995192	0.872279	0.488455	-0.023277	-0.488303	0.867473	-0.095140	0	0	0
14039	0	0	0	0	0	9.803871	-0.255553	-0.837136	0.003191	-0.005688	-0.008766	-0.855957	0.295654	-0.235596	0.584588	-0.380913	-0.634414	-0.332688	-166.279643	-84.379052	105.590432	-0.026324	0.094343	0.995192	0.872284	0.488448	-0.023231	-0.488291	0.867478	-0.095152	0	0	0
14040	0	0	0	0	0	9.782855	-0.251412	-0.864500	0.008796	0.001873	-0.010044	-0.857666	0.292236	-0.229248	0.584603	-0.380875	-0.634414	-0.332703	-166.302130	-84.382959	105.615133	-0.026346	0.094266	0.995198	0.872264	0.488485	-0.023178	-0.488325	0.867465	-0.095095	0	0	0
14041	0	0	0	0	0	9.803918	-0.253819	-0.837113	0.011161	0.001571	-0.009241	-0.864746	0.299072	-0.239746	0.584627	-0.380831	-0.634417	-0.332708	-166.317453	-84.386996	105.634288	-0.026359	0.094190	0.995205	0.872231	0.488546	-0.023136	-0.488383	0.867439	-0.095033	0	0	0
14042	0	0	0	0	0	9.749389	-0.269312	-0.818839	0.011794	-0.002667	-0.009329	-0.860107	0.285889	-0.236328	0.584635	-0.380793	-0.634434	-0.332704	-166.340482	-84.388277	105.661260	-0.026397	0.094156	0.995207	0.872197	0.488609	-0.023092	-0.488441	0.867408	-0.095021	0	0	0
14043	0	0	0	0	0	9.749474	-0.255141	-0.839210	0.014388	0.001685	-0.007159	-0.866699	0.288330	-0.235596	0.584671	-0.380741	-0.634440	-0.332690	-166.342229	-84.392252	105.669408	-0.026392	0.094086	0.995214	0.872142	0.488708	-0.023073	-0.488540	0.867359	-0.094954	0	0	0
14044	0	0	0	0	0	9.783111	-0.221541	-0.904690	0.009887	0.005394	-0.006567	-0.854736	0.297363	-0.238770	0.584705	-0.380705	-0.634425	-0.332699	-166.339608	-84.397647	105.669507	-0.026367	0.093996	0.995223	0.872118	0.488751	-0.023055	-0.488584	0.867345	-0.094862	0	0	0
14045	0	0	0	0	0	9.800758	-0.165164	-0.867280	0.000429	0.005052	-0.008947	-0.862549	0.291260	-0.237549	0.584723	-0.380682	-0.634400	-0.332741	-166.354782	-84.403711	105.682973	-0.026361	0.093888	0.995234	0.872132	0.488729	-0.023005	-0.488559	0.867369	-0.094766	0	0	0
14046	0	0	0	0	0	9.767460	-0.143726	-0.882696	-0.000223	-0.001556	-0.003031	-0.854248	0.293213	-0.231934	0.584722	-0.380699	-0.634383	-0.332758	-166.347460	-84.404757	105.672527	-0.026339	0.093875	0.995235	0.872159	0.488681	-0.023013	-0.488513	0.867397	-0.094745	0	0	0
14047	0	0	0	0	0	9.718127	-0.086653	-0.816702	-0.013571	-0.014822	0.001755	-0.864990	0.289307	-0.233887	0.584666	-0.380786	-0.634372	-0.332777	-166.337366	-84.398244	105.652218	-0.026336	0.093994	0.995224	0.872247	0.488522	-0.023057	-0.488357	0.867474	-0.094851	0	0	0
14048	0	0	0	0	0	9.730233	-0.117617	-0.809504	-0.036995	-0.016448	0.000088	-0.861084	0.289063	-0.238281	0.584552	-0.380945	-0.634330	-0.332874	-166.353959	-84.390577	105.644633	-0.026359	0.094125	0.995211	0.872454	0.488153	-0.023061	-0.487986	0.867668	-0.094987	0	0	0
14049	0	0	0	0	0	9.788070	-0.159900	-0.839284	-0.043223	-0.018230	0.000626	-0.864502	0.293213	-0.236328	0.584428	-0.381119	-0.634283	-0.332982	-166.372496	-84.382378	105.636300	-0.026384	0.094266	0.995197	0.872683	0.487742	-0.023063	-0.487573	0.867884	-0.095133	0	0	0
14050	0	0	0	0	0	9.800219	-0.177193	-0.852660	-0.050083	-0.015777	0.001254	-0.864990	0.294189	-0.229004	0.584294	-0.381318	-0.634215	-0.333118	-166.389044	-84.374928	105.621134	-0.026394	0.094398	0.995185	0.872954	0.487257	-0.023066	-0.487088	0.868141	-0.095266	0	0	0
14051	0	0	0	0	0	9.745470	-0.220340	-0.794983	-0.048983	-0.009161	0.003073	-0.860107	0.301025	-0.237061	0.584189	-0.381506	-0.634126	-0.333258	-166.384362	-84.371315	105.585512	-0.026352	0.094475	0.995178	0.873217	0.486784	-0.023089	-0.486618	0.868399	-0.095325	0	0	0
14052	0	0	0	0	0	9.748811	-0.278751	-0.806078	-0.051151	-0.014662	-0.004711	-0.859619	0.296875	-0.227539	0.584046	-0.381688	-0.634064	-0.333417	-166.433682	-84.365290	105.602662	-0.026408	0.094568	0.995168	0.873491	0.486295	-0.023032	-0.486124	0.868662	-0.095446	0	0	0
14053	0	0	0	0	0	9.794367	-0.303066	-0.824199	-0.039331	-0.016175	-0.000703	-0.854736	0.293701	-0.229736	0.583931	-0.381848	-0.634018	-0.333523	-166.453558	-84.358268	105.597213	-0.026432	0.094688	0.995156	0.873706	0.485908	-0.023027	-0.485735	0.868866	-0.095573	0	0	0
14054	0	0	0	0	0	9.794234	-0.316138	-0.805107	-0.022137	-0.007014	-0.003498	-0.864990	0.292725	-0.234131	0.583870	-0.381936	-0.633980	-0.333601	-166.468940	-84.356340	105.596967	-0.026441	0.094720	0.995153	0.873839	0.485670	-0.023009	-0.485496	0.868995	-0.095612	0	0	0
14055	0	0	0	0	0	9.806472	-0.333121	-0.817620	-0.000679	-0.009311	-0.006606	-0.851807	0.297119	-0.230225	0.583842	-0.381951	-0.633990	-0.333615	-166.491237	-84.353987	105.616450	-0.026484	0.094750	0.995149	0.873863	0.485628	-0.022981	-0.485450	0.869015	-0.095660	0	0	0
14056	0	0	0	0	0	9.781912	-0.283607	-0.815196	0.004693	-0.003293	-0.010913	-0.852295	0.295898	-0.233154	0.583831	-0.381931	-0.634000	-0.333636	-166.527994	-84.355123	105.653129	-0.026539	0.094714	0.995151	0.873864	0.485631	-0.022916	-0.485446	0.869018	-0.095656	0	0	0
14057	0	0	0	0	0	9.802968	-0.285951	-0.788403	0.016284	-0.004800	-0.010775	-0.863770	0.288086	-0.234863	0.583843	-0.381877	-0.634033	-0.333617	-166.557200	-84.355844	105.689343	-0.026596	0.094686	0.995152	0.873804	0.485740	-0.022864	-0.485550	0.868960	-0.095655	0	0	0
14058	0	0	0	0	0	9.757405	-0.206011	-0.853811	0.011555	-0.008853	-0.009882	-0.861328	0.298828	-0.243652	0.583830	-0.381849	-0.634069	-0.333603	-166.591709	-84.353740	105.727714	-0.026669	0.094703	0.995148	0.873771	0.485801	-0.022815	-0.485605	0.868924	-0.095705	0	0	0
14059	0	0	0	0	0	9.778434	-0.208476	-0.827235	-0.003673	-0.003224	-0.008142	-0.848877	0.291504	-0.232666	0.583816	-0.381851	-0.634062	-0.333637	-166.615933	-84.355209	105.748528	-0.026697	0.094669	0.995151	0.873800	0.485752	-0.022768	-0.485552	0.868955	-0.095689	0	0	0
14060	0	0	0	0	0	9.757352	-0.190882	-0.875458	-0.005404	-0.011815	-0.006542	-0.860596	0.300049	-0.224121	0.583767	-0.381888	-0.634072	-0.333662	-166.645266	-84.351007	105.771935	-0.026755	0.094728	0.995144	0.873851	0.485663	-0.022736	-0.485458	0.868999	-0.095772	0	0	0
14061	0	0	0	0	0	9.769512	-0.234683	-0.847556	-0.010128	-0.009664	-0.008972	-0.858643	0.294434	-0.229736	0.583713	-0.381928	-0.634070	-0.333714	-166.686245	-84.348657	105.804215	-0.026820	0.094752	0.995140	0.873924	0.485532	-0.022677	-0.485321	0.869069	-0.095828	0	0	0
14062	0	0	0	0	0	9.769447	-0.233661	-0.848593	-0.001761	-0.011286	-0.010913	-0.860596	0.294922	-0.233154	0.583665	-0.381940	-0.634093	-0.333740	-166.737324	-84.345324	105.851570	-0.026914	0.094786	0.995134	0.873956	0.485479	-0.022605	-0.485259	0.869095	-0.095905	0	0	0
14063	0	0	0	0	0	9.793968	-0.281287	-0.852453	0.006194	-0.005564	-0.010559	-0.859619	0.292969	-0.238037	0.583655	-0.381917	-0.634111	-0.333751	-166.772627	-84.345560	105.888020	-0.026973	0.094765	0.995134	0.873946	0.485499	-0.022545	-0.485273	0.869086	-0.095914	0	0	0
14064	0	0	0	0	0	9.751769	-0.287458	-0.887030	0.006417	-0.007113	-0.005866	-0.857422	0.288574	-0.235107	0.583644	-0.381914	-0.634126	-0.333745	-166.785011	-84.343887	105.901200	-0.027003	0.094786	0.995131	0.873940	0.485512	-0.022531	-0.485284	0.869076	-0.095948	0	0	0
14065	0	0	0	0	0	9.785121	-0.294362	-0.892412	0.012007	-0.004193	-0.004651	-0.860352	0.290527	-0.232910	0.583663	-0.381884	-0.634140	-0.333719	-166.782052	-84.344321	105.903558	-0.027005	0.094778	0.995132	0.873895	0.485593	-0.022534	-0.485365	0.869032	-0.095939	0	0	0
14066	0	0	0	0	0	9.781594	-0.248558	-0.862695	0.014146	-0.006048	-0.006883	-0.862061	0.293945	-0.231201	0.583668	-0.381854	-0.634167	-0.333693	-166.794322	-84.343375	105.921073	-0.027038	0.094785	0.995130	0.873850	0.485674	-0.022517	-0.485443	0.868986	-0.095960	0	0	0
14067	0	0	0	0	0	9.756958	-0.213019	-0.839979	0.005779	-0.007529	-0.003279	-0.859619	0.297119	-0.236084	0.583664	-0.381857	-0.634176	-0.333680	-166.791736	-84.341592	105.919364	-0.027044	0.094816	0.995127	0.873843	0.485686	-0.022529	-0.485456	0.868976	-0.095989	0	0	0
14068	0	0	0	0	0	9.793784	-0.265358	-0.875790	0.006418	-0.008666	-0.005033	-0.864014	0.296387	-0.227295	0.583649	-0.381859	-0.634194	-0.333668	-166.801469	-84.338943	105.929881	-0.027074	0.094855	0.995123	0.873837	0.485698	-0.022523	-0.485465	0.868965	-0.096038	0	0	0
14069	0	0	0	0	0	9.769161	-0.229968	-0.852886	0.006867	-0.000903	-0.001464	-0.856201	0.292969	-0.234131	0.583670	-0.381856	-0.634182	-0.333660	-166.778807	-84.340566	105.908388	-0.027030	0.094838	0.995126	0.873827	0.485714	-0.022554	-0.485486	0.868958	-0.096001	0	0	0
14070	0	0	0	0	0	9.748054	-0.226260	-0.880384	0.007057	-0.006701	-0.008449	-0.863281	0.294922	-0.236816	0.583657	-0.381842	-0.634201	-0.333660	-166.804807	-84.339461	105.935620	-0.027081	0.094844	0.995124	0.873816	0.485735	-0.022515	-0.485502	0.868945	-0.096030	0	0	0
14071	0	0	0	0	0	9.760326	-0.243138	-0.892500	0.003417	-0.002578	-0.006571	-0.863037	0.287354	-0.230957	0.583661	-0.381831	-0.634200	-0.333671	-166.815159	-84.340979	105.946091	-0.027091	0.094814	0.995126	0.873815	0.485738	-0.022492	-0.485503	0.868947	-0.096009	0	0	0
14072	0	0	0	0	0	9.760328	-0.242463	-0.892671	0.008783	-0.001212	-0.008389	-0.864014	0.294189	-0.233887	0.583669	-0.381803	-0.634206	-0.333676	-166.832598	-84.342928	105.965714	-0.027114	0.094772	0.995130	0.873796	0.485774	-0.022455	-0.485536	0.868932	-0.095983	0	0	0
14073	0	0	0	0	0	9.781411	-0.231471	-0.886134	0.013287	-0.004918	-0.008990	-0.857178	0.294434	-0.230713	0.583677	-0.381762	-0.634232	-0.333660	-166.854679	-84.343361	105.993192	-0.027157	0.094752	0.995130	0.873750	0.485858	-0.022416	-0.485616	0.868887	-0.095984	0	0	0
14074	0	0	0	0	0	9.769091	-0.199698	-0.895206	0.001054	-0.003830	-0.006539	-0.862305	0.298340	-0.229248	0.583666	-0.381767	-0.634229	-0.333679	-166.869582	-84.343606	106.005817	-0.027177	0.094742	0.995131	0.873769	0.485825	-0.022390	-0.485580	0.868906	-0.095986	0	0	0
14075	0	0	0	0	0	9.747952	-0.222741	-0.882405	-0.003896	-0.010992	-0.007842	-0.864258	0.297852	-0.234863	0.583622	-0.381793	-0.634240	-0.333705	-166.902246	-84.340383	106.033488	-0.027238	0.094782	0.995125	0.873812	0.485750	-0.022348	-0.485500	0.868944	-0.096053	0	0	0
14076	0	0	0	0	0	9.781247	-0.242803	-0.868260	-0.012487	-0.015581	-0.006436	-0.864014	0.297852	-0.238525	0.583547	-0.381858	-0.634249	-0.333744	-166.939682	-84.334056	106.060959	-0.027314	0.094875	0.995114	0.873897	0.485599	-0.022310	-0.485343	0.869018	-0.096174	0	0	0
14077	0	0	0	0	0	9.814545	-0.235947	-0.894555	-0.014404	-0.005966	-0.004498	-0.860840	0.293213	-0.229980	0.583509	-0.381911	-0.634223	-0.333799	-166.952709	-84.333403	106.063840	-0.027322	0.094884	0.995113	0.873983	0.485445	-0.022291	-0.485188	0.869103	-0.096191	0	0	0
14078	0	0	0	0	0	9.772318	-0.242491	-0.929002	-0.010315	-0.003877	-0.001978	-0.860107	0.292480	-0.228516	0.583483	-0.381964	-0.634194	-0.333841	-166.948511	-84.333030	106.050724	-0.027302	0.094897	0.995113	0.874059	0.485308	-0.022299	-0.485053	0.869178	-0.096195	0	0	0
14079	0	0	0	0	0	9.768818	-0.224029	-0.858375	-0.000000	-0.000000	-0.000000	-0.859131	0.299805	-0.231445	0.583495	-0.381984	-0.634164	-0.333852	-166.920893	-84.334940	106.020127	-0.027242	0.094879	0.995116	0.874084	0.485261	-0.022338	-0.485011	0.869206	-0.096152	0	0	0
14080	0	0	0	0	0	9.760034	-0.251684	-0.876828	-0.007091	0.000897	-0.002396	-0.859131	0.294678	-0.226318	0.583490	-0.382018	-0.634126	-0.333894	-166.910955	-84.337284	106.003098	-0.027203	0.094848	0.995120	0.874144	0.485153	-0.022346	-0.484905	0.869270	-0.096109	0	0	0
14081	0	0	0	0	0	9.760039	-0.251561	-0.876807	0.007729	-0.000482	-0.000189	-0.864746	0.288574	-0.233398	0.583514	-0.382019	-0.634111	-0.333881	-166.880002	-84.338904	105.973405	-0.027146	0.094835	0.995123	0.874133	0.485170	-0.022391	-0.484928	0.869262	-0.096069	0	0	0
14082	0	0	0	0	0	9.768835	-0.223691	-0.858263	0.010731	0.001184	-0.002807	-0.859375	0.300293	-0.237549	0.583543	-0.381999	-0.634103	-0.333868	-166.861761	-84.341461	105.958294	-0.027109	0.094800	0.995127	0.874106	0.485218	-0.022412	-0.484978	0.869239	-0.096019	0	0	0
14083	0	0	0	0	0	9.777618	-0.182233	-0.860075	0.006867	-0.000902	-0.001466	-0.865723	0.302246	-0.229980	0.583567	-0.381991	-0.634092	-0.333856	-166.839241	-84.343248	105.937734	-0.027066	0.094780	0.995130	0.874089	0.485246	-0.022443	-0.485010	0.869225	-0.095980	0	0	0
14084	0	0	0	0	0	9.802246	-0.244126	-0.842819	0.005142	-0.000189	-0.004850	-0.860840	0.296875	-0.234131	0.583577	-0.381983	-0.634083	-0.333865	-166.837491	-84.345305	105.935978	-0.027053	0.094746	0.995134	0.874089	0.485247	-0.022437	-0.485011	0.869229	-0.095944	0	0	0
14085	0	0	0	0	0	9.735443	-0.229053	-0.833462	-0.001307	-0.008185	-0.004843	-0.867676	0.294434	-0.229736	0.583553	-0.382006	-0.634084	-0.333878	-166.847859	-84.343295	105.942932	-0.027075	0.094776	0.995130	0.874118	0.485195	-0.022428	-0.484958	0.869255	-0.095982	0	0	0
14086	0	0	0	0	0	9.768759	-0.222385	-0.859474	-0.006673	-0.008002	-0.003855	-0.860352	0.288086	-0.229248	0.583518	-0.382049	-0.634076	-0.333906	-166.857559	-84.340864	105.945878	-0.027091	0.094816	0.995126	0.874176	0.485092	-0.022421	-0.484853	0.869308	-0.096027	0	0	0
14087	0	0	0	0	0	9.789808	-0.211692	-0.853235	-0.003449	-0.003228	-0.004274	-0.859863	0.298828	-0.234131	0.583506	-0.382071	-0.634059	-0.333934	-166.860571	-84.341534	105.944123	-0.027085	0.094805	0.995127	0.874216	0.485019	-0.022414	-0.484781	0.869349	-0.096017	0	0	0
14088	0	0	0	0	0	9.747588	-0.218222	-0.887547	-0.005812	-0.004481	-0.004241	-0.859863	0.289063	-0.236084	0.583483	-0.382104	-0.634042	-0.333967	-166.867320	-84.341117	105.944600	-0.027088	0.094812	0.995127	0.874269	0.484924	-0.022404	-0.484685	0.869402	-0.096027	0	0	0
14089	0	0	0	0	0	9.759937	-0.275790	-0.838548	-0.005813	-0.001379	-0.005904	-0.859863	0.289795	-0.231201	0.583474	-0.382120	-0.634021	-0.334007	-166.877660	-84.343229	105.949807	-0.027086	0.094774	0.995130	0.874312	0.484848	-0.022378	-0.484607	0.869449	-0.095995	0	0	0
14090	0	0	0	0	0	9.814404	-0.258803	-0.857012	0.003640	0.000530	-0.004373	-0.856689	0.291504	-0.232666	0.583484	-0.382117	-0.634006	-0.334020	-166.873151	-84.345625	105.944412	-0.027066	0.094737	0.995134	0.874320	0.484835	-0.022376	-0.484595	0.869460	-0.095953	0	0	0
14091	0	0	0	0	0	9.768708	-0.220134	-0.860633	0.014595	0.001720	-0.003319	-0.862305	0.296387	-0.227295	0.583527	-0.382077	-0.634003	-0.333996	-166.853598	-84.349056	105.930959	-0.027027	0.094686	0.995140	0.874268	0.484927	-0.022396	-0.484691	0.869414	-0.095887	0	0	0
14092	0	0	0	0	0	9.756423	-0.215910	-0.828703	0.020603	-0.004254	-0.003567	-0.851807	0.294678	-0.230225	0.583556	-0.382036	-0.634029	-0.333944	-166.841116	-84.348678	105.927320	-0.027023	0.094694	0.995140	0.874193	0.485061	-0.022418	-0.484826	0.869338	-0.095889	0	0	0
14093	0	0	0	0	0	9.735296	-0.226050	-0.836002	0.012876	-0.006875	-0.001714	-0.858154	0.299316	-0.239990	0.583567	-0.382026	-0.634044	-0.333906	-166.824279	-84.346948	105.914859	-0.027011	0.094729	0.995137	0.874156	0.485126	-0.022453	-0.484893	0.869298	-0.095911	0	0	0
14094	0	0	0	0	0	9.747539	-0.243409	-0.848429	0.008789	-0.008968	-0.004233	-0.868408	0.297363	-0.231445	0.583558	-0.382024	-0.634065	-0.333885	-166.828535	-84.344027	105.921238	-0.027035	0.094775	0.995132	0.874138	0.485157	-0.022457	-0.484924	0.869276	-0.095962	0	0	0
14095	0	0	0	0	0	9.768598	-0.232984	-0.842020	0.015460	0.000587	-0.001212	-0.869629	0.296143	-0.241943	0.583603	-0.381990	-0.634064	-0.333848	-166.797243	-84.346585	105.896695	-0.026982	0.094743	0.995136	0.874081	0.485259	-0.022500	-0.485030	0.869223	-0.095907	0	0	0
14096	0	0	0	0	0	9.756301	-0.215265	-0.830313	0.007507	-0.000489	-0.004052	-0.856201	0.296143	-0.232178	0.583618	-0.381979	-0.634058	-0.333846	-166.790019	-84.348370	105.890799	-0.026964	0.094716	0.995139	0.874070	0.485279	-0.022505	-0.485052	0.869214	-0.095874	0	0	0
14097	0	0	0	0	0	9.777428	-0.218196	-0.803122	0.008368	0.001481	-0.003607	-0.858887	0.293213	-0.232910	0.583650	-0.381954	-0.634047	-0.333839	-166.775282	-84.351809	105.879134	-0.026929	0.094664	0.995145	0.874043	0.485326	-0.022516	-0.485101	0.869194	-0.095810	0	0	0
14098	0	0	0	0	0	9.744021	-0.197001	-0.818514	-0.001087	-0.000427	-0.005138	-0.865479	0.289795	-0.233643	0.583647	-0.381964	-0.634029	-0.333867	-166.779015	-84.353771	105.879300	-0.026920	0.094631	0.995148	0.874073	0.485272	-0.022502	-0.485047	0.869227	-0.095778	0	0	0
14099	0	0	0	0	0	9.768685	-0.245031	-0.821415	-0.001089	0.002675	-0.006801	-0.867188	0.288818	-0.231201	0.583657	-0.381958	-0.634004	-0.333904	-166.786843	-84.358202	105.884400	-0.026907	0.094555	0.995156	0.874096	0.485233	-0.022471	-0.485007	0.869257	-0.095706	0	0	0
14100	0	0	0	0	0	9.793279	-0.266016	-0.865173	0.008788	-0.004316	-0.006726	-0.854492	0.295410	-0.227051	0.583658	-0.381940	-0.634017	-0.333898	-166.799048	-84.358203	105.898764	-0.026931	0.094548	0.995156	0.874078	0.485267	-0.022451	-0.485039	0.869239	-0.095711	0	0	0
14101	0	0	0	0	0	9.802049	-0.237704	-0.846934	0.012875	-0.000673	-0.005039	-0.848633	0.300537	-0.233398	0.583684	-0.381909	-0.634020	-0.333882	-166.793386	-84.360386	105.897610	-0.026918	0.094512	0.995160	0.874039	0.485336	-0.022451	-0.485109	0.869204	-0.095672	0	0	0
14102	0	0	0	0	0	9.780934	-0.234086	-0.874159	0.010512	-0.001926	-0.005006	-0.860107	0.300049	-0.239502	0.583698	-0.381888	-0.634025	-0.333871	-166.791722	-84.361494	105.899030	-0.026915	0.094493	0.995162	0.874013	0.485384	-0.022450	-0.485156	0.869180	-0.095653	0	0	0
14103	0	0	0	0	0	9.735243	-0.222599	-0.837541	0.014604	-0.004486	0.000010	-0.864990	0.296143	-0.226318	0.583729	-0.381868	-0.634035	-0.333822	-166.759883	-84.361109	105.873652	-0.026875	0.094512	0.995161	0.873958	0.485479	-0.022504	-0.485257	0.869125	-0.095647	0	0	0
14104	0	0	0	0	0	9.768541	-0.216418	-0.863458	0.004290	-0.009917	-0.001132	-0.857422	0.298828	-0.230469	0.583713	-0.381891	-0.634045	-0.333804	-166.750520	-84.357253	105.863755	-0.026877	0.094581	0.995154	0.873963	0.485469	-0.022535	-0.485248	0.869123	-0.095708	0	0	0
14105	0	0	0	0	0	9.756228	-0.225625	-0.812067	0.006430	-0.010224	-0.004194	-0.860352	0.298584	-0.231201	0.583696	-0.381899	-0.634063	-0.333789	-166.755842	-84.353914	105.869541	-0.026903	0.094634	0.995149	0.873960	0.485475	-0.022540	-0.485253	0.869114	-0.095767	0	0	0
14106	0	0	0	0	0	9.777184	-0.201582	-0.826778	0.006434	-0.013325	-0.002529	-0.866699	0.297607	-0.232910	0.583672	-0.381917	-0.634090	-0.333762	-166.757666	-84.348340	105.872120	-0.026933	0.094726	0.995139	0.873954	0.485485	-0.022559	-0.485262	0.869098	-0.095862	0	0	0
14107	0	0	0	0	0	9.814096	-0.280983	-0.822255	0.002566	-0.010759	-0.003682	-0.864502	0.286377	-0.230225	0.583649	-0.381936	-0.634103	-0.333754	-166.762906	-84.344762	105.876214	-0.026957	0.094783	0.995133	0.873964	0.485466	-0.022564	-0.485242	0.869102	-0.095924	0	0	0
14108	0	0	0	0	0	9.771826	-0.287713	-0.856882	0.008151	-0.004732	-0.004140	-0.860107	0.297119	-0.228027	0.583652	-0.381929	-0.634111	-0.333742	-166.761424	-84.344193	105.876460	-0.026960	0.094793	0.995132	0.873950	0.485492	-0.022569	-0.485268	0.869087	-0.095933	0	0	0
14109	0	0	0	0	0	9.780574	-0.259451	-0.838944	0.008791	-0.005871	-0.005893	-0.857178	0.291260	-0.232666	0.583652	-0.381916	-0.634124	-0.333732	-166.769922	-84.343598	105.887228	-0.026981	0.094798	0.995131	0.873930	0.485527	-0.022557	-0.485302	0.869066	-0.095947	0	0	0
14110	0	0	0	0	0	9.768239	-0.241419	-0.827762	0.005787	-0.004434	-0.004938	-0.863770	0.297119	-0.231689	0.583650	-0.381913	-0.634129	-0.333730	-166.773895	-84.343299	105.891593	-0.026990	0.094801	0.995130	0.873927	0.485534	-0.022552	-0.485307	0.869063	-0.095953	0	0	0
14111	0	0	0	0	0	9.780552	-0.272343	-0.819626	0.012247	-0.007290	0.000875	-0.863037	0.292969	-0.236816	0.583666	-0.381910	-0.634140	-0.333684	-166.743621	-84.341126	105.865883	-0.026957	0.094849	0.995127	0.873889	0.485600	-0.022611	-0.485378	0.869020	-0.095978	0	0	0
14112	0	0	0	0	0	9.776948	-0.227008	-0.790465	0.005798	-0.012189	-0.000773	-0.860840	0.295166	-0.236328	0.583647	-0.381933	-0.634159	-0.333655	-166.734438	-84.335956	105.857034	-0.026967	0.094940	0.995118	0.873886	0.485602	-0.022647	-0.485382	0.869009	-0.096062	0	0	0
14113	0	0	0	0	0	9.768065	-0.254794	-0.810130	0.008803	-0.013627	-0.001728	-0.864014	0.296387	-0.225830	0.583634	-0.381938	-0.634190	-0.333612	-166.729116	-84.330750	105.855186	-0.026989	0.095027	0.995109	0.873858	0.485653	-0.022677	-0.485432	0.868971	-0.096148	0	0	0
14114	0	0	0	0	0	9.768077	-0.281598	-0.770729	0.019541	-0.013998	-0.003707	-0.861816	0.295166	-0.235107	0.583630	-0.381915	-0.634243	-0.333545	-166.730949	-84.324956	105.865321	-0.027033	0.095119	0.995099	0.873788	0.485777	-0.022697	-0.485555	0.868892	-0.096246	0	0	0
14115	0	0	0	0	0	9.776641	-0.226631	-0.794365	0.021908	-0.014298	-0.002908	-0.861328	0.293213	-0.230957	0.583635	-0.381886	-0.634297	-0.333468	-166.725719	-84.319288	105.869935	-0.027068	0.095212	0.995089	0.873705	0.485925	-0.022728	-0.485702	0.868799	-0.096340	0	0	0
14116	0	0	0	0	0	9.764195	-0.195340	-0.804127	0.029635	-0.008581	-0.006433	-0.858643	0.293457	-0.235840	0.583662	-0.381816	-0.634356	-0.333387	-166.729870	-84.316874	105.888211	-0.027110	0.095244	0.995085	0.873585	0.486140	-0.022731	-0.485915	0.868675	-0.096383	0	0	0
14117	0	0	0	0	0	9.760625	-0.149356	-0.774885	0.020175	-0.008942	-0.008789	-0.860352	0.291016	-0.234619	0.583673	-0.381760	-0.634405	-0.333339	-166.751511	-84.315120	105.919553	-0.027170	0.095258	0.995082	0.873503	0.486289	-0.022701	-0.486060	0.868590	-0.096421	0	0	0
14118	0	0	0	0	0	9.785220	-0.197489	-0.778900	0.011812	-0.013520	-0.003509	-0.862061	0.286621	-0.234375	0.583656	-0.381759	-0.634443	-0.333297	-166.755983	-84.309566	105.927890	-0.027210	0.095347	0.995072	0.873471	0.486346	-0.022716	-0.486115	0.868549	-0.096516	0	0	0
14119	0	0	0	0	0	9.751560	-0.162866	-0.816340	0.002136	-0.020094	-0.006391	-0.861816	0.296143	-0.232178	0.583603	-0.381779	-0.634491	-0.333277	-166.789731	-84.301358	105.961386	-0.027305	0.095468	0.995058	0.873474	0.486342	-0.022692	-0.486105	0.868538	-0.096669	0	0	0
14120	0	0	0	0	0	9.754839	-0.194243	-0.868656	-0.007102	-0.018891	-0.005720	-0.859619	0.300781	-0.234131	0.583529	-0.381836	-0.634518	-0.333291	-166.824349	-84.293097	105.989128	-0.027391	0.095593	0.995044	0.873533	0.486237	-0.022666	-0.485994	0.868583	-0.096822	0	0	0
14121	0	0	0	0	0	9.779286	-0.228802	-0.893772	-0.010107	-0.017454	-0.004764	-0.860107	0.296875	-0.230225	0.583461	-0.381897	-0.634532	-0.333313	-166.851175	-84.286010	106.007996	-0.027457	0.095702	0.995031	0.873601	0.486115	-0.022649	-0.485867	0.868639	-0.096952	0	0	0
14122	0	0	0	0	0	9.758141	-0.252066	-0.881800	-0.005377	-0.016499	-0.004003	-0.862793	0.300049	-0.229492	0.583401	-0.381950	-0.634551	-0.333321	-166.871978	-84.278858	106.022847	-0.027516	0.095814	0.995019	0.873652	0.486024	-0.022642	-0.485772	0.868678	-0.097082	0	0	0
14123	0	0	0	0	0	9.791495	-0.272310	-0.867905	-0.001513	-0.014416	-0.005352	-0.860840	0.294678	-0.230225	0.583356	-0.381982	-0.634571	-0.333324	-166.893289	-84.273426	106.040567	-0.027571	0.095896	0.995009	0.873683	0.485969	-0.022627	-0.485713	0.868699	-0.097182	0	0	0
14124	0	0	0	0	0	9.782701	-0.313281	-0.867065	0.005800	-0.009093	-0.002436	-0.856445	0.297363	-0.235596	0.583343	-0.381995	-0.634584	-0.333307	-166.889311	-84.270202	106.036950	-0.027581	0.095952	0.995004	0.873681	0.485973	-0.022646	-0.485717	0.868691	-0.097235	0	0	0
14125	0	0	0	0	0	9.778954	-0.240671	-0.878485	0.013528	-0.006475	-0.004301	-0.864990	0.294678	-0.238770	0.583357	-0.381969	-0.634606	-0.333272	-166.885864	-84.269230	106.039232	-0.027589	0.095967	0.995002	0.873632	0.486059	-0.022656	-0.485804	0.868641	-0.097250	0	0	0
14126	0	0	0	0	0	9.745547	-0.233064	-0.873842	0.012877	-0.000682	-0.005050	-0.868408	0.291504	-0.228027	0.583380	-0.381939	-0.634611	-0.333255	-166.881474	-84.271040	106.039275	-0.027581	0.095937	0.995005	0.873594	0.486127	-0.022656	-0.485873	0.868606	-0.097218	0	0	0
14127	0	0	0	0	0	9.787500	-0.185117	-0.901643	0.007940	-0.009405	-0.005499	-0.851318	0.294678	-0.228516	0.583371	-0.381930	-0.634635	-0.333236	-166.892500	-84.268592	106.052915	-0.027615	0.095971	0.995001	0.873572	0.486167	-0.022647	-0.485910	0.868580	-0.097263	0	0	0
14128	0	0	0	0	0	9.732957	-0.187761	-0.904151	0.001927	-0.006527	-0.003588	-0.861572	0.304199	-0.235840	0.583358	-0.381946	-0.634636	-0.333239	-166.893820	-84.266951	106.052393	-0.027622	0.095999	0.994998	0.873588	0.486138	-0.022652	-0.485881	0.868593	-0.097292	0	0	0
14129	0	0	0	0	0	9.741787	-0.172986	-0.866262	-0.009027	-0.010821	-0.002958	-0.861328	0.294678	-0.234375	0.583316	-0.381999	-0.634630	-0.333264	-166.900914	-84.263327	106.052040	-0.027639	0.096059	0.994992	0.873652	0.486024	-0.022654	-0.485766	0.868650	-0.097356	0	0	0
14130	0	0	0	0	0	9.720703	-0.196279	-0.853793	-0.022352	-0.013268	-0.003959	-0.855469	0.288086	-0.236084	0.583234	-0.382096	-0.634611	-0.333332	-166.926901	-84.257971	106.062328	-0.027682	0.096144	0.994982	0.873785	0.485785	-0.022631	-0.485523	0.868775	-0.097457	0	0	0
14131	0	0	0	0	0	9.736350	-0.258763	-0.897203	-0.029428	-0.020134	-0.002175	-0.854004	0.295166	-0.228271	0.583128	-0.382220	-0.634599	-0.333398	-166.954353	-84.249247	106.071618	-0.027740	0.096285	0.994967	0.873940	0.485507	-0.022618	-0.485241	0.868914	-0.097615	0	0	0
14132	0	0	0	0	0	9.803074	-0.286145	-0.888738	-0.022563	-0.017939	-0.005314	-0.856201	0.296143	-0.231201	0.583028	-0.382321	-0.634596	-0.333462	-166.993872	-84.241458	106.095386	-0.027817	0.096403	0.994954	0.874074	0.485267	-0.022581	-0.484995	0.869035	-0.097762	0	0	0
14133	0	0	0	0	0	9.781599	-0.268686	-0.937968	-0.014192	-0.018011	-0.008100	-0.859131	0.292969	-0.237061	0.582944	-0.382385	-0.634611	-0.333505	-167.042005	-84.234458	106.133172	-0.027914	0.096502	0.994941	0.874162	0.485111	-0.022526	-0.484831	0.869111	-0.097900	0	0	0
14134	0	0	0	0	0	9.793735	-0.285573	-0.951441	-0.013097	-0.017579	-0.002965	-0.863770	0.294922	-0.242432	0.582868	-0.382466	-0.634618	-0.333533	-167.062494	-84.226565	106.143264	-0.027969	0.096629	0.994927	0.874251	0.484951	-0.022522	-0.484668	0.869187	-0.098041	0	0	0
14135	0	0	0	0	0	9.760616	-0.318189	-0.886755	-0.010755	-0.010119	-0.006338	-0.852051	0.296875	-0.227051	0.582826	-0.382501	-0.634618	-0.333568	-167.088920	-84.224127	106.163085	-0.028015	0.096659	0.994923	0.874307	0.484852	-0.022486	-0.484564	0.869239	-0.098093	0	0	0
14136	0	0	0	0	0	9.760424	-0.304062	-0.908013	-0.003664	-0.007907	-0.005621	-0.863770	0.295654	-0.230469	0.582794	-0.382529	-0.634618	-0.333592	-167.106358	-84.221975	106.175544	-0.028046	0.096689	0.994919	0.874349	0.484777	-0.022465	-0.484486	0.869277	-0.098136	0	0	0
14137	0	0	0	0	0	9.748096	-0.285872	-0.896953	0.004059	-0.005282	-0.007491	-0.870850	0.286621	-0.234375	0.582785	-0.382522	-0.634625	-0.333601	-167.124464	-84.221957	106.193469	-0.028076	0.096681	0.994919	0.874351	0.484775	-0.022434	-0.484481	0.869279	-0.098144	0	0	0
14138	0	0	0	0	0	9.765799	-0.242995	-0.840504	0.005574	-0.009105	-0.006303	-0.867920	0.291504	-0.233398	0.582766	-0.382523	-0.634645	-0.333595	-167.141865	-84.219222	106.211209	-0.028120	0.096718	0.994915	0.874348	0.484781	-0.022415	-0.484484	0.869272	-0.098197	0	0	0
14139	0	0	0	0	0	9.777884	-0.246493	-0.873504	0.003213	-0.010361	-0.006263	-0.855469	0.298096	-0.231934	0.582745	-0.382524	-0.634667	-0.333589	-167.161440	-84.216424	106.231165	-0.028167	0.096755	0.994910	0.874345	0.484788	-0.022392	-0.484486	0.869264	-0.098252	0	0	0
14140	0	0	0	0	0	9.753087	-0.197519	-0.871457	0.003444	-0.010349	-0.002403	-0.860352	0.294678	-0.234375	0.582724	-0.382546	-0.634679	-0.333577	-167.160092	-84.212497	106.228834	-0.028182	0.096821	0.994903	0.874354	0.484771	-0.022409	-0.484470	0.869266	-0.098318	0	0	0
14141	0	0	0	0	0	9.753280	-0.224333	-0.831817	-0.001918	-0.011719	-0.000571	-0.866699	0.290771	-0.229736	0.582699	-0.382583	-0.634684	-0.333568	-167.151303	-84.208177	106.217138	-0.028183	0.096899	0.994895	0.874379	0.484724	-0.022441	-0.484424	0.869283	-0.098387	0	0	0
14142	0	0	0	0	0	9.765751	-0.268434	-0.804178	0.000639	-0.016285	-0.007582	-0.860840	0.300537	-0.229248	0.582645	-0.382607	-0.634719	-0.333568	-167.187508	-84.201593	106.250938	-0.028272	0.096992	0.994884	0.874400	0.484688	-0.022404	-0.484381	0.869293	-0.098513	0	0	0
14143	0	0	0	0	0	9.802337	-0.307069	-0.861294	0.010109	-0.017471	-0.004406	-0.864014	0.296143	-0.239746	0.582615	-0.382612	-0.634766	-0.333525	-167.200685	-84.194387	106.267482	-0.028335	0.097104	0.994871	0.874372	0.484738	-0.022409	-0.484428	0.869252	-0.098640	0	0	0
14144	0	0	0	0	0	9.780661	-0.276659	-0.930462	0.019555	-0.012450	-0.004566	-0.856689	0.295410	-0.236816	0.582615	-0.382583	-0.634816	-0.333464	-167.204591	-84.189561	106.279711	-0.028380	0.097178	0.994862	0.874302	0.484864	-0.022421	-0.484551	0.869174	-0.098724	0	0	0
14145	0	0	0	0	0	9.743691	-0.223790	-0.896663	0.024937	-0.015739	-0.003897	-0.861328	0.300049	-0.233887	0.582627	-0.382533	-0.634886	-0.333368	-167.203670	-84.183628	106.292400	-0.028430	0.097271	0.994852	0.874188	0.485069	-0.022446	-0.484755	0.869049	-0.098824	0	0	0
14146	0	0	0	0	0	9.755848	-0.240976	-0.909831	0.016971	-0.015275	-0.007549	-0.862793	0.290283	-0.226563	0.582607	-0.382507	-0.634946	-0.333318	-167.228887	-84.177602	106.324563	-0.028514	0.097355	0.994841	0.874129	0.485175	-0.022425	-0.484855	0.868981	-0.098936	0	0	0
14147	0	0	0	0	0	9.768183	-0.271346	-0.902541	0.022335	-0.013908	-0.009383	-0.864014	0.297607	-0.231689	0.582605	-0.382453	-0.635013	-0.333257	-167.257680	-84.173063	106.364070	-0.028603	0.097411	0.994833	0.874039	0.485339	-0.022393	-0.485013	0.868882	-0.099024	0	0	0
14148	0	0	0	0	0	9.809967	-0.223114	-0.930997	0.030279	-0.008169	-0.009067	-0.871094	0.297607	-0.230469	0.582631	-0.382372	-0.635077	-0.333182	-167.274692	-84.171197	106.395649	-0.028666	0.097427	0.994830	0.873916	0.485562	-0.022371	-0.485231	0.868756	-0.099062	0	0	0
14149	0	0	0	0	0	9.785188	-0.174060	-0.928531	0.028996	-0.004334	-0.006396	-0.864990	0.291992	-0.235352	0.582676	-0.382293	-0.635121	-0.333110	-167.271351	-84.171609	106.406623	-0.028683	0.097414	0.994831	0.873794	0.485781	-0.022375	-0.485449	0.868636	-0.099054	0	0	0
14150	0	0	0	0	0	9.773408	-0.196252	-0.855968	0.027255	-0.002081	-0.010610	-0.862305	0.289795	-0.237061	0.582713	-0.382205	-0.635165	-0.333061	-167.291019	-84.173340	106.439131	-0.028730	0.097369	0.994834	0.873685	0.485979	-0.022334	-0.485643	0.868530	-0.099032	0	0	0
14151	0	0	0	0	0	9.760960	-0.164422	-0.864707	0.025746	0.000188	-0.010965	-0.862061	0.291748	-0.229492	0.582763	-0.382104	-0.635204	-0.333016	-167.309466	-84.177141	106.471472	-0.028766	0.097290	0.994840	0.873567	0.486194	-0.022288	-0.485853	0.868418	-0.098975	0	0	0
14152	0	0	0	0	0	9.794329	-0.170811	-0.870074	0.025552	-0.007587	-0.010646	-0.855225	0.293213	-0.234375	0.582780	-0.382031	-0.635261	-0.332962	-167.337130	-84.175796	106.511036	-0.028840	0.097292	0.994838	0.873466	0.486377	-0.022245	-0.486031	0.868315	-0.099008	0	0	0
14153	0	0	0	0	0	9.793932	-0.143114	-0.911443	0.024042	-0.005318	-0.011002	-0.857178	0.295410	-0.224365	0.582807	-0.381950	-0.635310	-0.332914	-167.363222	-84.176352	106.549256	-0.028902	0.097264	0.994839	0.873363	0.486565	-0.022198	-0.486212	0.868214	-0.099009	0	0	0
14154	0	0	0	0	0	9.727126	-0.127558	-0.901917	0.020585	-0.007017	-0.016090	-0.864502	0.298828	-0.234131	0.582806	-0.381873	-0.635368	-0.332893	-167.422862	-84.176002	106.618101	-0.029020	0.097235	0.994838	0.873284	0.486710	-0.022096	-0.486346	0.868135	-0.099038	0	0	0
14155	0	0	0	0	0	9.772928	-0.164402	-0.899102	0.015871	-0.011081	-0.015169	-0.862793	0.295166	-0.232666	0.582789	-0.381817	-0.635426	-0.332876	-167.483109	-84.173676	106.685150	-0.029146	0.097239	0.994834	0.873226	0.486818	-0.022001	-0.486443	0.868074	-0.099101	0	0	0
14156	0	0	0	0	0	9.763664	-0.164186	-0.959330	0.004272	-0.012687	-0.013606	-0.869385	0.292480	-0.235107	0.582744	-0.381805	-0.635468	-0.332889	-167.545297	-84.169831	106.747163	-0.029270	0.097272	0.994827	0.873228	0.486820	-0.021908	-0.486433	0.868070	-0.099190	0	0	0
14157	0	0	0	0	0	9.758501	-0.250088	-0.987922	0.003418	-0.002605	-0.006567	-0.867188	0.288818	-0.239502	0.582747	-0.381792	-0.635467	-0.332899	-167.555745	-84.171363	106.757903	-0.029281	0.097241	0.994830	0.873225	0.486826	-0.021884	-0.486437	0.868070	-0.099168	0	0	0
14158	0	0	0	0	0	9.788359	-0.210997	-0.963504	-0.000025	-0.007407	-0.009983	-0.864990	0.285889	-0.231445	0.582716	-0.381795	-0.635480	-0.332925	-167.594111	-84.170020	106.793496	-0.029348	0.097245	0.994828	0.873248	0.486786	-0.021822	-0.486391	0.868091	-0.099205	0	0	0
14159	0	0	0	0	0	9.758466	-0.248545	-0.988648	-0.004115	0.002547	-0.005010	-0.858643	0.297607	-0.232178	0.582727	-0.381797	-0.635450	-0.332962	-167.594943	-84.174370	106.790823	-0.029322	0.097174	0.994835	0.873278	0.486735	-0.021805	-0.486340	0.868128	-0.099132	0	0	0
14160	0	0	0	0	0	9.746390	-0.243898	-0.956480	-0.006468	-0.000260	-0.004131	-0.862549	0.294678	-0.233887	0.582716	-0.381825	-0.635420	-0.333005	-167.596305	-84.176305	106.785507	-0.029303	0.097144	0.994839	0.873334	0.486634	-0.021795	-0.486239	0.868188	-0.099099	0	0	0
14161	0	0	0	0	0	9.767894	-0.259967	-0.908997	0.000624	0.001957	-0.003423	-0.859619	0.299805	-0.228027	0.582734	-0.381825	-0.635395	-0.333024	-167.584987	-84.179966	106.772595	-0.029263	0.097090	0.994845	0.873347	0.486610	-0.021801	-0.486218	0.868208	-0.099033	0	0	0
14162	0	0	0	0	0	9.798022	-0.234669	-0.863255	0.006836	0.006850	-0.005659	-0.867432	0.295654	-0.225586	0.582768	-0.381798	-0.635369	-0.333043	-167.578506	-84.186067	106.767059	-0.029223	0.096992	0.994856	0.873339	0.486626	-0.021789	-0.486236	0.868210	-0.098927	0	0	0
14163	0	0	0	0	0	9.743806	-0.250791	-0.843842	0.008350	0.004579	-0.005301	-0.865234	0.291992	-0.224121	0.582801	-0.381773	-0.635349	-0.333053	-167.570078	-84.191143	106.760146	-0.029186	0.096911	0.994865	0.873325	0.486650	-0.021785	-0.486262	0.868205	-0.098838	0	0	0
14164	0	0	0	0	0	9.777235	-0.257481	-0.848576	-0.002610	0.001826	-0.005489	-0.863281	0.290039	-0.237549	0.582802	-0.381782	-0.635322	-0.333092	-167.574145	-84.194412	106.759772	-0.029169	0.096857	0.994871	0.873363	0.486584	-0.021766	-0.486196	0.868248	-0.098784	0	0	0
14165	0	0	0	0	0	9.768254	-0.271559	-0.887382	-0.004947	-0.004083	-0.002938	-0.860840	0.296143	-0.234375	0.582789	-0.381811	-0.635303	-0.333117	-167.571629	-84.194574	106.752195	-0.029155	0.096858	0.994871	0.873406	0.486507	-0.021770	-0.486120	0.868291	-0.098780	0	0	0
14166	0	0	0	0	0	9.810405	-0.250331	-0.874542	0.001058	-0.003861	-0.006524	-0.864258	0.290527	-0.233398	0.582777	-0.381816	-0.635301	-0.333136	-167.586187	-84.194789	106.764479	-0.029175	0.096848	0.994872	0.873425	0.486473	-0.021744	-0.486084	0.868311	-0.098782	0	0	0
14167	0	0	0	0	0	9.722103	-0.218822	-0.912391	-0.013767	-0.007152	-0.006190	-0.868896	0.288818	-0.226807	0.582735	-0.381862	-0.635284	-0.333191	-167.609790	-84.193742	106.778605	-0.029204	0.096858	0.994870	0.873505	0.486331	-0.021707	-0.485938	0.868390	-0.098809	0	0	0
14168	0	0	0	0	0	9.801135	-0.250153	-0.934871	-0.012038	-0.006302	-0.003645	-0.866699	0.298096	-0.232910	0.582695	-0.381918	-0.635261	-0.333239	-167.618959	-84.192237	106.777931	-0.029210	0.096883	0.994867	0.873589	0.486181	-0.021697	-0.485787	0.868471	-0.098838	0	0	0
14169	0	0	0	0	0	9.758921	-0.270393	-0.948675	-0.012046	-0.004751	-0.004481	-0.864502	0.285400	-0.229004	0.582662	-0.381966	-0.635235	-0.333291	-167.629705	-84.192135	106.779236	-0.029213	0.096884	0.994867	0.873669	0.486038	-0.021678	-0.485643	0.868551	-0.098844	0	0	0
14170	0	0	0	0	0	9.771658	-0.314174	-0.919551	-0.004132	0.005648	-0.006681	-0.864014	0.292969	-0.232910	0.582671	-0.381970	-0.635197	-0.333345	-167.636626	-84.197690	106.780855	-0.029188	0.096791	0.994877	0.873713	0.485959	-0.021646	-0.485565	0.868605	-0.098752	0	0	0
14171	0	0	0	0	0	9.751063	-0.350741	-0.884793	0.005970	0.006427	-0.006930	-0.859863	0.289551	-0.227539	0.582706	-0.381936	-0.635174	-0.333367	-167.637372	-84.204255	106.782993	-0.029158	0.096681	0.994888	0.873701	0.485983	-0.021620	-0.485589	0.868604	-0.098641	0	0	0
14172	0	0	0	0	0	9.784366	-0.343725	-0.909271	0.017544	0.012691	-0.011001	-0.865723	0.285156	-0.225098	0.582771	-0.381851	-0.635159	-0.333379	-167.647215	-84.214282	106.800032	-0.029137	0.096506	0.994906	0.873639	0.486097	-0.021566	-0.485702	0.868560	-0.098474	0	0	0
14173	0	0	0	0	0	9.805588	-0.332515	-0.901446	0.033037	0.010184	-0.010576	-0.867920	0.291016	-0.230469	0.582860	-0.381725	-0.635175	-0.333336	-167.648386	-84.223227	106.817357	-0.029121	0.096348	0.994922	0.873500	0.486347	-0.021531	-0.485952	0.868437	-0.098323	0	0	0
14174	0	0	0	0	0	9.780853	-0.283396	-0.897651	0.040808	0.005051	-0.008270	-0.867432	0.297363	-0.224854	0.582949	-0.381594	-0.635217	-0.333251	-167.639098	-84.228643	106.828564	-0.029113	0.096253	0.994931	0.873326	0.486661	-0.021527	-0.486266	0.868272	-0.098228	0	0	0
14175	0	0	0	0	0	9.731855	-0.226108	-0.830042	0.036946	0.004510	-0.007747	-0.864502	0.292725	-0.233887	0.583032	-0.381476	-0.635250	-0.333177	-167.628495	-84.234006	106.836069	-0.029098	0.096160	0.994941	0.873172	0.486938	-0.021525	-0.486544	0.868127	-0.098133	0	0	0
14176	0	0	0	0	0	9.752776	-0.201758	-0.843425	0.027485	0.002583	-0.009249	-0.865723	0.295654	-0.230225	0.583087	-0.381385	-0.635278	-0.333133	-167.635279	-84.238160	106.855757	-0.029110	0.096081	0.994948	0.873061	0.487136	-0.021498	-0.486741	0.868025	-0.098065	0	0	0
14177	0	0	0	0	0	9.774490	-0.230925	-0.775480	0.025142	-0.001776	-0.007531	-0.860352	0.297852	-0.239014	0.583131	-0.381308	-0.635311	-0.333080	-167.637558	-84.240161	106.870273	-0.029125	0.096040	0.994951	0.872957	0.487324	-0.021486	-0.486927	0.867924	-0.098032	0	0	0
14178	0	0	0	0	0	9.786190	-0.207749	-0.848543	0.020412	-0.002740	-0.008282	-0.864990	0.297607	-0.237793	0.583157	-0.381249	-0.635341	-0.333045	-167.649525	-84.241218	106.891097	-0.029154	0.096012	0.994953	0.872882	0.487460	-0.021462	-0.487060	0.867851	-0.098018	0	0	0
14179	0	0	0	0	0	9.807502	-0.210047	-0.821349	0.012855	0.005511	-0.008407	-0.862793	0.295898	-0.233154	0.583204	-0.381187	-0.635336	-0.333043	-167.653962	-84.247631	106.901798	-0.029140	0.095900	0.994964	0.872827	0.487558	-0.021431	-0.487158	0.867808	-0.097911	0	0	0
14180	0	0	0	0	0	9.795251	-0.191591	-0.809050	0.013482	0.007462	-0.011830	-0.862549	0.293213	-0.238281	0.583243	-0.381120	-0.635332	-0.333060	-167.677266	-84.254832	106.930024	-0.029151	0.095766	0.994977	0.872785	0.487638	-0.021364	-0.487234	0.867778	-0.097798	0	0	0
14181	0	0	0	0	0	9.765320	-0.215655	-0.853438	0.015202	0.009864	-0.010123	-0.854492	0.295898	-0.235352	0.583304	-0.381040	-0.635321	-0.333066	-167.685239	-84.263806	106.945198	-0.029131	0.095609	0.994993	0.872722	0.487751	-0.021317	-0.487347	0.867731	-0.097649	0	0	0
14182	0	0	0	0	0	9.752635	-0.170340	-0.882185	0.012433	-0.000740	-0.012772	-0.863525	0.290771	-0.232422	0.583313	-0.380987	-0.635340	-0.333073	-167.724472	-84.266528	106.988829	-0.029190	0.095542	0.994997	0.872684	0.487823	-0.021240	-0.487412	0.867699	-0.097617	0	0	0
14183	0	0	0	0	0	9.777541	-0.217774	-0.884897	0.010275	0.002677	-0.011383	-0.870605	0.298340	-0.226074	0.583338	-0.380932	-0.635344	-0.333085	-167.751151	-84.271576	107.019691	-0.029215	0.095442	0.995006	0.872648	0.487890	-0.021176	-0.487475	0.867671	-0.097541	0	0	0
14184	0	0	0	0	0	9.798873	-0.219613	-0.857543	0.017150	0.003320	-0.013693	-0.861816	0.291748	-0.235840	0.583368	-0.380855	-0.635361	-0.333088	-167.788012	-84.276679	107.063654	-0.029263	0.095335	0.995015	0.872587	0.488004	-0.021095	-0.487582	0.867620	-0.097468	0	0	0
14185	0	0	0	0	0	9.744639	-0.235167	-0.838702	0.025577	-0.004505	-0.012290	-0.868652	0.294189	-0.240967	0.583395	-0.380769	-0.635411	-0.333045	-167.820042	-84.277625	107.107839	-0.029331	0.095297	0.995017	0.872483	0.488192	-0.021037	-0.487764	0.867518	-0.097464	0	0	0
14186	0	0	0	0	0	9.744205	-0.207479	-0.879888	0.027942	-0.003251	-0.012331	-0.858643	0.295654	-0.231445	0.583426	-0.380676	-0.635462	-0.332997	-167.851114	-84.278878	107.152198	-0.029399	0.095253	0.995019	0.872369	0.488397	-0.020979	-0.487963	0.867407	-0.097454	0	0	0
14187	0	0	0	0	0	9.777406	-0.200296	-0.905432	0.028790	0.000272	-0.012734	-0.859863	0.291016	-0.233398	0.583478	-0.380565	-0.635507	-0.332949	-167.877723	-84.282773	107.193853	-0.029448	0.095167	0.995026	0.872240	0.488630	-0.020920	-0.488190	0.867285	-0.097398	0	0	0
14188	0	0	0	0	0	9.765315	-0.195179	-0.873210	0.026642	0.002139	-0.010509	-0.858887	0.293945	-0.238037	0.583527	-0.380473	-0.635537	-0.332910	-167.892926	-84.286823	107.221516	-0.029473	0.095086	0.995033	0.872133	0.488822	-0.020879	-0.488380	0.867186	-0.097334	0	0	0
14189	0	0	0	0	0	9.795363	-0.169408	-0.827534	0.019969	0.006170	-0.006857	-0.861328	0.286377	-0.233398	0.583590	-0.380396	-0.635539	-0.332884	-167.884753	-84.293332	107.223197	-0.029442	0.094977	0.995044	0.872049	0.488974	-0.020869	-0.488533	0.867112	-0.097221	0	0	0
14190	0	0	0	0	0	9.753284	-0.189737	-0.840329	0.015898	0.000960	-0.007679	-0.862305	0.299561	-0.228516	0.583620	-0.380346	-0.635549	-0.332869	-167.891714	-84.296381	107.236389	-0.029449	0.094919	0.995049	0.871995	0.489070	-0.020846	-0.488628	0.867064	-0.097172	0	0	0
14191	0	0	0	0	0	9.804604	-0.166779	-0.767592	0.015218	0.008302	-0.009287	-0.863281	0.295166	-0.230469	0.583673	-0.380278	-0.635539	-0.332874	-167.897596	-84.304151	107.248384	-0.029428	0.094784	0.995063	0.871942	0.489167	-0.020808	-0.488724	0.867025	-0.097042	0	0	0
14192	0	0	0	0	0	9.750190	-0.169293	-0.768668	0.011156	0.001543	-0.009270	-0.862305	0.289063	-0.233643	0.583693	-0.380236	-0.635542	-0.332879	-167.915544	-84.307717	107.269888	-0.029446	0.094714	0.995069	0.871911	0.489224	-0.020765	-0.488778	0.867000	-0.096988	0	0	0
14193	0	0	0	0	0	9.804451	-0.151929	-0.787518	0.005795	-0.001367	-0.006598	-0.861328	0.291992	-0.232422	0.583702	-0.380219	-0.635540	-0.332887	-167.923535	-84.309790	107.278777	-0.029450	0.094675	0.995073	0.871903	0.489239	-0.020744	-0.488792	0.866996	-0.096955	0	0	0
14194	0	0	0	0	0	9.761880	-0.145472	-0.841914	-0.009908	-0.005085	-0.007543	-0.860107	0.293213	-0.232422	0.583664	-0.380255	-0.635525	-0.332942	-167.951842	-84.309435	107.298562	-0.029484	0.094671	0.995072	0.871976	0.489111	-0.020697	-0.488660	0.867068	-0.096972	0	0	0
14195	0	0	0	0	0	9.765481	-0.190364	-0.872407	-0.017630	-0.009252	-0.004828	-0.864014	0.291992	-0.231934	0.583607	-0.380325	-0.635503	-0.333004	-167.972568	-84.306901	107.306863	-0.029511	0.094709	0.995068	0.872082	0.488923	-0.020671	-0.488469	0.867170	-0.097022	0	0	0
14196	0	0	0	0	0	9.756508	-0.204303	-0.911720	-0.013786	-0.004073	-0.007863	-0.874512	0.288330	-0.231934	0.583564	-0.380369	-0.635479	-0.333073	-168.003670	-84.307150	107.327223	-0.029543	0.094694	0.995068	0.872173	0.488762	-0.020618	-0.488304	0.867263	-0.097029	0	0	0
14197	0	0	0	0	0	9.760136	-0.249186	-0.941965	-0.012049	-0.004764	-0.004481	-0.862061	0.292236	-0.229736	0.583532	-0.380417	-0.635453	-0.333126	-168.014757	-84.307052	107.328898	-0.029547	0.094695	0.995068	0.872254	0.488620	-0.020599	-0.488161	0.867343	-0.097035	0	0	0
14198	0	0	0	0	0	9.760552	-0.275357	-0.901658	0.001089	-0.006974	-0.004836	-0.864746	0.290039	-0.232422	0.583513	-0.380433	-0.635456	-0.333134	-168.023781	-84.305314	107.335636	-0.029567	0.094720	0.995065	0.872273	0.488585	-0.020590	-0.488124	0.867359	-0.097068	0	0	0
14199	0	0	0	0	0	9.781583	-0.264421	-0.895483	0.008166	-0.001656	-0.005804	-0.862061	0.298828	-0.233154	0.583527	-0.380412	-0.635457	-0.333132	-168.026534	-84.307109	107.340533	-0.029565	0.094688	0.995068	0.872255	0.488619	-0.020579	-0.488157	0.867344	-0.097038	0	0	0
14200	0	0	0	0	0	9.748641	-0.283544	-0.849654	0.012900	-0.000692	-0.005051	-0.856934	0.297119	-0.232910	0.583550	-0.380382	-0.635462	-0.333116	-168.022508	-84.308917	107.340957	-0.029557	0.094658	0.995071	0.872217	0.488687	-0.020579	-0.488226	0.867309	-0.097006	0	0	0
14201	0	0	0	0	0	9.790770	-0.262203	-0.836383	0.015254	0.002112	-0.005933	-0.865723	0.289063	-0.233154	0.583590	-0.380334	-0.635464	-0.333097	-168.016091	-84.312872	107.340880	-0.029536	0.094592	0.995078	0.872162	0.488784	-0.020576	-0.488325	0.867261	-0.096936	0	0	0
14202	0	0	0	0	0	9.774083	-0.158788	-0.856031	0.016337	0.004120	-0.001643	-0.858154	0.292236	-0.235596	0.583641	-0.380297	-0.635454	-0.333069	-167.985142	-84.316971	107.316227	-0.029474	0.094537	0.995085	0.872108	0.488879	-0.020614	-0.488425	0.867214	-0.096856	0	0	0
14203	0	0	0	0	0	9.774353	-0.171781	-0.835222	0.010511	0.002694	-0.007524	-0.859619	0.289063	-0.232910	0.583673	-0.380253	-0.635451	-0.333070	-167.990884	-84.321555	107.326164	-0.029467	0.094456	0.995093	0.872072	0.488945	-0.020587	-0.488490	0.867186	-0.096780	0	0	0
14204	0	0	0	0	0	9.786502	-0.175492	-0.867133	0.005151	-0.000217	-0.004851	-0.865479	0.282715	-0.234375	0.583684	-0.380245	-0.635442	-0.333078	-167.989590	-84.323606	107.324872	-0.029454	0.094422	0.995096	0.872072	0.488945	-0.020582	-0.488491	0.867189	-0.096745	0	0	0
14205	0	0	0	0	0	9.765434	-0.185655	-0.873950	0.005180	-0.004861	-0.002334	-0.867188	0.292725	-0.233643	0.583690	-0.380245	-0.635442	-0.333067	-167.978978	-84.323347	107.315337	-0.029440	0.094432	0.995096	0.872063	0.488961	-0.020601	-0.488508	0.867179	-0.096745	0	0	0
14206	0	0	0	0	0	9.765411	-0.185390	-0.874264	0.005161	-0.001765	-0.004012	-0.865234	0.289307	-0.235107	0.583697	-0.380242	-0.635436	-0.333070	-167.974802	-84.324430	107.311154	-0.029427	0.094416	0.995098	0.872063	0.488961	-0.020604	-0.488509	0.867181	-0.096725	0	0	0
14207	0	0	0	0	0	9.765631	-0.198209	-0.854111	0.002580	-0.004602	-0.006986	-0.870361	0.293701	-0.230225	0.583691	-0.380236	-0.635439	-0.333081	-167.991029	-84.324824	107.326898	-0.029451	0.094401	0.995099	0.872066	0.488955	-0.020575	-0.488500	0.867186	-0.096724	0	0	0
14208	0	0	0	0	0	9.777967	-0.215305	-0.866112	0.006680	-0.004035	-0.003648	-0.861572	0.293945	-0.231445	0.583694	-0.380234	-0.635441	-0.333074	-167.986655	-84.324592	107.323391	-0.029447	0.094407	0.995098	0.872059	0.488967	-0.020583	-0.488514	0.867178	-0.096727	0	0	0
14209	0	0	0	0	0	9.769029	-0.229721	-0.904938	0.007524	-0.000509	-0.004055	-0.863281	0.293945	-0.232666	0.583712	-0.380222	-0.635433	-0.333072	-167.978298	-84.326751	107.316433	-0.029424	0.094375	0.995102	0.872047	0.488989	-0.020590	-0.488537	0.867170	-0.096687	0	0	0
14210	0	0	0	0	0	9.778201	-0.228083	-0.845851	0.014631	0.000164	-0.002507	-0.860107	0.292969	-0.239990	0.583745	-0.380193	-0.635434	-0.333044	-167.957880	-84.328736	107.301381	-0.029389	0.094349	0.995105	0.872001	0.489069	-0.020617	-0.488621	0.867127	-0.096646	0	0	0
14211	0	0	0	0	0	9.762159	-0.164638	-0.804584	0.005162	-0.001766	-0.004012	-0.855713	0.291992	-0.232666	0.583760	-0.380182	-0.635428	-0.333042	-167.951708	-84.330447	107.296491	-0.029372	0.094324	0.995108	0.871990	0.489089	-0.020621	-0.488642	0.867119	-0.096615	0	0	0
14212	0	0	0	0	0	9.786154	-0.159599	-0.889305	-0.003226	-0.001686	-0.001228	-0.867432	0.287598	-0.235596	0.583756	-0.380213	-0.635402	-0.333064	-167.936514	-84.331241	107.276408	-0.029335	0.094321	0.995110	0.872032	0.489014	-0.020644	-0.488569	0.867162	-0.096596	0	0	0
14213	0	0	0	0	0	9.753213	-0.178934	-0.843525	-0.005598	-0.001395	-0.002023	-0.858887	0.292969	-0.227539	0.583753	-0.380240	-0.635373	-0.333092	-167.925480	-84.332867	107.260157	-0.029300	0.094302	0.995112	0.872076	0.488934	-0.020657	-0.488492	0.867209	-0.096564	0	0	0
14214	0	0	0	0	0	9.765777	-0.209582	-0.835211	-0.004268	-0.009889	-0.002158	-0.860107	0.295166	-0.239014	0.583719	-0.380285	-0.635372	-0.333104	-167.926037	-84.329177	107.255302	-0.029311	0.094366	0.995106	0.872123	0.488850	-0.020669	-0.488408	0.867249	-0.096627	0	0	0
14215	0	0	0	0	0	9.756767	-0.224136	-0.874780	-0.003404	-0.009459	-0.000887	-0.860352	0.286865	-0.237793	0.583696	-0.380325	-0.635367	-0.333108	-167.916346	-84.326081	107.241349	-0.029304	0.094424	0.995101	0.872160	0.488783	-0.020697	-0.488343	0.867280	-0.096676	0	0	0
14216	0	0	0	0	0	9.793310	-0.249992	-0.951109	-0.001072	-0.003559	-0.003449	-0.859863	0.285400	-0.236084	0.583686	-0.380346	-0.635354	-0.333126	-167.914718	-84.326092	107.236138	-0.029295	0.094427	0.995101	0.872190	0.488729	-0.020699	-0.488289	0.867311	-0.096675	0	0	0
14217	0	0	0	0	0	9.769048	-0.241281	-0.887394	0.006045	-0.004432	-0.001063	-0.861328	0.293457	-0.241211	0.583701	-0.380342	-0.635354	-0.333105	-167.895658	-84.326080	107.219361	-0.029268	0.094435	0.995101	0.872171	0.488762	-0.020732	-0.488325	0.867291	-0.096669	0	0	0
14218	0	0	0	0	0	9.765821	-0.222382	-0.817277	0.006930	-0.007098	0.001887	-0.858398	0.294922	-0.228516	0.583704	-0.380362	-0.635355	-0.333075	-167.863651	-84.323465	107.188228	-0.029230	0.094495	0.995096	0.872164	0.488772	-0.020795	-0.488340	0.867279	-0.096702	0	0	0
14219	0	0	0	0	0	9.790501	-0.257636	-0.840939	0.008408	-0.003176	-0.001106	-0.860107	0.288818	-0.240479	0.583724	-0.380354	-0.635352	-0.333053	-167.840796	-84.323982	107.168180	-0.029194	0.094496	0.995097	0.872140	0.488813	-0.020832	-0.488384	0.867256	-0.096684	0	0	0
14220	0	0	0	0	0	9.777873	-0.226732	-0.850006	0.009262	-0.001198	-0.000675	-0.860840	0.298584	-0.235107	0.583746	-0.380350	-0.635345	-0.333034	-167.814746	-84.324980	107.144376	-0.029150	0.094492	0.995099	0.872121	0.488845	-0.020872	-0.488421	0.867238	-0.096658	0	0	0
14221	0	0	0	0	0	9.778117	-0.240034	-0.829624	0.001509	-0.000721	-0.000475	-0.863525	0.291748	-0.227783	0.583764	-0.380357	-0.635324	-0.333034	-167.789291	-84.326922	107.118354	-0.029097	0.094473	0.995102	0.872126	0.488835	-0.020908	-0.488416	0.867246	-0.096616	0	0	0
14222	0	0	0	0	0	9.732081	-0.201980	-0.833609	0.004527	-0.002164	-0.001426	-0.856445	0.295654	-0.229736	0.583773	-0.380365	-0.635313	-0.333030	-167.771346	-84.327468	107.099971	-0.029064	0.094473	0.995103	0.872130	0.488827	-0.020936	-0.488411	0.867250	-0.096600	0	0	0
14223	0	0	0	0	0	9.765728	-0.222164	-0.818447	-0.001072	-0.003559	-0.003448	-0.860840	0.292236	-0.238770	0.583765	-0.380386	-0.635298	-0.333050	-167.767931	-84.327786	107.092729	-0.029050	0.094472	0.995104	0.872162	0.488768	-0.020941	-0.488353	0.867284	-0.096593	0	0	0
14224	0	0	0	0	0	9.756513	-0.223313	-0.877818	0.003663	-0.002594	-0.002697	-0.867188	0.307861	-0.232178	0.583768	-0.380394	-0.635289	-0.333052	-167.758168	-84.328245	107.082070	-0.029030	0.094469	0.995104	0.872170	0.488754	-0.020956	-0.488341	0.867292	-0.096582	0	0	0
14225	0	0	0	0	0	9.786725	-0.211128	-0.812690	-0.005786	-0.007621	-0.002520	-0.865723	0.293213	-0.237793	0.583744	-0.380433	-0.635277	-0.333071	-167.756191	-84.326378	107.074564	-0.029027	0.094504	0.995101	0.872217	0.488669	-0.020966	-0.488256	0.867336	-0.096613	0	0	0
14226	0	0	0	0	0	9.810634	-0.206017	-0.897877	-0.003434	-0.004817	-0.003404	-0.860840	0.291504	-0.230225	0.583726	-0.380463	-0.635264	-0.333094	-167.757197	-84.325679	107.070640	-0.029024	0.094518	0.995100	0.872259	0.488594	-0.020967	-0.488181	0.867377	-0.096625	0	0	0
14227	0	0	0	0	0	9.755830	-0.195813	-0.920791	-0.008980	-0.013953	-0.001227	-0.856934	0.297363	-0.238037	0.583678	-0.380524	-0.635265	-0.333107	-167.758745	-84.320140	107.064949	-0.029043	0.094613	0.995090	0.872322	0.488482	-0.020984	-0.488069	0.867430	-0.096720	0	0	0
14228	0	0	0	0	0	9.790174	-0.255872	-0.845278	-0.011362	-0.012115	-0.002861	-0.858643	0.286621	-0.236816	0.583622	-0.380591	-0.635259	-0.333140	-167.770150	-84.315288	107.066911	-0.029071	0.094692	0.995082	0.872403	0.488337	-0.020983	-0.487923	0.867502	-0.096806	0	0	0
14229	0	0	0	0	0	9.751641	-0.322123	-0.889289	-0.001247	-0.011334	-0.003107	-0.858398	0.298584	-0.234375	0.583598	-0.380614	-0.635270	-0.333135	-167.774212	-84.311644	107.069122	-0.029093	0.094752	0.995076	0.872419	0.488308	-0.020990	-0.487892	0.867512	-0.096870	0	0	0
14230	0	0	0	0	0	9.806049	-0.318595	-0.888462	0.014652	-0.002930	-0.000835	-0.860596	0.287598	-0.236816	0.583624	-0.380596	-0.635277	-0.333096	-167.748125	-84.311689	107.048385	-0.029059	0.094761	0.995076	0.872373	0.488387	-0.021034	-0.487976	0.867466	-0.096859	0	0	0
14231	0	0	0	0	0	9.802361	-0.273123	-0.858956	0.017890	-0.002792	0.001231	-0.866211	0.289063	-0.233398	0.583669	-0.380566	-0.635285	-0.333036	-167.706426	-84.312197	107.015159	-0.029001	0.094770	0.995077	0.872301	0.488513	-0.021102	-0.488108	0.867395	-0.096835	0	0	0
14232	0	0	0	0	0	9.798407	-0.214439	-0.849890	0.021762	-0.002257	0.000710	-0.860840	0.286621	-0.244141	0.583713	-0.380531	-0.635299	-0.332972	-167.666750	-84.312427	106.984859	-0.028950	0.094781	0.995077	0.872222	0.488652	-0.021168	-0.488253	0.867315	-0.096817	0	0	0
14233	0	0	0	0	0	9.798393	-0.214833	-0.849956	0.025854	-0.000141	0.003207	-0.865479	0.298584	-0.236328	0.583787	-0.380473	-0.635312	-0.332883	-167.607059	-84.314340	106.938931	-0.028864	0.094773	0.995080	0.872105	0.488857	-0.021262	-0.488468	0.867200	-0.096762	0	0	0
14234	0	0	0	0	0	9.739714	-0.146540	-0.862789	0.023505	-0.002947	0.004094	-0.867920	0.297119	-0.242920	0.583839	-0.380445	-0.635324	-0.332802	-167.548213	-84.313762	106.890371	-0.028787	0.094807	0.995079	0.872017	0.489009	-0.021364	-0.488628	0.867111	-0.096750	0	0	0
14235	0	0	0	0	0	9.769429	-0.108424	-0.838508	0.007788	-0.005122	0.002320	-0.864502	0.293945	-0.246826	0.583860	-0.380450	-0.635321	-0.332765	-167.508627	-84.312882	106.853803	-0.028731	0.094840	0.995078	0.871992	0.489051	-0.021434	-0.488677	0.867084	-0.096750	0	0	0
14236	0	0	0	0	0	9.739331	-0.133987	-0.884420	0.002221	-0.011162	0.002822	-0.862305	0.294678	-0.227295	0.583843	-0.380493	-0.635324	-0.332739	-167.479384	-84.307860	106.822737	-0.028705	0.094939	0.995069	0.872008	0.489019	-0.021502	-0.488649	0.867091	-0.096824	0	0	0
14237	0	0	0	0	0	9.785804	-0.198801	-0.840698	-0.000153	-0.010871	0.002027	-0.864502	0.291504	-0.229980	0.583829	-0.380531	-0.635325	-0.332719	-167.453723	-84.303744	106.795296	-0.028680	0.095021	0.995062	0.872024	0.488988	-0.021561	-0.488622	0.867100	-0.096885	0	0	0
14238	0	0	0	0	0	9.777315	-0.240376	-0.838920	0.000876	-0.001117	0.002111	-0.864258	0.283691	-0.236572	0.583840	-0.380560	-0.635298	-0.332719	-167.416772	-84.304424	106.755709	-0.028611	0.095029	0.995063	0.872047	0.488945	-0.021621	-0.488586	0.867123	-0.096859	0	0	0
14239	0	0	0	0	0	9.780401	-0.259534	-0.909718	-0.000853	-0.001979	-0.000430	-0.862549	0.289063	-0.233398	0.583846	-0.380580	-0.635276	-0.332727	-167.395491	-84.305490	106.731782	-0.028566	0.095024	0.995065	0.872069	0.488903	-0.021653	-0.488548	0.867147	-0.096833	0	0	0
14240	0	0	0	0	0	9.777019	-0.227254	-0.859635	0.003238	0.000139	0.002065	-0.859863	0.288574	-0.232666	0.583865	-0.380599	-0.635249	-0.332722	-167.355844	-84.306875	106.690845	-0.028491	0.095021	0.995067	0.872080	0.488881	-0.021714	-0.488533	0.867160	-0.096795	0	0	0
14241	0	0	0	0	0	9.789377	-0.244998	-0.871092	0.012480	0.002033	-0.000293	-0.859863	0.289551	-0.234375	0.583910	-0.380574	-0.635237	-0.332695	-167.320682	-84.310158	106.660616	-0.028425	0.094981	0.995073	0.872038	0.488954	-0.021761	-0.488612	0.867123	-0.096726	0	0	0
14242	0	0	0	0	0	9.776767	-0.214165	-0.879829	0.015500	0.000589	-0.001244	-0.857178	0.291992	-0.230713	0.583949	-0.380546	-0.635236	-0.332662	-167.291956	-84.312206	106.637715	-0.028376	0.094959	0.995077	0.871988	0.489041	-0.021802	-0.488704	0.867077	-0.096680	0	0	0
14243	0	0	0	0	0	9.785474	-0.186072	-0.861735	0.014647	-0.001391	-0.001673	-0.858398	0.288574	-0.238037	0.583984	-0.380518	-0.635239	-0.332626	-167.267122	-84.313714	106.618959	-0.028338	0.094943	0.995079	0.871936	0.489132	-0.021838	-0.488799	0.867027	-0.096645	0	0	0
14244	0	0	0	0	0	9.730462	-0.162685	-0.904229	-0.000231	-0.000036	-0.003857	-0.854980	0.296387	-0.235840	0.583986	-0.380529	-0.635218	-0.332649	-167.262839	-84.315741	106.611565	-0.028316	0.094913	0.995083	0.871963	0.489085	-0.021838	-0.488753	0.867057	-0.096609	0	0	0
14245	0	0	0	0	0	9.764393	-0.195986	-0.868650	-0.009671	-0.006609	-0.002832	-0.856445	0.293701	-0.233154	0.583960	-0.380571	-0.635201	-0.332680	-167.264493	-84.314660	106.606290	-0.028312	0.094933	0.995081	0.872022	0.488979	-0.021839	-0.488647	0.867114	-0.096628	0	0	0
14246	0	0	0	0	0	9.752230	-0.191478	-0.837621	-0.011988	-0.014057	0.000578	-0.861816	0.295898	-0.225586	0.583903	-0.380653	-0.635193	-0.332701	-167.259852	-84.308291	106.591768	-0.028320	0.095046	0.995070	0.872107	0.488826	-0.021871	-0.488495	0.867188	-0.096734	0	0	0
14247	0	0	0	0	0	9.777105	-0.239745	-0.841543	-0.009002	-0.010859	-0.002895	-0.858398	0.292480	-0.237305	0.583858	-0.380711	-0.635185	-0.332729	-167.267029	-84.304474	106.590695	-0.028337	0.095110	0.995063	0.872178	0.488700	-0.021874	-0.488368	0.867252	-0.096801	0	0	0
14248	0	0	0	0	0	9.801447	-0.261402	-0.886134	-0.001038	-0.008207	-0.000923	-0.853516	0.286377	-0.235840	0.583838	-0.380748	-0.635181	-0.332731	-167.257133	-84.301565	106.577196	-0.028329	0.095166	0.995058	0.872209	0.488643	-0.021902	-0.488313	0.867278	-0.096847	0	0	0
14249	0	0	0	0	0	9.776683	-0.226052	-0.863761	0.001969	-0.008103	-0.002715	-0.861084	0.288086	-0.238281	0.583830	-0.380757	-0.635187	-0.332721	-167.253840	-84.299673	106.573818	-0.028333	0.095199	0.995055	0.872210	0.488641	-0.021914	-0.488311	0.867276	-0.096878	0	0	0
14250	0	0	0	0	0	9.768520	-0.280528	-0.841165	0.007732	0.002617	-0.001885	-0.865479	0.300537	-0.230713	0.583859	-0.380747	-0.635168	-0.332718	-167.230599	-84.302933	106.551956	-0.028280	0.095155	0.995061	0.872198	0.488661	-0.021941	-0.488335	0.867269	-0.096814	0	0	0
14251	0	0	0	0	0	9.789609	-0.269973	-0.834317	0.012469	0.003582	-0.001137	-0.863770	0.295898	-0.229980	0.583908	-0.380717	-0.635153	-0.332697	-167.197414	-84.307179	106.523730	-0.028212	0.095099	0.995068	0.872155	0.488735	-0.021981	-0.488415	0.867234	-0.096729	0	0	0
14252	0	0	0	0	0	9.801730	-0.274156	-0.865798	0.008563	0.007691	-0.003138	-0.863281	0.290527	-0.236328	0.583953	-0.380692	-0.635123	-0.332704	-167.174181	-84.313432	106.502355	-0.028146	0.095005	0.995079	0.872139	0.488764	-0.021996	-0.488448	0.867228	-0.096614	0	0	0
14253	0	0	0	0	0	9.734683	-0.246440	-0.875652	0.006868	0.002185	-0.003155	-0.860840	0.291992	-0.230957	0.583982	-0.380676	-0.635105	-0.332705	-167.157475	-84.317096	106.487196	-0.028103	0.094951	0.995085	0.872125	0.488787	-0.022010	-0.488475	0.867220	-0.096546	0	0	0
14254	0	0	0	0	0	9.743943	-0.244538	-0.816819	0.006475	-0.007175	-0.005821	-0.860596	0.288818	-0.238037	0.583971	-0.380673	-0.635120	-0.332698	-167.169469	-84.315385	106.500020	-0.028132	0.094974	0.995082	0.872118	0.488800	-0.021996	-0.488486	0.867211	-0.096579	0	0	0
14255	0	0	0	0	0	9.768314	-0.266025	-0.861148	-0.001914	-0.007090	-0.003032	-0.863770	0.290771	-0.239258	0.583956	-0.380695	-0.635117	-0.332707	-167.169154	-84.313955	106.496738	-0.028134	0.094999	0.995080	0.872144	0.488755	-0.022002	-0.488440	0.867234	-0.096603	0	0	0
14256	0	0	0	0	0	9.734844	-0.258505	-0.856901	0.001751	-0.009688	-0.005728	-0.852295	0.293213	-0.234131	0.583928	-0.380710	-0.635131	-0.332711	-167.186529	-84.310827	106.512250	-0.028175	0.095043	0.995074	0.872160	0.488727	-0.021985	-0.488409	0.867245	-0.096663	0	0	0
14257	0	0	0	0	0	9.801891	-0.285382	-0.847420	0.001739	-0.008141	-0.006569	-0.860352	0.299072	-0.231201	0.583913	-0.380710	-0.635144	-0.332714	-167.204761	-84.309357	106.530171	-0.028212	0.095059	0.995072	0.872163	0.488723	-0.021960	-0.488402	0.867245	-0.096695	0	0	0
14258	0	0	0	0	0	9.756081	-0.259985	-0.831585	0.006257	-0.008760	-0.008837	-0.856934	0.290771	-0.233154	0.583891	-0.380701	-0.635169	-0.332714	-167.235765	-84.307141	106.561975	-0.028276	0.095080	0.995068	0.872156	0.488737	-0.021916	-0.488410	0.867235	-0.096744	0	0	0
14259	0	0	0	0	0	9.768381	-0.276786	-0.844016	0.014014	-0.009240	-0.009040	-0.866699	0.290283	-0.234619	0.583887	-0.380665	-0.635207	-0.332688	-167.261951	-84.305137	106.593878	-0.028339	0.095098	0.995064	0.872107	0.488825	-0.021880	-0.488493	0.867183	-0.096788	0	0	0
14260	0	0	0	0	0	9.789393	-0.265513	-0.838282	0.020250	-0.007449	-0.009609	-0.866699	0.293457	-0.237793	0.583896	-0.380610	-0.635253	-0.332648	-167.287565	-84.303748	106.628322	-0.028403	0.095104	0.995062	0.872032	0.488961	-0.021842	-0.488624	0.867105	-0.096822	0	0	0
14261	0	0	0	0	0	9.807360	-0.235099	-0.761846	0.028010	-0.007930	-0.009812	-0.856934	0.285889	-0.229004	0.583924	-0.380524	-0.635315	-0.332580	-167.309154	-84.302732	106.664446	-0.028468	0.095103	0.995060	0.871908	0.489184	-0.021809	-0.488842	0.866980	-0.096847	0	0	0
14262	0	0	0	0	0	9.742696	-0.199188	-0.883937	0.010033	0.004150	-0.016089	-0.863037	0.293457	-0.237061	0.583939	-0.380459	-0.635322	-0.332613	-167.362330	-84.308638	106.720707	-0.028532	0.094977	0.995071	0.871880	0.489238	-0.021697	-0.488887	0.866964	-0.096767	0	0	0
14263	0	0	0	0	0	9.788527	-0.222572	-0.900202	0.019535	0.002987	-0.012911	-0.858643	0.290527	-0.235107	0.583979	-0.380373	-0.635343	-0.332603	-167.392491	-84.314031	106.760149	-0.028570	0.094867	0.995080	0.871800	0.489384	-0.021625	-0.489027	0.866893	-0.096687	0	0	0
14264	0	0	0	0	0	9.743415	-0.223214	-0.842328	0.027077	0.000919	-0.016127	-0.855469	0.289063	-0.233154	0.584016	-0.380263	-0.635388	-0.332577	-167.440355	-84.318127	106.820884	-0.028650	0.094769	0.995087	0.871690	0.489585	-0.021529	-0.489220	0.866790	-0.096636	0	0	0
14265	0	0	0	0	0	9.777145	-0.242189	-0.827160	0.028422	-0.007583	-0.016246	-0.861328	0.293945	-0.234619	0.584035	-0.380156	-0.635461	-0.332527	-167.497223	-84.318069	106.892525	-0.028769	0.094734	0.995087	0.871563	0.489815	-0.021433	-0.489439	0.866664	-0.096658	0	0	0
14266	0	0	0	0	0	9.768153	-0.255743	-0.866073	0.028605	-0.001357	-0.015758	-0.862793	0.286133	-0.230713	0.584068	-0.380047	-0.635514	-0.332490	-167.545078	-84.320836	106.954130	-0.028857	0.094657	0.995092	0.871445	0.490029	-0.021342	-0.489644	0.866552	-0.096629	0	0	0
14267	0	0	0	0	0	9.788911	-0.230746	-0.880169	0.025599	-0.001461	-0.013965	-0.864502	0.287354	-0.237549	0.584103	-0.379948	-0.635559	-0.332456	-167.583466	-84.323804	107.005092	-0.028926	0.094582	0.995097	0.871337	0.490224	-0.021267	-0.489832	0.866449	-0.096593	0	0	0
14268	0	0	0	0	0	9.780233	-0.257870	-0.898489	0.012493	-0.005436	-0.010237	-0.863281	0.298340	-0.235107	0.584102	-0.379911	-0.635588	-0.332447	-167.614606	-84.323601	107.040621	-0.028985	0.094567	0.995096	0.871299	0.490294	-0.021215	-0.489896	0.866412	-0.096608	0	0	0
14269	0	0	0	0	0	9.780219	-0.257071	-0.898868	0.014210	-0.003023	-0.008541	-0.866455	0.294922	-0.230957	0.584121	-0.379862	-0.635609	-0.332428	-167.630447	-84.325134	107.062912	-0.029014	0.094531	0.995099	0.871244	0.490394	-0.021182	-0.489993	0.866359	-0.096588	0	0	0
14270	0	0	0	0	0	9.768153	-0.252193	-0.867113	0.023715	-0.004183	-0.005361	-0.859619	0.296143	-0.227783	0.584154	-0.379805	-0.635643	-0.332371	-167.626156	-84.325031	107.069298	-0.029026	0.094529	0.995099	0.871152	0.490556	-0.021190	-0.490154	0.866268	-0.096588	0	0	0
14271	0	0	0	0	0	9.764131	-0.192840	-0.858164	0.011393	0.001558	-0.005422	-0.863525	0.292969	-0.224365	0.584182	-0.379776	-0.635637	-0.332367	-167.620177	-84.328412	107.066477	-0.029004	0.094474	0.995105	0.871125	0.490604	-0.021188	-0.490204	0.866246	-0.096528	0	0	0
14272	0	0	0	0	0	9.785515	-0.195073	-0.831064	0.009030	0.000300	-0.005374	-0.868652	0.296387	-0.240479	0.584200	-0.379755	-0.635633	-0.332365	-167.618829	-84.330820	107.067365	-0.028993	0.094434	0.995109	0.871105	0.490639	-0.021181	-0.490239	0.866231	-0.096487	0	0	0
14273	0	0	0	0	0	9.798224	-0.225626	-0.821999	0.013136	0.000878	-0.002041	-0.870361	0.290527	-0.226807	0.584237	-0.379729	-0.635627	-0.332342	-167.593825	-84.333528	107.047020	-0.028946	0.094399	0.995114	0.871065	0.490709	-0.021213	-0.490313	0.866195	-0.096432	0	0	0
14274	0	0	0	0	0	9.752108	-0.187671	-0.825951	0.016174	-0.002116	-0.002145	-0.860596	0.284180	-0.236572	0.584267	-0.379701	-0.635636	-0.332304	-167.573160	-84.334186	107.032609	-0.028918	0.094396	0.995115	0.871012	0.490802	-0.021245	-0.490410	0.866142	-0.096413	0	0	0
14275	0	0	0	0	0	9.781798	-0.148804	-0.801750	0.012946	-0.003807	-0.003365	-0.867432	0.292480	-0.234375	0.584287	-0.379678	-0.635647	-0.332276	-167.562672	-84.334486	107.026945	-0.028908	0.094394	0.995115	0.870971	0.490875	-0.021262	-0.490484	0.866101	-0.096404	0	0	0
14276	0	0	0	0	0	9.776161	-0.196028	-0.890724	0.008207	-0.004775	-0.004112	-0.853516	0.286133	-0.232422	0.584290	-0.379671	-0.635654	-0.332263	-167.560969	-84.333899	107.027002	-0.028911	0.094403	0.995114	0.870956	0.490901	-0.021267	-0.490510	0.866085	-0.096413	0	0	0
14277	0	0	0	0	0	9.755404	-0.219488	-0.877188	0.013608	-0.006512	-0.004264	-0.857666	0.288574	-0.236084	0.584302	-0.379646	-0.635676	-0.332229	-167.557831	-84.332881	107.029489	-0.028920	0.094419	0.995112	0.870908	0.490986	-0.021276	-0.490595	0.866036	-0.096429	0	0	0
14278	0	0	0	0	0	9.785105	-0.180362	-0.852910	0.007506	0.002567	-0.005744	-0.860596	0.281738	-0.232666	0.584325	-0.379624	-0.635664	-0.332238	-167.556595	-84.336603	107.029612	-0.028901	0.094357	0.995119	0.870896	0.491008	-0.021264	-0.490618	0.866030	-0.096366	0	0	0
14279	0	0	0	0	0	9.721679	-0.198296	-0.892636	-0.001109	0.001067	-0.005968	-0.860840	0.299805	-0.231201	0.584332	-0.379620	-0.635644	-0.332268	-167.562584	-84.340131	107.033222	-0.028889	0.094297	0.995125	0.870915	0.490974	-0.021241	-0.490583	0.866056	-0.096308	0	0	0
14280	0	0	0	0	0	9.776146	-0.194126	-0.891306	0.001064	-0.002361	-0.007340	-0.857422	0.290039	-0.235352	0.584324	-0.379620	-0.635638	-0.332292	-167.580198	-84.341293	107.048578	-0.028909	0.094270	0.995127	0.870935	0.490941	-0.021207	-0.490548	0.866077	-0.096295	0	0	0
14281	0	0	0	0	0	9.754765	-0.190898	-0.918543	0.000430	-0.002750	-0.004754	-0.863770	0.293945	-0.239502	0.584322	-0.379627	-0.635627	-0.332309	-167.581725	-84.342375	107.047883	-0.028902	0.094252	0.995129	0.870954	0.490908	-0.021200	-0.490515	0.866098	-0.096277	0	0	0
14282	0	0	0	0	0	9.772733	-0.160465	-0.841768	-0.001947	-0.002461	-0.005549	-0.856201	0.297852	-0.227783	0.584311	-0.379642	-0.635614	-0.332337	-167.591077	-84.343261	107.053203	-0.028906	0.094235	0.995130	0.870988	0.490848	-0.021181	-0.490453	0.866134	-0.096266	0	0	0
14283	0	0	0	0	0	9.755433	-0.216199	-0.877672	0.001240	0.003869	-0.006860	-0.868652	0.289063	-0.233643	0.584328	-0.379629	-0.635588	-0.332370	-167.595727	-84.348308	107.056129	-0.028885	0.094149	0.995139	0.871002	0.490824	-0.021154	-0.490429	0.866157	-0.096182	0	0	0
14284	0	0	0	0	0	9.786159	-0.216545	-0.791389	0.007520	0.001021	-0.004900	-0.859375	0.293213	-0.234131	0.584347	-0.379612	-0.635580	-0.332373	-167.591657	-84.351062	107.053413	-0.028867	0.094105	0.995144	0.870990	0.490845	-0.021151	-0.490452	0.866150	-0.096134	0	0	0
14285	0	0	0	0	0	9.822660	-0.242440	-0.866964	0.008168	-0.000137	-0.006642	-0.863037	0.288330	-0.228271	0.584365	-0.379585	-0.635578	-0.332376	-167.597101	-84.353878	107.061292	-0.028865	0.094054	0.995149	0.870969	0.490883	-0.021131	-0.490489	0.866134	-0.096088	0	0	0
14286	0	0	0	0	0	9.776868	-0.217250	-0.850366	0.002780	0.000053	-0.005646	-0.856934	0.294678	-0.233154	0.584371	-0.379581	-0.635565	-0.332394	-167.601178	-84.356181	107.064033	-0.028858	0.094015	0.995152	0.870980	0.490864	-0.021116	-0.490470	0.866149	-0.096050	0	0	0
14287	0	0	0	0	0	9.785849	-0.201842	-0.812024	-0.001068	-0.003573	-0.003436	-0.855713	0.298828	-0.240234	0.584364	-0.379601	-0.635551	-0.332412	-167.597850	-84.356561	107.057205	-0.028845	0.094012	0.995153	0.871010	0.490811	-0.021120	-0.490417	0.866179	-0.096043	0	0	0
14288	0	0	0	0	0	9.788570	-0.207552	-0.903309	-0.008860	-0.000003	-0.004923	-0.860840	0.293701	-0.235107	0.584348	-0.379633	-0.635517	-0.332466	-167.604571	-84.358744	107.055902	-0.028832	0.093976	0.995157	0.871079	0.490690	-0.021101	-0.490297	0.866251	-0.096008	0	0	0
14289	0	0	0	0	0	9.768203	-0.244195	-0.868833	-0.007103	-0.002226	-0.000698	-0.867188	0.289795	-0.235107	0.584344	-0.379669	-0.635486	-0.332492	-167.586381	-84.359803	107.031914	-0.028787	0.093971	0.995159	0.871128	0.490601	-0.021127	-0.490211	0.866303	-0.095983	0	0	0
14290	0	0	0	0	0	9.743743	-0.221986	-0.825602	-0.008818	-0.004642	-0.002391	-0.864990	0.285156	-0.231201	0.584318	-0.379718	-0.635462	-0.332529	-167.584515	-84.359080	107.022005	-0.028774	0.093988	0.995157	0.871197	0.490478	-0.021133	-0.490089	0.866370	-0.095995	0	0	0
14291	0	0	0	0	0	9.789544	-0.246274	-0.842376	0.002132	0.001211	-0.003904	-0.857666	0.292725	-0.237061	0.584333	-0.379714	-0.635441	-0.332545	-167.576981	-84.362311	107.013351	-0.028744	0.093938	0.995163	0.871206	0.490462	-0.021134	-0.490075	0.866385	-0.095937	0	0	0
14292	0	0	0	0	0	9.789889	-0.259280	-0.821834	0.014665	-0.001390	-0.001671	-0.859375	0.291016	-0.238770	0.584363	-0.379691	-0.635445	-0.332511	-167.553509	-84.363317	106.995253	-0.028709	0.093931	0.995165	0.871161	0.490542	-0.021169	-0.490158	0.866340	-0.095912	0	0	0
14293	0	0	0	0	0	9.747474	-0.266981	-0.855411	0.015947	-0.002161	-0.005999	-0.862793	0.291260	-0.235596	0.584395	-0.379641	-0.635463	-0.332479	-167.552759	-84.365124	107.002314	-0.028711	0.093897	0.995168	0.871093	0.490661	-0.021164	-0.490277	0.866277	-0.095881	0	0	0
14294	0	0	0	0	0	9.798194	-0.217356	-0.824585	0.014652	0.000155	-0.002514	-0.862305	0.292969	-0.237061	0.584428	-0.379612	-0.635464	-0.332451	-167.532126	-84.367099	106.987061	-0.028676	0.093872	0.995171	0.871047	0.490742	-0.021191	-0.490361	0.866234	-0.095840	0	0	0
14295	0	0	0	0	0	9.767883	-0.229400	-0.889592	0.016946	0.009141	-0.006783	-0.858643	0.286133	-0.231934	0.584494	-0.379541	-0.635451	-0.332441	-167.521345	-84.375222	106.984146	-0.028630	0.093739	0.995185	0.870979	0.490863	-0.021178	-0.490485	0.866179	-0.095698	0	0	0
14296	0	0	0	0	0	9.764890	-0.209731	-0.818253	0.022594	0.005906	-0.002234	-0.864502	0.291260	-0.244141	0.584562	-0.379480	-0.635448	-0.332398	-167.487284	-84.380378	106.959973	-0.028565	0.093665	0.995194	0.870894	0.491013	-0.021216	-0.490640	0.866102	-0.095598	0	0	0
14297	0	0	0	0	0	9.807674	-0.214827	-0.763794	0.017004	0.002956	-0.003405	-0.865234	0.291260	-0.239502	0.584616	-0.379426	-0.635448	-0.332365	-167.465399	-84.384725	106.946406	-0.028521	0.093599	0.995201	0.870822	0.491139	-0.021236	-0.490770	0.866038	-0.095516	0	0	0
14298	0	0	0	0	0	9.740500	-0.187282	-0.774114	0.014439	-0.001442	-0.005522	-0.862793	0.289795	-0.239990	0.584639	-0.379391	-0.635459	-0.332343	-167.463939	-84.386179	106.950296	-0.028520	0.093573	0.995204	0.870776	0.491220	-0.021233	-0.490851	0.865994	-0.095491	0	0	0
14299	0	0	0	0	0	9.786299	-0.211494	-0.791027	0.011240	-0.006226	-0.005052	-0.856934	0.286621	-0.238281	0.584651	-0.379363	-0.635479	-0.332315	-167.466127	-84.385624	106.957747	-0.028534	0.093579	0.995203	0.870731	0.491300	-0.021231	-0.490930	0.865949	-0.095501	0	0	0
14300	0	0	0	0	0	9.755559	-0.210301	-0.877714	0.014266	-0.007674	-0.005998	-0.857910	0.293945	-0.235107	0.584653	-0.379338	-0.635509	-0.332283	-167.475353	-84.383651	106.972275	-0.028568	0.093604	0.995200	0.870686	0.491381	-0.021223	-0.491009	0.865900	-0.095538	0	0	0
14301	0	0	0	0	0	9.764499	-0.194834	-0.839793	0.005837	-0.004491	-0.004901	-0.863281	0.292480	-0.233154	0.584658	-0.379326	-0.635514	-0.332277	-167.477314	-84.383957	106.975922	-0.028573	0.093598	0.995200	0.870672	0.491407	-0.021219	-0.491034	0.865886	-0.095533	0	0	0
14302	0	0	0	0	0	9.789269	-0.229666	-0.863094	0.005174	-0.001786	-0.004005	-0.867432	0.296387	-0.237305	0.584665	-0.379324	-0.635508	-0.332280	-167.472970	-84.385030	106.971579	-0.028560	0.093582	0.995202	0.870671	0.491407	-0.021222	-0.491035	0.865888	-0.095514	0	0	0
14303	0	0	0	0	0	9.788923	-0.216215	-0.883720	0.008402	-0.000093	-0.002785	-0.860596	0.293701	-0.237305	0.584690	-0.379309	-0.635499	-0.332270	-167.455781	-84.387372	106.956766	-0.028524	0.093550	0.995206	0.870651	0.491443	-0.021242	-0.491074	0.865871	-0.095468	0	0	0
14304	0	0	0	0	0	9.801691	-0.246794	-0.874422	0.011602	0.004690	-0.003256	-0.860840	0.288818	-0.239746	0.584731	-0.379279	-0.635483	-0.332263	-167.435269	-84.391973	106.939878	-0.028473	0.093482	0.995214	0.870619	0.491498	-0.021259	-0.491132	0.865847	-0.095382	0	0	0
14305	0	0	0	0	0	9.777986	-0.250823	-0.789272	0.009225	0.004978	-0.004051	-0.868164	0.286377	-0.240723	0.584776	-0.379244	-0.635465	-0.332260	-167.418408	-84.397510	106.926783	-0.028424	0.093397	0.995223	0.870587	0.491555	-0.021266	-0.491193	0.865824	-0.095282	0	0	0
14306	0	0	0	0	0	9.778025	-0.250517	-0.788887	0.023913	0.002036	-0.004871	-0.864502	0.290039	-0.235107	0.584829	-0.379177	-0.635480	-0.332213	-167.403376	-84.400828	106.922490	-0.028400	0.093344	0.995229	0.870494	0.491718	-0.021278	-0.491359	0.865737	-0.095220	0	0	0
14307	0	0	0	0	0	9.778045	-0.250226	-0.788740	0.030833	-0.000427	-0.005491	-0.861084	0.299316	-0.232422	0.584893	-0.379083	-0.635516	-0.332137	-167.390065	-84.403485	106.925232	-0.028391	0.093298	0.995233	0.870356	0.491962	-0.021290	-0.491603	0.865603	-0.095170	0	0	0
14308	0	0	0	0	0	9.743244	-0.190011	-0.865911	0.021971	-0.000436	-0.010415	-0.862549	0.294434	-0.231934	0.584926	-0.379009	-0.635546	-0.332107	-167.410934	-84.406114	106.955894	-0.028428	0.093239	0.995238	0.870272	0.492114	-0.021246	-0.491751	0.865523	-0.095133	0	0	0
14309	0	0	0	0	0	9.742555	-0.162919	-0.907115	0.021987	-0.001983	-0.009569	-0.852783	0.287842	-0.238525	0.584957	-0.378941	-0.635576	-0.332074	-167.426525	-84.408083	106.981069	-0.028459	0.093194	0.995241	0.870189	0.492261	-0.021212	-0.491895	0.865444	-0.095106	0	0	0
14310	0	0	0	0	0	9.802208	-0.097524	-0.837960	0.024988	-0.000344	-0.012203	-0.860596	0.294922	-0.237549	0.584992	-0.378852	-0.635613	-0.332040	-167.455808	-84.410984	107.021923	-0.028510	0.093126	0.995246	0.870089	0.492440	-0.021153	-0.492069	0.865350	-0.095067	0	0	0
14311	0	0	0	0	0	9.725357	-0.058059	-0.927773	0.015661	0.005493	-0.014071	-0.859619	0.292725	-0.240234	0.585033	-0.378766	-0.635623	-0.332048	-167.491630	-84.418034	107.065342	-0.028545	0.092987	0.995258	0.870023	0.492561	-0.021067	-0.492184	0.865296	-0.094961	0	0	0
14312	0	0	0	0	0	9.747485	-0.085774	-0.859197	-0.008259	0.003462	-0.009204	-0.860840	0.292725	-0.231445	0.585023	-0.378778	-0.635589	-0.332118	-167.518069	-84.422688	107.084197	-0.028552	0.092900	0.995266	0.870087	0.492450	-0.021006	-0.492070	0.865369	-0.094892	0	0	0
14313	0	0	0	0	0	9.776488	-0.179005	-0.890726	-0.020758	0.001428	-0.008908	-0.868164	0.298584	-0.237549	0.584988	-0.378825	-0.635539	-0.332222	-167.550598	-84.426677	107.102690	-0.028561	0.092825	0.995273	0.870207	0.492241	-0.020937	-0.491857	0.865496	-0.094836	0	0	0
14314	0	0	0	0	0	9.760368	-0.273950	-0.864655	-0.017528	0.003120	-0.007689	-0.859131	0.290527	-0.230957	0.584961	-0.378869	-0.635487	-0.332317	-167.574165	-84.430951	107.113323	-0.028557	0.092749	0.995280	0.870318	0.492048	-0.020882	-0.491662	0.865614	-0.094772	0	0	0
14315	0	0	0	0	0	9.773865	-0.330252	-0.814456	-0.008199	-0.002717	-0.005820	-0.856934	0.282959	-0.234863	0.584940	-0.378900	-0.635463	-0.332365	-167.587071	-84.432129	107.118841	-0.028560	0.092726	0.995282	0.870381	0.491937	-0.020856	-0.491550	0.865679	-0.094757	0	0	0
14316	0	0	0	0	0	9.785929	-0.334070	-0.846695	-0.001957	-0.000927	-0.006391	-0.859619	0.292725	-0.242676	0.584932	-0.378909	-0.635447	-0.332399	-167.599407	-84.433978	107.127153	-0.028564	0.092691	0.995285	0.870415	0.491877	-0.020829	-0.491489	0.865716	-0.094730	0	0	0
14317	0	0	0	0	0	9.785227	-0.307299	-0.887885	0.002150	-0.000340	-0.003058	-0.861328	0.293945	-0.236328	0.584948	-0.378905	-0.635431	-0.332406	-167.588044	-84.436455	107.115638	-0.028532	0.092656	0.995289	0.870416	0.491875	-0.020838	-0.491489	0.865722	-0.094684	0	0	0
14318	0	0	0	0	0	9.793833	-0.278807	-0.870026	0.023084	-0.001487	-0.004445	-0.861084	0.303223	-0.241943	0.584990	-0.378848	-0.635455	-0.332353	-167.575564	-84.437751	107.113432	-0.028522	0.092636	0.995291	0.870328	0.492030	-0.020854	-0.491646	0.865635	-0.094657	0	0	0
14319	0	0	0	0	0	9.764494	-0.171180	-0.858632	0.016998	0.004497	-0.004248	-0.866211	0.292969	-0.236572	0.585046	-0.378793	-0.635450	-0.332327	-167.554813	-84.442953	107.100503	-0.028475	0.092556	0.995300	0.870261	0.492149	-0.020869	-0.491768	0.865576	-0.094561	0	0	0
14320	0	0	0	0	0	9.764899	-0.184150	-0.837546	-0.000694	0.005795	-0.000797	-0.863770	0.295654	-0.242432	0.585071	-0.378806	-0.635405	-0.332353	-167.525705	-84.447872	107.067903	-0.028397	0.092490	0.995309	0.870290	0.492096	-0.020898	-0.491720	0.865614	-0.094467	0	0	0
14321	0	0	0	0	0	9.764937	-0.183946	-0.837149	-0.012543	0.002597	-0.002243	-0.857178	0.295654	-0.234375	0.585068	-0.378845	-0.635354	-0.332411	-167.513653	-84.451792	107.046846	-0.028343	0.092435	0.995315	0.870367	0.491959	-0.020904	-0.491587	0.865697	-0.094396	0	0	0
14322	0	0	0	0	0	9.748080	-0.253229	-0.852677	-0.012033	-0.007885	-0.002762	-0.863037	0.293701	-0.239746	0.585025	-0.378907	-0.635335	-0.332453	-167.519742	-84.449300	107.043081	-0.028350	0.092479	0.995311	0.870452	0.491809	-0.020903	-0.491436	0.865778	-0.094441	0	0	0
14323	0	0	0	0	0	9.769771	-0.268533	-0.805708	-0.012712	-0.003636	-0.002713	-0.865967	0.297363	-0.244629	0.585001	-0.378958	-0.635301	-0.332502	-167.518179	-84.449712	107.032070	-0.028330	0.092477	0.995312	0.870533	0.491666	-0.020904	-0.491294	0.865860	-0.094433	0	0	0
14324	0	0	0	0	0	9.827669	-0.297291	-0.854564	0.002165	-0.001885	-0.002212	-0.857666	0.300537	-0.236816	0.585004	-0.378971	-0.635286	-0.332509	-167.505317	-84.450509	107.017438	-0.028302	0.092471	0.995313	0.870548	0.491638	-0.020922	-0.491268	0.865876	-0.094415	0	0	0
14325	0	0	0	0	0	9.814905	-0.266312	-0.863557	0.009241	0.003432	-0.003205	-0.863770	0.291748	-0.236084	0.585045	-0.378941	-0.635271	-0.332501	-167.484249	-84.455042	107.000002	-0.028251	0.092405	0.995321	0.870517	0.491693	-0.020940	-0.491327	0.865852	-0.094331	0	0	0
14326	0	0	0	0	0	9.769083	-0.241589	-0.846696	0.013998	0.002858	-0.001613	-0.854004	0.289063	-0.239258	0.585088	-0.378913	-0.635261	-0.332477	-167.455051	-84.458417	106.975770	-0.028195	0.092361	0.995326	0.870474	0.491767	-0.020975	-0.491406	0.865814	-0.094263	0	0	0
14327	0	0	0	0	0	9.744250	-0.206495	-0.823625	0.007136	-0.000861	0.002389	-0.867676	0.290527	-0.237061	0.585119	-0.378916	-0.635243	-0.332453	-167.409733	-84.459822	106.932568	-0.028118	0.092358	0.995329	0.870456	0.491796	-0.021044	-0.491443	0.865798	-0.094222	0	0	0
14328	0	0	0	0	0	9.799051	-0.216271	-0.801710	0.011014	-0.000328	0.001868	-0.853760	0.291504	-0.242188	0.585151	-0.378912	-0.635231	-0.332423	-167.366222	-84.460977	106.892238	-0.028047	0.092359	0.995331	0.870429	0.491842	-0.021112	-0.491495	0.865772	-0.094187	0	0	0
14329	0	0	0	0	0	9.764918	-0.183169	-0.837536	-0.003709	0.005698	0.000992	-0.863525	0.291504	-0.236328	0.585182	-0.378929	-0.635180	-0.332448	-167.326586	-84.466281	106.848808	-0.027950	0.092292	0.995340	0.870461	0.491783	-0.021156	-0.491443	0.865813	-0.094082	0	0	0
14330	0	0	0	0	0	9.752870	-0.178852	-0.805302	-0.003000	-0.001640	0.002635	-0.863037	0.294189	-0.234375	0.585185	-0.378971	-0.635147	-0.332457	-167.288326	-84.466600	106.805687	-0.027879	0.092308	0.995340	0.870503	0.491706	-0.021218	-0.491373	0.865855	-0.094063	0	0	0
14331	0	0	0	0	0	9.786991	-0.212057	-0.769594	-0.005791	-0.006095	-0.003332	-0.862793	0.293945	-0.231689	0.585162	-0.379007	-0.635133	-0.332484	-167.290194	-84.465624	106.801702	-0.027878	0.092326	0.995339	0.870553	0.491617	-0.021219	-0.491284	0.865904	-0.094080	0	0	0
14332	0	0	0	0	0	9.790793	-0.257529	-0.799343	-0.002592	-0.001311	-0.003805	-0.856934	0.290771	-0.233398	0.585156	-0.379027	-0.635112	-0.332511	-167.288421	-84.466937	106.795474	-0.027861	0.092307	0.995341	0.870591	0.491549	-0.021217	-0.491217	0.865944	-0.094057	0	0	0
14333	0	0	0	0	0	9.802860	-0.261661	-0.831402	0.004514	0.000917	-0.003107	-0.860107	0.292480	-0.233643	0.585174	-0.379025	-0.635092	-0.332520	-167.273930	-84.469761	106.780539	-0.027823	0.092267	0.995345	0.870595	0.491542	-0.021230	-0.491213	0.865952	-0.094004	0	0	0
14334	0	0	0	0	0	9.790811	-0.256738	-0.799373	0.011208	-0.001597	-0.007579	-0.857666	0.300781	-0.237793	0.585187	-0.378993	-0.635102	-0.332514	-167.286408	-84.471391	106.796573	-0.027841	0.092232	0.995348	0.870564	0.491598	-0.021203	-0.491267	0.865924	-0.093981	0	0	0
14335	0	0	0	0	0	9.769828	-0.266746	-0.805622	0.011377	0.004634	-0.007108	-0.866455	0.294922	-0.233887	0.585226	-0.378948	-0.635092	-0.332517	-167.285333	-84.476898	106.799554	-0.027818	0.092139	0.995357	0.870529	0.491661	-0.021184	-0.491331	0.865898	-0.093887	0	0	0
14336	0	0	0	0	0	9.802948	-0.260022	-0.830875	0.020680	0.001887	-0.006930	-0.855713	0.292480	-0.230713	0.585269	-0.378885	-0.635106	-0.332486	-167.284107	-84.480393	106.807271	-0.027813	0.092078	0.995363	0.870452	0.491798	-0.021172	-0.491468	0.865827	-0.093827	0	0	0
14337	0	0	0	0	0	9.768457	-0.213027	-0.887365	0.013559	0.001202	-0.008473	-0.858398	0.287354	-0.236328	0.585295	-0.378840	-0.635111	-0.332482	-167.294943	-84.484014	106.822819	-0.027819	0.092010	0.995369	0.870411	0.491872	-0.021141	-0.491540	0.865792	-0.093770	0	0	0
14338	0	0	0	0	0	9.732276	-0.198908	-0.791305	0.008847	-0.002857	-0.007528	-0.858643	0.285889	-0.241211	0.585300	-0.378817	-0.635120	-0.332481	-167.310166	-84.484933	106.840251	-0.027843	0.091986	0.995371	0.870392	0.491907	-0.021112	-0.491572	0.865775	-0.093760	0	0	0
14339	0	0	0	0	0	9.799143	-0.212190	-0.801675	0.004968	-0.003391	-0.007007	-0.851807	0.288086	-0.241455	0.585305	-0.378798	-0.635125	-0.332485	-167.324150	-84.486183	106.855747	-0.027861	0.091958	0.995373	0.870378	0.491932	-0.021085	-0.491595	0.865764	-0.093744	0	0	0
14340	0	0	0	0	0	9.794034	-0.272514	-0.869756	0.001074	-0.002380	-0.007332	-0.858398	0.294922	-0.240723	0.585296	-0.378798	-0.635120	-0.332510	-167.342085	-84.487343	106.871429	-0.027881	0.091931	0.995375	0.870398	0.491899	-0.021051	-0.491560	0.865785	-0.093731	0	0	0
14341	0	0	0	0	0	9.794798	-0.298057	-0.828493	0.010515	0.004194	-0.008376	-0.862549	0.289063	-0.235352	0.585335	-0.378743	-0.635115	-0.332512	-167.349810	-84.493071	106.884151	-0.027872	0.091829	0.995385	0.870354	0.491978	-0.021016	-0.491637	0.865751	-0.093637	0	0	0
14342	0	0	0	0	0	9.782422	-0.279624	-0.816664	0.024335	0.002362	-0.011302	-0.858154	0.291992	-0.235107	0.585379	-0.378655	-0.635143	-0.332483	-167.371307	-84.497379	106.916801	-0.027903	0.091742	0.995392	0.870258	0.492151	-0.020965	-0.491806	0.865662	-0.093571	0	0	0
14343	0	0	0	0	0	9.757597	-0.243752	-0.793465	0.021549	0.002322	-0.005659	-0.856445	0.290283	-0.232910	0.585432	-0.378588	-0.635154	-0.332445	-167.360171	-84.501424	106.915568	-0.027880	0.091675	0.995399	0.870172	0.492302	-0.020968	-0.491958	0.865584	-0.093499	0	0	0
14344	0	0	0	0	0	9.756913	-0.216945	-0.834157	0.020641	0.006513	-0.009466	-0.860840	0.294922	-0.236084	0.585485	-0.378510	-0.635159	-0.332431	-167.367766	-84.507824	106.932124	-0.027874	0.091561	0.995409	0.870094	0.492440	-0.020931	-0.492096	0.865517	-0.093393	0	0	0
14345	0	0	0	0	0	9.786167	-0.164218	-0.830057	0.027600	0.000965	-0.008387	-0.869385	0.287842	-0.234619	0.585540	-0.378421	-0.635188	-0.332380	-167.370347	-84.511397	106.947900	-0.027882	0.091494	0.995415	0.869981	0.492642	-0.020913	-0.492297	0.865409	-0.093333	0	0	0
14346	0	0	0	0	0	9.786202	-0.163596	-0.829757	0.016779	0.004434	-0.008098	-0.863281	0.293213	-0.238281	0.585582	-0.378361	-0.635191	-0.332370	-167.374941	-84.516462	106.959219	-0.027874	0.091404	0.995424	0.869922	0.492747	-0.020887	-0.492401	0.865359	-0.093249	0	0	0
14347	0	0	0	0	0	9.765585	-0.186744	-0.815522	0.012749	-0.003875	-0.007196	-0.857422	0.292236	-0.236572	0.585595	-0.378326	-0.635208	-0.332353	-167.386227	-84.517230	106.975454	-0.027896	0.091383	0.995425	0.869879	0.492823	-0.020865	-0.492475	0.865318	-0.093240	0	0	0
14348	0	0	0	0	0	9.756272	-0.188025	-0.874837	0.007110	-0.002199	-0.010905	-0.854492	0.282227	-0.242432	0.585593	-0.378296	-0.635220	-0.332368	-167.421390	-84.518936	107.011918	-0.027945	0.091337	0.995428	0.869868	0.492846	-0.020802	-0.492493	0.865309	-0.093224	0	0	0
14349	0	0	0	0	0	9.778022	-0.202734	-0.827403	0.011218	-0.001608	-0.007572	-0.856201	0.284668	-0.235352	0.585614	-0.378254	-0.635231	-0.332357	-167.432504	-84.521258	107.028149	-0.027959	0.091291	0.995432	0.869824	0.492925	-0.020775	-0.492570	0.865269	-0.093189	0	0	0
14350	0	0	0	0	0	9.778039	-0.202004	-0.827386	0.011188	0.001478	-0.009266	-0.867188	0.284424	-0.238037	0.585634	-0.378212	-0.635235	-0.332362	-167.451038	-84.524814	107.050253	-0.027977	0.091221	0.995438	0.869792	0.492982	-0.020731	-0.492624	0.865244	-0.093135	0	0	0
14351	0	0	0	0	0	9.800185	-0.229772	-0.759175	0.007976	-0.001762	-0.009636	-0.860840	0.291016	-0.240967	0.585643	-0.378176	-0.635244	-0.332370	-167.477251	-84.527165	107.079147	-0.028011	0.091168	0.995442	0.869769	0.493026	-0.020680	-0.492664	0.865225	-0.093105	0	0	0
14352	0	0	0	0	0	9.757090	-0.210912	-0.833630	0.011158	0.004563	-0.010960	-0.865723	0.291260	-0.234619	0.585670	-0.378123	-0.635242	-0.332386	-167.501759	-84.532655	107.107235	-0.028027	0.091063	0.995451	0.869737	0.493084	-0.020619	-0.492718	0.865203	-0.093021	0	0	0
14353	0	0	0	0	0	9.786310	-0.157961	-0.829582	0.012038	0.003459	-0.008845	-0.864014	0.296143	-0.237305	0.585704	-0.378071	-0.635241	-0.332389	-167.513225	-84.537785	107.123497	-0.028027	0.090970	0.995459	0.869695	0.493159	-0.020581	-0.492792	0.865169	-0.092938	0	0	0
14354	0	0	0	0	0	9.786735	-0.170189	-0.808596	0.007278	0.004029	-0.010440	-0.859863	0.290283	-0.233398	0.585722	-0.378033	-0.635233	-0.332415	-167.537692	-84.542911	107.149311	-0.028042	0.090872	0.995468	0.869683	0.493184	-0.020522	-0.492813	0.865166	-0.092860	0	0	0
14355	0	0	0	0	0	9.766138	-0.192957	-0.794391	0.006267	-0.004187	-0.011323	-0.858887	0.292236	-0.243896	0.585715	-0.378006	-0.635247	-0.332431	-167.576579	-84.543935	107.189181	-0.028099	0.090836	0.995469	0.869674	0.493202	-0.020456	-0.492826	0.865159	-0.092856	0	0	0
14356	0	0	0	0	0	9.756422	-0.181294	-0.874584	0.003507	-0.007304	-0.003987	-0.858154	0.292969	-0.235352	0.585701	-0.378018	-0.635254	-0.332429	-167.580092	-84.541922	107.191774	-0.028114	0.090868	0.995466	0.869682	0.493188	-0.020457	-0.492810	0.865164	-0.092891	0	0	0
14357	0	0	0	0	0	9.789819	-0.187582	-0.880322	-0.005361	-0.007329	-0.008915	-0.856689	0.297607	-0.239990	0.585669	-0.378032	-0.635256	-0.332464	-167.615261	-84.541113	107.222240	-0.028166	0.090866	0.995465	0.869723	0.493119	-0.020403	-0.492736	0.865204	-0.092918	0	0	0
14358	0	0	0	0	0	9.766026	-0.190862	-0.796272	-0.006666	-0.005000	-0.005440	-0.855469	0.290283	-0.235107	0.585641	-0.378065	-0.635242	-0.332503	-167.630134	-84.540568	107.230389	-0.028182	0.090871	0.995464	0.869781	0.493018	-0.020381	-0.492633	0.865261	-0.092932	0	0	0
14359	0	0	0	0	0	9.757452	-0.218629	-0.814675	-0.006650	-0.006543	-0.004592	-0.864502	0.294678	-0.252930	0.585616	-0.378098	-0.635231	-0.332533	-167.639401	-84.539577	107.233671	-0.028192	0.090886	0.995462	0.869832	0.492927	-0.020370	-0.492542	0.865311	-0.092952	0	0	0
14360	0	0	0	0	0	9.778796	-0.220487	-0.788300	0.002629	-0.006201	-0.006103	-0.860840	0.292236	-0.237305	0.585600	-0.378104	-0.635237	-0.332542	-167.654361	-84.538440	107.247258	-0.028220	0.090898	0.995460	0.869844	0.492907	-0.020350	-0.492519	0.865321	-0.092977	0	0	0
14361	0	0	0	0	0	9.787713	-0.204573	-0.750181	0.004945	-0.000315	-0.008695	-0.864014	0.291748	-0.243408	0.585615	-0.378070	-0.635238	-0.332553	-167.673267	-84.541749	107.268368	-0.028236	0.090833	0.995466	0.869825	0.492943	-0.020307	-0.492553	0.865307	-0.092928	0	0	0
14362	0	0	0	0	0	9.814995	-0.232859	-0.884711	0.008415	-0.000097	-0.002778	-0.859619	0.294434	-0.234375	0.585635	-0.378059	-0.635229	-0.332545	-167.657619	-84.543622	107.254538	-0.028205	0.090809	0.995469	0.869809	0.492970	-0.020325	-0.492582	0.865294	-0.092890	0	0	0
14363	0	0	0	0	0	9.765158	-0.162015	-0.839095	0.001944	-0.001951	-0.006060	-0.858154	0.293457	-0.237305	0.585638	-0.378054	-0.635222	-0.332560	-167.665182	-84.545412	107.261220	-0.028206	0.090776	0.995472	0.869816	0.492958	-0.020306	-0.492569	0.865305	-0.092862	0	0	0
14364	0	0	0	0	0	9.778397	-0.205314	-0.809534	-0.004955	-0.002579	-0.003752	-0.865234	0.288574	-0.240723	0.585624	-0.378083	-0.635200	-0.332593	-167.666075	-84.546015	107.256312	-0.028195	0.090768	0.995473	0.869866	0.492870	-0.020303	-0.492482	0.865356	-0.092853	0	0	0
14365	0	0	0	0	0	9.744896	-0.198073	-0.805184	-0.006600	-0.011173	-0.002048	-0.861084	0.298340	-0.235596	0.585589	-0.378130	-0.635198	-0.332606	-167.667202	-84.542182	107.251737	-0.028208	0.090834	0.995466	0.869915	0.492782	-0.020315	-0.492394	0.865399	-0.092918	0	0	0
14366	0	0	0	0	0	9.799680	-0.206980	-0.784022	-0.012063	-0.004812	-0.004448	-0.858887	0.294434	-0.231689	0.585553	-0.378181	-0.635173	-0.332659	-167.679106	-84.541620	107.253799	-0.028214	0.090842	0.995466	0.870000	0.492634	-0.020298	-0.492244	0.865482	-0.092932	0	0	0
14367	0	0	0	0	0	9.789932	-0.195535	-0.863986	-0.014249	-0.001381	-0.003087	-0.856445	0.291504	-0.236084	0.585527	-0.378239	-0.635128	-0.332723	-167.677344	-84.543108	107.240599	-0.028185	0.090824	0.995468	0.870098	0.492460	-0.020295	-0.492072	0.865583	-0.092906	0	0	0
14368	0	0	0	0	0	9.777445	-0.177462	-0.852958	-0.006648	-0.006546	-0.004591	-0.855469	0.292969	-0.243652	0.585496	-0.378278	-0.635117	-0.332756	-167.689203	-84.541593	107.245731	-0.028201	0.090847	0.995466	0.870156	0.492359	-0.020282	-0.491969	0.865638	-0.092936	0	0	0
14369	0	0	0	0	0	9.782156	-0.248981	-0.841435	-0.000437	-0.001666	-0.006857	-0.857422	0.283936	-0.237549	0.585496	-0.378273	-0.635107	-0.332780	-167.702191	-84.543750	107.256970	-0.028208	0.090805	0.995469	0.870171	0.492334	-0.020253	-0.491942	0.865657	-0.092904	0	0	0
14370	0	0	0	0	0	9.770078	-0.243945	-0.809802	0.007391	-0.006769	-0.004510	-0.856445	0.297119	-0.245117	0.585490	-0.378271	-0.635120	-0.332768	-167.705810	-84.542101	107.261904	-0.028224	0.090830	0.995466	0.870160	0.492354	-0.020253	-0.491961	0.865643	-0.092933	0	0	0
14371	0	0	0	0	0	9.802701	-0.224158	-0.856402	0.009705	-0.000881	-0.007102	-0.860352	0.286621	-0.234863	0.585513	-0.378232	-0.635126	-0.332760	-167.713735	-84.544808	107.274261	-0.028230	0.090779	0.995471	0.870121	0.492422	-0.020230	-0.492029	0.865609	-0.092890	0	0	0
14372	0	0	0	0	0	9.736187	-0.222974	-0.826031	0.005875	-0.006045	-0.004039	-0.862549	0.292236	-0.234863	0.585508	-0.378234	-0.635134	-0.332753	-167.714535	-84.543507	107.275491	-0.028239	0.090800	0.995469	0.870118	0.492429	-0.020233	-0.492034	0.865604	-0.092912	0	0	0
14373	0	0	0	0	0	9.765258	-0.170596	-0.822942	0.005221	-0.004880	-0.002301	-0.859131	0.290771	-0.240967	0.585511	-0.378240	-0.635132	-0.332744	-167.702782	-84.543068	107.264035	-0.028223	0.090813	0.995468	0.870115	0.492432	-0.020254	-0.492040	0.865600	-0.092916	0	0	0
14374	0	0	0	0	0	9.766432	-0.209503	-0.761903	-0.000562	-0.010988	-0.005623	-0.858154	0.294189	-0.241211	0.585475	-0.378264	-0.635146	-0.332753	-167.722859	-84.539193	107.280925	-0.028269	0.090869	0.995462	0.870143	0.492384	-0.020236	-0.491988	0.865622	-0.092988	0	0	0
14375	0	0	0	0	0	9.799819	-0.215896	-0.767929	-0.005113	-0.008815	-0.004212	-0.866943	0.291504	-0.237305	0.585449	-0.378292	-0.635145	-0.332769	-167.732234	-84.537061	107.286023	-0.028288	0.090902	0.995458	0.870180	0.492319	-0.020229	-0.491922	0.865655	-0.093028	0	0	0
14376	0	0	0	0	0	9.790383	-0.217704	-0.827993	-0.002698	-0.012185	-0.001720	-0.855469	0.291260	-0.240479	0.585412	-0.378338	-0.635151	-0.332771	-167.732183	-84.532040	107.281465	-0.028307	0.090987	0.995450	0.870219	0.492249	-0.020247	-0.491851	0.865686	-0.093113	0	0	0
14377	0	0	0	0	0	9.765788	-0.195454	-0.785655	0.002046	-0.011210	-0.000975	-0.862793	0.294922	-0.232178	0.585395	-0.378362	-0.635162	-0.332753	-167.722044	-84.528073	107.270624	-0.028310	0.091059	0.995443	0.870226	0.492236	-0.020278	-0.491839	0.865686	-0.093177	0	0	0
14378	0	0	0	0	0	9.781668	-0.245512	-0.848097	-0.005305	-0.011965	-0.006367	-0.850830	0.292725	-0.241211	0.585346	-0.378399	-0.635173	-0.332776	-167.750362	-84.523741	107.293065	-0.028368	0.091119	0.995436	0.870276	0.492147	-0.020248	-0.491746	0.865730	-0.093261	0	0	0
