// General information: 
//  MT Manager version: 2022.2.0 
//  XDA version: 2022.2.0 build 7381 rev 124627 built on 2023-07-19
// Device information: 
//  DeviceId: 10B426F1
//  ProductCode: MTW2-3A7G6
//  Firmware Version: 4.14.0
//  Hardware Version: 3.0.0
// Device settings: 
//  Filter Profile: human(46.1)
//  Option Flags: Orientation Smoother Disabled, Position/Velocity Smoother Disabled, Continuous Zero Rotation Update Disabled, AHS Disabled, ICC Disabled
// Coordinate system: ENU
PacketCounter	SampleTimeFine	Year	Month	Day	Second	Acc_X	Acc_Y	Acc_Z	Gyr_X	Gyr_Y	Gyr_Z	Mag_X	Mag_Y	Mag_Z	Quat_q0	Quat_q1	Quat_q2	Quat_q3	Roll	Pitch	Yaw	Mat[1][1]	Mat[2][1]	Mat[3][1]	Mat[1][2]	Mat[2][2]	Mat[3][2]	Mat[1][3]	Mat[2][3]	Mat[3][3]	Vel_E	Vel_N	Vel_U
13933	0	0	0	0	0	9.719280	1.311752	0.363915	0.008045	-0.000047	-0.002411	-0.574707	-0.538818	0.226318	0.322479	0.655994	-0.226865	0.643593	74.476033	-82.181608	59.695760	0.068641	0.117446	0.990704	-0.712734	-0.689079	0.131071	0.698067	-0.715106	0.036408	0	0	0
13934	0	0	0	0	0	9.741583	1.366845	0.357500	0.002686	0.000842	0.003377	-0.566650	-0.541992	0.229736	0.322456	0.655988	-0.226881	0.643604	74.469153	-82.184911	59.703364	0.068597	0.117406	0.990712	-0.712730	-0.689095	0.131012	0.698076	-0.715098	0.036409	0	0	0
13935	0	0	0	0	0	9.741588	1.366808	0.357503	0.004072	0.000166	-0.002364	-0.566895	-0.540283	0.225586	0.322448	0.655994	-0.226873	0.643606	74.471934	-82.184887	59.702019	0.068600	0.117404	0.990712	-0.712713	-0.689112	0.131014	0.698094	-0.715081	0.036402	0	0	0
13936	0	0	0	0	0	9.717734	1.330764	0.335033	0.004572	0.000926	-0.000869	-0.564941	-0.536377	0.220215	0.322432	0.655995	-0.226869	0.643613	74.470541	-82.185832	59.705176	0.068585	0.117394	0.990714	-0.712693	-0.689136	0.130997	0.698115	-0.715059	0.036401	0	0	0
13937	0	0	0	0	0	9.746982	1.313901	0.384476	0.005671	0.002825	-0.000196	-0.567383	-0.545654	0.237793	0.322421	0.655990	-0.226864	0.643627	74.460550	-82.186573	59.716627	0.068555	0.117397	0.990716	-0.712678	-0.689155	0.130978	0.698134	-0.715040	0.036421	0	0	0
13938	0	0	0	0	0	9.731149	1.330127	0.375389	0.002885	0.001603	-0.001257	-0.563232	-0.545654	0.240967	0.322413	0.655987	-0.226862	0.643634	74.455898	-82.187200	59.722097	0.068539	0.117394	0.990717	-0.712669	-0.689167	0.130965	0.698144	-0.715030	0.036428	0	0	0
13939	0	0	0	0	0	9.741515	1.367269	0.357709	0.005161	-0.001650	-0.001154	-0.570557	-0.539795	0.221191	0.322377	0.656007	-0.226839	0.643640	74.467531	-82.188060	59.715689	0.068544	0.117373	0.990720	-0.712606	-0.689234	0.130958	0.698208	-0.714969	0.036398	0	0	0
13940	0	0	0	0	0	9.761210	1.317072	0.364841	0.004073	0.000166	-0.002364	-0.563721	-0.532715	0.231201	0.322367	0.656012	-0.226833	0.643641	74.470578	-82.188296	59.714075	0.068546	0.117368	0.990720	-0.712588	-0.689252	0.130956	0.698226	-0.714952	0.036390	0	0	0
13941	0	0	0	0	0	9.715258	1.346870	0.365964	0.004672	0.001306	-0.003186	-0.564209	-0.537109	0.227783	0.322362	0.656015	-0.226819	0.643646	74.469933	-82.187648	59.716408	0.068546	0.117380	0.990719	-0.712567	-0.689272	0.130966	0.698247	-0.714931	0.036394	0	0	0
13942	0	0	0	0	0	9.715197	1.347294	0.366002	0.006459	0.001009	-0.005115	-0.571045	-0.539063	0.229492	0.322354	0.656025	-0.226795	0.643649	74.474032	-82.186236	59.715113	0.068561	0.117400	0.990715	-0.712531	-0.689304	0.130993	0.698283	-0.714897	0.036391	0	0	0
13943	0	0	0	0	0	9.730965	1.331527	0.375195	0.005760	-0.000510	-0.001975	-0.563721	-0.539551	0.226807	0.322336	0.656035	-0.226781	0.643652	74.480339	-82.186524	59.711586	0.068566	0.117391	0.990716	-0.712497	-0.689340	0.130992	0.698317	-0.714864	0.036376	0	0	0
13944	0	0	0	0	0	9.730929	1.331828	0.375079	0.003574	-0.000593	-0.003858	-0.565918	-0.540039	0.225342	0.322332	0.656044	-0.226773	0.643648	74.487826	-82.186052	59.705201	0.068583	0.117391	0.990715	-0.712482	-0.689353	0.131004	0.698331	-0.714851	0.036361	0	0	0
13945	0	0	0	0	0	9.757073	1.353061	0.366676	0.004672	0.001306	-0.003186	-0.573242	-0.545898	0.227051	0.322327	0.656047	-0.226760	0.643652	74.487257	-82.185359	59.707294	0.068585	0.117404	0.990713	-0.712463	-0.689370	0.131016	0.698350	-0.714832	0.036365	0	0	0
13946	0	0	0	0	0	9.712635	1.364004	0.396875	0.002396	0.004559	-0.003289	-0.569336	-0.542969	0.234131	0.322331	0.656036	-0.226748	0.643665	74.472710	-82.184411	59.722470	0.068562	0.117436	0.990711	-0.712457	-0.689376	0.131022	0.698359	-0.714822	0.036403	0	0	0
13947	0	0	0	0	0	9.714950	1.348989	0.366325	0.002985	0.001983	-0.003574	-0.565430	-0.540771	0.226807	0.322331	0.656036	-0.226735	0.643669	74.469210	-82.183412	59.727074	0.068561	0.117456	0.990709	-0.712443	-0.689387	0.131037	0.698373	-0.714807	0.036415	0	0	0
13948	0	0	0	0	0	9.767106	1.270231	0.332502	0.008647	0.001093	-0.003231	-0.573486	-0.547607	0.228760	0.322310	0.656047	-0.226710	0.643678	74.472121	-82.183028	59.728242	0.068562	0.117463	0.990708	-0.712393	-0.689437	0.131045	0.698424	-0.714758	0.036411	0	0	0
13949	0	0	0	0	0	9.746493	1.317374	0.384977	0.007459	0.002529	-0.002125	-0.565430	-0.541992	0.229736	0.322295	0.656049	-0.226690	0.643691	74.467016	-82.182733	59.736413	0.068548	0.117478	0.990707	-0.712356	-0.689475	0.131046	0.698462	-0.714719	0.036424	0	0	0
13950	0	0	0	0	0	9.739456	1.389767	0.329291	0.006460	0.001009	-0.005114	-0.570801	-0.544434	0.235352	0.322288	0.656058	-0.226666	0.643693	74.471114	-82.181322	59.735119	0.068563	0.117497	0.990704	-0.712320	-0.689507	0.131073	0.698497	-0.714685	0.036421	0	0	0
13951	0	0	0	0	0	9.698913	1.366589	0.357408	0.001298	0.002659	-0.003962	-0.564941	-0.550049	0.229736	0.322291	0.656055	-0.226651	0.643700	74.464864	-82.179997	59.742298	0.068560	0.117525	0.990700	-0.712309	-0.689515	0.131091	0.698510	-0.714672	0.036441	0	0	0
13952	0	0	0	0	0	9.712303	1.366177	0.397510	0.002976	-0.001733	-0.003035	-0.570313	-0.537842	0.231201	0.322285	0.656066	-0.226649	0.643693	74.475666	-82.180154	59.732221	0.068579	0.117511	0.990701	-0.712298	-0.689525	0.131095	0.698518	-0.714665	0.036416	0	0	0
13953	0	0	0	0	0	9.734553	1.421503	0.390939	-0.002786	-0.001223	-0.001061	-0.569092	-0.545654	0.218506	0.322291	0.656064	-0.226667	0.643685	74.479100	-82.181016	59.726649	0.068583	0.117492	0.990703	-0.712325	-0.689501	0.131083	0.698491	-0.714692	0.036404	0	0	0
13954	0	0	0	0	0	9.722635	1.403488	0.379684	-0.004473	-0.000547	-0.001449	-0.569824	-0.547852	0.231689	0.322306	0.656057	-0.226693	0.643676	74.479096	-82.181867	59.723172	0.068583	0.117475	0.990705	-0.712367	-0.689459	0.131069	0.698448	-0.714735	0.036400	0	0	0
13955	0	0	0	0	0	9.758181	1.337048	0.396361	-0.009636	0.001102	-0.000297	-0.568115	-0.547363	0.222412	0.322345	0.656031	-0.226741	0.643665	74.467422	-82.182777	59.727188	0.068567	0.117466	0.990707	-0.712463	-0.689365	0.131046	0.698352	-0.714827	0.036423	0	0	0
13956	0	0	0	0	0	9.731964	1.316357	0.404834	-0.009446	-0.001854	-0.004392	-0.565674	-0.550293	0.224854	0.322383	0.656024	-0.226775	0.643642	74.473113	-82.182204	59.715087	0.068597	0.117460	0.990706	-0.712538	-0.689284	0.131059	0.698272	-0.714906	0.036412	0	0	0
13957	0	0	0	0	0	9.714566	1.351613	0.366822	-0.005062	0.002029	-0.001164	-0.569824	-0.543213	0.221924	0.322413	0.656003	-0.226805	0.643637	74.461237	-82.182465	59.721681	0.068581	0.117464	0.990706	-0.712604	-0.689219	0.131047	0.698207	-0.714968	0.036438	0	0	0
13958	0	0	0	0	0	9.732752	1.320178	0.345552	-0.002277	0.003252	-0.000104	-0.575195	-0.546387	0.228027	0.322420	0.655986	-0.226822	0.643646	74.445709	-82.183475	59.735144	0.068544	0.117465	0.990709	-0.712632	-0.689194	0.131021	0.698181	-0.714992	0.036469	0	0	0
13959	0	0	0	0	0	9.734279	1.301305	0.374629	-0.001687	0.000676	-0.000388	-0.565918	-0.534668	0.230957	0.322432	0.655975	-0.226844	0.643643	74.440327	-82.184435	59.737496	0.068531	0.117453	0.990711	-0.712671	-0.689158	0.131001	0.698143	-0.715028	0.036477	0	0	0
13960	0	0	0	0	0	9.716063	1.332834	0.396338	-0.003375	0.001353	-0.000776	-0.567139	-0.538330	0.221680	0.322443	0.655963	-0.226865	0.643643	74.432556	-82.185366	59.742494	0.068513	0.117446	0.990713	-0.712706	-0.689125	0.130981	0.698109	-0.715061	0.036490	0	0	0
13961	0	0	0	0	0	9.743755	1.335012	0.416978	0.000699	0.001520	-0.003139	-0.565674	-0.540039	0.226074	0.322449	0.655959	-0.226863	0.643644	74.428893	-82.184701	59.745802	0.068512	0.117459	0.990712	-0.712710	-0.689120	0.130989	0.698105	-0.715065	0.036502	0	0	0
13962	0	0	0	0	0	9.719912	1.299039	0.394609	0.000100	0.000380	-0.002317	-0.573486	-0.542236	0.234619	0.322453	0.655957	-0.226869	0.643642	74.428749	-82.184931	59.745110	0.068511	0.117455	0.990712	-0.712721	-0.689110	0.130985	0.698094	-0.715075	0.036501	0	0	0
13963	0	0	0	0	0	9.757946	1.338431	0.397473	-0.002585	-0.000464	-0.005694	-0.559570	-0.544922	0.226318	0.322473	0.655959	-0.226869	0.643630	74.434440	-82.183151	59.737605	0.068542	0.117473	0.990708	-0.712740	-0.689084	0.131019	0.698072	-0.715097	0.036496	0	0	0
13964	0	0	0	0	0	9.728618	1.355819	0.348081	0.005861	-0.000129	-0.004291	-0.566650	-0.547363	0.224609	0.322463	0.655970	-0.226851	0.643630	74.441854	-82.182369	59.732617	0.068559	0.117478	0.990706	-0.712708	-0.689113	0.131036	0.698102	-0.715068	0.036483	0	0	0
13965	0	0	0	0	0	9.718179	1.319349	0.365850	-0.000289	0.003715	-0.006666	-0.569092	-0.548584	0.224365	0.322491	0.655961	-0.226840	0.643629	74.432687	-82.179334	59.740237	0.068570	0.117533	0.990699	-0.712725	-0.689087	0.131081	0.698084	-0.715084	0.036518	0	0	0
13966	0	0	0	0	0	9.732390	1.322584	0.346534	-0.003275	0.001732	-0.003093	-0.564941	-0.541992	0.220947	0.322509	0.655950	-0.226852	0.643627	74.426045	-82.178927	59.744153	0.068566	0.117544	0.990698	-0.712758	-0.689052	0.131084	0.698050	-0.715116	0.036535	0	0	0
13967	0	0	0	0	0	9.729952	1.338318	0.377297	0.006451	-0.002705	-0.004575	-0.570557	-0.540039	0.227051	0.322505	0.655968	-0.226841	0.643615	74.443589	-82.178061	59.727868	0.068606	0.117537	0.990696	-0.712739	-0.689067	0.131109	0.698066	-0.715103	0.036499	0	0	0
13968	0	0	0	0	0	9.729890	1.338835	0.377080	0.001389	-0.000676	-0.005740	-0.572754	-0.549805	0.235107	0.322514	0.655975	-0.226834	0.643605	74.452255	-82.176563	59.719030	0.068638	0.117549	0.990692	-0.712738	-0.689062	0.131140	0.698064	-0.715105	0.036486	0	0	0
13969	0	0	0	0	0	9.741716	1.357447	0.388348	0.005272	0.002447	-0.004006	-0.575439	-0.545654	0.229004	0.322507	0.655978	-0.226810	0.643614	74.448830	-82.175259	59.725125	0.068637	0.117576	0.990689	-0.712705	-0.689092	0.131159	0.698098	-0.715072	0.036500	0	0	0
13970	0	0	0	0	0	9.741659	1.357847	0.388378	0.003575	-0.000592	-0.003857	-0.561768	-0.542236	0.229492	0.322503	0.655987	-0.226802	0.643610	74.456304	-82.174788	59.718754	0.068654	0.117575	0.990688	-0.712690	-0.689106	0.131172	0.698111	-0.715059	0.036485	0	0	0
13971	0	0	0	0	0	9.712339	1.375129	0.338971	0.001888	0.000083	-0.004245	-0.564209	-0.550781	0.227539	0.322507	0.655992	-0.226793	0.643607	74.460583	-82.173701	59.714878	0.068671	0.117587	0.990685	-0.712683	-0.689109	0.131193	0.698116	-0.715054	0.036480	0	0	0
13972	0	0	0	0	0	9.737602	1.392960	0.390317	0.002487	0.001223	-0.005067	-0.569580	-0.555420	0.224609	0.322512	0.655994	-0.226781	0.643606	74.461491	-82.172283	59.714505	0.068684	0.117607	0.990682	-0.712675	-0.689113	0.131217	0.698124	-0.715047	0.036485	0	0	0
13973	0	0	0	0	0	9.713780	1.357004	0.367750	0.006851	-0.002324	-0.000763	-0.568848	-0.542236	0.228027	0.322493	0.656008	-0.226779	0.643602	74.473902	-82.173414	59.703997	0.068696	0.117578	0.990685	-0.712652	-0.689139	0.131206	0.698146	-0.715027	0.036451	0	0	0
13974	0	0	0	0	0	9.733496	1.307017	0.375070	-0.000289	0.003715	-0.006665	-0.569580	-0.547852	0.227295	0.322516	0.655999	-0.226766	0.643603	74.464998	-82.170731	59.711923	0.068703	0.117627	0.990678	-0.712662	-0.689121	0.131245	0.698135	-0.715036	0.036484	0	0	0
13975	0	0	0	0	0	9.703282	1.321076	0.385492	0.007152	-0.001185	-0.007712	-0.565674	-0.548584	0.227783	0.322515	0.656019	-0.226734	0.643595	74.480967	-82.167922	59.698808	0.068755	0.117654	0.990672	-0.712622	-0.689152	0.131302	0.698171	-0.715002	0.036460	0	0	0
13976	0	0	0	0	0	9.729366	1.342680	0.376933	0.007651	-0.000424	-0.006218	-0.567383	-0.538818	0.224365	0.322505	0.656037	-0.226705	0.643593	74.492723	-82.166120	59.690471	0.068787	0.117671	0.990667	-0.712577	-0.689191	0.131340	0.698214	-0.714961	0.036442	0	0	0
13977	0	0	0	0	0	9.745104	1.327331	0.385940	0.008342	-0.002621	-0.008818	-0.569336	-0.541992	0.221680	0.322503	0.656064	-0.226668	0.643578	74.516260	-82.162912	59.670251	0.068857	0.117694	0.990660	-0.712529	-0.689227	0.131408	0.698255	-0.714922	0.036402	0	0	0
13978	0	0	0	0	0	9.747410	1.312663	0.355032	0.009847	0.003376	-0.004873	-0.569824	-0.542969	0.232910	0.322486	0.656071	-0.226630	0.643593	74.512523	-82.161271	59.678823	0.068854	0.117729	0.990656	-0.712470	-0.689284	0.131433	0.698316	-0.714862	0.036419	0	0	0
13979	0	0	0	0	0	9.727540	1.363565	0.347967	0.010446	0.004516	-0.005695	-0.572998	-0.546631	0.224609	0.322474	0.656076	-0.226584	0.643610	74.505190	-82.158723	59.691178	0.068850	0.117782	0.990650	-0.712408	-0.689341	0.131471	0.698380	-0.714798	0.036447	0	0	0
13980	0	0	0	0	0	9.739304	1.382480	0.359464	0.010049	0.004134	-0.009505	-0.561035	-0.544189	0.228516	0.322472	0.656086	-0.226529	0.643620	74.503686	-82.154409	59.697614	0.068875	0.117854	0.990640	-0.712344	-0.689394	0.131542	0.698443	-0.714736	0.036471	0	0	0
13981	0	0	0	0	0	9.724939	1.380218	0.379299	0.005671	0.002829	-0.000195	-0.577148	-0.541016	0.236328	0.322457	0.656082	-0.226520	0.643635	74.494268	-82.155120	59.709075	0.068845	0.117857	0.990641	-0.712321	-0.689420	0.131524	0.698469	-0.714710	0.036489	0	0	0
13982	0	0	0	0	0	9.735208	1.417568	0.361918	-0.000288	0.003712	-0.006666	-0.568848	-0.546875	0.223877	0.322479	0.656074	-0.226508	0.643636	74.485384	-82.152437	59.716981	0.068852	0.117907	0.990635	-0.712331	-0.689402	0.131563	0.698458	-0.714719	0.036522	0	0	0
13983	0	0	0	0	0	9.714462	1.344068	0.397636	0.004684	0.005023	-0.003722	-0.569336	-0.539307	0.234131	0.322478	0.656067	-0.226485	0.643653	74.470775	-82.150911	59.733752	0.068831	0.117950	0.990631	-0.712306	-0.689425	0.131579	0.698486	-0.714689	0.036562	0	0	0
13984	0	0	0	0	0	9.750892	1.402351	0.371873	0.002987	0.001983	-0.003571	-0.572510	-0.543457	0.219482	0.322478	0.656066	-0.226475	0.643658	74.467260	-82.150202	59.738134	0.068828	0.117965	0.990630	-0.712295	-0.689435	0.131589	0.698497	-0.714678	0.036574	0	0	0
13985	0	0	0	0	0	9.723123	1.400639	0.351529	0.000700	0.001518	-0.003138	-0.563477	-0.541260	0.235352	0.322486	0.656061	-0.226475	0.643658	74.463409	-82.149535	59.741218	0.068828	0.117979	0.990628	-0.712304	-0.689424	0.131597	0.698488	-0.714686	0.036586	0	0	0
13986	0	0	0	0	0	9.745274	1.335320	0.328159	0.002489	0.001222	-0.005065	-0.562744	-0.549072	0.227051	0.322492	0.656064	-0.226463	0.643657	74.464318	-82.148117	59.740845	0.068841	0.118000	0.990625	-0.712296	-0.689427	0.131621	0.698495	-0.714679	0.036590	0	0	0
13987	0	0	0	0	0	9.720596	1.295964	0.365675	0.002397	0.004559	-0.003288	-0.572754	-0.543457	0.224854	0.322492	0.656056	-0.226444	0.643672	74.450479	-82.146836	59.756287	0.068820	0.118038	0.990621	-0.712277	-0.689444	0.131634	0.698516	-0.714656	0.036628	0	0	0
13988	0	0	0	0	0	9.730850	1.333451	0.348145	0.007655	-0.000424	-0.006214	-0.558594	-0.536133	0.230713	0.322482	0.656073	-0.226415	0.643669	74.462217	-82.145038	59.747970	0.068853	0.118054	0.990617	-0.712232	-0.689484	0.131671	0.698559	-0.714616	0.036609	0	0	0
13989	0	0	0	0	0	9.728403	1.349090	0.378885	0.004473	0.000551	0.001450	-0.571777	-0.539795	0.234131	0.322459	0.656074	-0.226415	0.643679	74.459732	-82.147035	59.752484	0.068826	0.118030	0.990622	-0.712211	-0.689513	0.131636	0.698584	-0.714591	0.036606	0	0	0
13990	0	0	0	0	0	9.760055	1.317079	0.397517	-0.001486	0.001432	-0.005021	-0.570801	-0.549805	0.234131	0.322477	0.656069	-0.226416	0.643675	74.457476	-82.145610	59.753007	0.068838	0.118052	0.990619	-0.712230	-0.689488	0.131659	0.698563	-0.714611	0.036617	0	0	0
13991	0	0	0	0	0	9.698160	1.363190	0.389381	0.004279	0.000926	-0.006992	-0.564697	-0.542236	0.224365	0.322477	0.656081	-0.226384	0.643674	74.463357	-82.142896	59.749873	0.068868	0.118089	0.990612	-0.712193	-0.689517	0.131708	0.698597	-0.714577	0.036617	0	0	0
13992	0	0	0	0	0	9.742485	1.353262	0.359565	0.003089	0.002362	-0.005887	-0.568604	-0.538086	0.236328	0.322485	0.656082	-0.226365	0.643676	74.460968	-82.140850	59.753177	0.068879	0.118123	0.990607	-0.712180	-0.689525	0.131740	0.698610	-0.714565	0.036631	0	0	0
13993	0	0	0	0	0	9.712273	1.367134	0.370023	0.002490	0.001222	-0.005065	-0.563232	-0.537842	0.233887	0.322487	0.656086	-0.226347	0.643677	74.462201	-82.139153	59.753281	0.068893	0.118149	0.990603	-0.712162	-0.689538	0.131769	0.698627	-0.714548	0.036637	0	0	0
13994	0	0	0	0	0	9.722522	1.404570	0.352470	0.002988	0.001983	-0.003571	-0.569336	-0.540283	0.227295	0.322487	0.656085	-0.226338	0.643682	74.458693	-82.138444	59.757655	0.068890	0.118165	0.990601	-0.712151	-0.689547	0.131779	0.698638	-0.714536	0.036648	0	0	0
13995	0	0	0	0	0	9.724024	1.386019	0.381582	0.001798	0.003419	-0.002466	-0.573242	-0.548096	0.217773	0.322485	0.656078	-0.226326	0.643693	74.447913	-82.137849	59.769605	0.068871	0.118188	0.990600	-0.712138	-0.689560	0.131782	0.698653	-0.714520	0.036675	0	0	0
13996	0	0	0	0	0	9.723987	1.386260	0.381662	-0.003283	-0.001987	-0.002555	-0.564697	-0.540039	0.231445	0.322498	0.656079	-0.226346	0.643679	74.455557	-82.138310	59.759096	0.068889	0.118168	0.990601	-0.712172	-0.689526	0.131779	0.698617	-0.714556	0.036656	0	0	0
13997	0	0	0	0	0	9.727911	1.352381	0.379793	0.005875	0.003588	-0.004825	-0.570557	-0.545654	0.228760	0.322501	0.656076	-0.226324	0.643688	74.447966	-82.136362	59.768201	0.068887	0.118208	0.990596	-0.712153	-0.689540	0.131807	0.698637	-0.714536	0.036682	0	0	0
13998	0	0	0	0	0	9.712015	1.368781	0.370703	0.002887	0.001605	-0.001255	-0.572266	-0.534912	0.238281	0.322494	0.656074	-0.226323	0.643695	74.443338	-82.136989	59.773648	0.068870	0.118206	0.990598	-0.712144	-0.689551	0.131793	0.698647	-0.714525	0.036690	0	0	0
13999	0	0	0	0	0	9.710432	1.387811	0.341894	0.000102	0.000378	-0.002316	-0.574951	-0.541504	0.226318	0.322491	0.656075	-0.226320	0.643696	74.443738	-82.136966	59.773700	0.068870	0.118206	0.990598	-0.712139	-0.689557	0.131794	0.698653	-0.714520	0.036689	0	0	0
14000	0	0	0	0	0	9.727807	1.353027	0.380132	0.000599	0.001140	-0.000822	-0.571289	-0.545166	0.229980	0.322489	0.656070	-0.226329	0.643699	74.439177	-82.137903	59.777757	0.068854	0.118197	0.990600	-0.712146	-0.689552	0.131775	0.698646	-0.714526	0.036695	0	0	0
14001	0	0	0	0	0	9.697631	1.366616	0.390535	0.000203	0.000757	-0.004632	-0.565918	-0.546143	0.235596	0.322504	0.656069	-0.226327	0.643694	74.439765	-82.136526	59.776014	0.068869	0.118215	0.990597	-0.712159	-0.689535	0.131799	0.698632	-0.714539	0.036700	0	0	0
14002	0	0	0	0	0	9.741152	1.352855	0.420263	-0.001097	-0.001901	-0.000672	-0.564697	-0.541504	0.226563	0.322503	0.656070	-0.226346	0.643686	74.446219	-82.138014	59.767971	0.068873	0.118183	0.990600	-0.712179	-0.689519	0.131778	0.698612	-0.714560	0.036679	0	0	0
14003	0	0	0	0	0	9.725285	1.369130	0.410872	-0.002683	-0.000848	-0.003377	-0.572754	-0.542725	0.224609	0.322515	0.656071	-0.226353	0.643676	74.451016	-82.137531	59.761472	0.068890	0.118183	0.990599	-0.712198	-0.689497	0.131789	0.698590	-0.714582	0.036670	0	0	0
14004	0	0	0	0	0	9.756263	1.359422	0.341047	-0.006255	0.003459	-0.000063	-0.562744	-0.545166	0.225098	0.322535	0.656047	-0.226382	0.643681	74.432410	-82.138530	59.775742	0.068852	0.118185	0.990602	-0.712254	-0.689444	0.131761	0.698537	-0.714632	0.036708	0	0	0
14005	0	0	0	0	0	9.727672	1.353897	0.380503	-0.001688	0.000675	-0.000389	-0.569336	-0.543213	0.229736	0.322546	0.656037	-0.226403	0.643678	74.427303	-82.139469	59.778106	0.068839	0.118174	0.990604	-0.712289	-0.689412	0.131742	0.698502	-0.714665	0.036715	0	0	0
14006	0	0	0	0	0	9.727636	1.354088	0.380742	-0.006651	0.003077	-0.003873	-0.567139	-0.546631	0.220703	0.322579	0.656017	-0.226422	0.643675	74.414241	-82.138424	59.786550	0.068831	0.118200	0.990601	-0.712345	-0.689352	0.131751	0.698446	-0.714719	0.036750	0	0	0
14007	0	0	0	0	0	9.717294	1.317259	0.398684	-0.005664	0.000884	-0.000346	-0.562988	-0.545654	0.228271	0.322602	0.656000	-0.226455	0.643669	74.406019	-82.139352	59.789819	0.068816	0.118190	0.990604	-0.712407	-0.689292	0.131730	0.698384	-0.714778	0.036765	0	0	0
14008	0	0	0	0	0	9.713301	1.351521	0.400743	-0.001688	0.000675	-0.000389	-0.569824	-0.540039	0.227783	0.322606	0.655992	-0.226473	0.643669	74.401517	-82.140599	59.792492	0.068800	0.118174	0.990607	-0.712431	-0.689271	0.131706	0.698361	-0.714801	0.036769	0	0	0
14009	0	0	0	0	0	9.756159	1.359906	0.342085	-0.001089	0.001814	-0.001211	-0.579590	-0.544189	0.225586	0.322612	0.655983	-0.226482	0.643672	74.393715	-82.140913	59.798956	0.068784	0.118177	0.990607	-0.712449	-0.689255	0.131696	0.698345	-0.714816	0.036786	0	0	0
14010	0	0	0	0	0	9.727569	1.354405	0.381335	0.001688	-0.000675	0.000389	-0.568848	-0.542725	0.232666	0.322600	0.655984	-0.226493	0.643673	74.395671	-82.142798	59.797064	0.068771	0.118147	0.990612	-0.712450	-0.689260	0.131666	0.698345	-0.714816	0.036773	0	0	0
14011	0	0	0	0	0	9.729997	1.339016	0.350613	0.001696	0.003041	-0.000150	-0.569824	-0.543945	0.228027	0.322597	0.655973	-0.226496	0.643685	74.383127	-82.143548	59.809721	0.068739	0.118151	0.990614	-0.712452	-0.689262	0.131645	0.698346	-0.714814	0.036798	0	0	0
14012	0	0	0	0	0	9.773538	1.325094	0.380365	0.000094	-0.003337	-0.001777	-0.570313	-0.541748	0.230957	0.322594	0.655983	-0.226510	0.643672	74.397236	-82.144648	59.794639	0.068760	0.118116	0.990616	-0.712462	-0.689253	0.131636	0.698333	-0.714828	0.036760	0	0	0
14013	0	0	0	0	0	9.713252	1.351849	0.400807	0.006263	0.000256	-0.000476	-0.571289	-0.550781	0.236084	0.322571	0.655990	-0.226499	0.643680	74.399094	-82.145629	59.795766	0.068749	0.118103	0.990619	-0.712427	-0.689292	0.131621	0.698370	-0.714793	0.036752	0	0	0
14014	0	0	0	0	0	9.697372	1.368180	0.391485	0.001892	0.000083	-0.004242	-0.575928	-0.546143	0.226318	0.322575	0.655994	-0.226494	0.643676	74.403313	-82.144841	59.791708	0.068764	0.118110	0.990617	-0.712424	-0.689292	0.131637	0.698372	-0.714791	0.036745	0	0	0
14015	0	0	0	0	0	9.753614	1.376098	0.372922	-0.000490	0.002954	-0.002033	-0.573730	-0.544189	0.228027	0.322583	0.655983	-0.226496	0.643682	74.392250	-82.144531	59.801840	0.068746	0.118127	0.990616	-0.712436	-0.689280	0.131635	0.698361	-0.714800	0.036772	0	0	0
14016	0	0	0	0	0	9.699717	1.353327	0.361018	-0.001586	0.001053	-0.002705	-0.566162	-0.548828	0.233643	0.322594	0.655976	-0.226505	0.643680	74.388877	-82.144442	59.803433	0.068744	0.118130	0.990616	-0.712458	-0.689257	0.131634	0.698339	-0.714821	0.036780	0	0	0
14017	0	0	0	0	0	9.741681	1.358340	0.362204	-0.001681	0.004390	-0.000928	-0.571533	-0.541992	0.230225	0.322603	0.655958	-0.226511	0.643692	74.370318	-82.144511	59.820687	0.068708	0.118150	0.990616	-0.712477	-0.689240	0.131621	0.698324	-0.714834	0.036823	0	0	0
14018	0	0	0	0	0	9.715496	1.337583	0.370874	-0.001586	0.001053	-0.002705	-0.567627	-0.539551	0.230469	0.322614	0.655952	-0.226520	0.643689	74.366946	-82.144422	59.822280	0.068705	0.118153	0.990616	-0.712499	-0.689218	0.131621	0.698301	-0.714856	0.036831	0	0	0
14019	0	0	0	0	0	9.715439	1.337952	0.371015	-0.001484	0.001432	-0.005020	-0.573730	-0.550781	0.229492	0.322630	0.655949	-0.226516	0.643686	74.364919	-82.142724	59.823209	0.068718	0.118179	0.990612	-0.712510	-0.689201	0.131647	0.698288	-0.714868	0.036844	0	0	0
14020	0	0	0	0	0	9.728800	1.337556	0.411343	0.006270	0.003972	-0.001014	-0.567871	-0.543457	0.234863	0.322613	0.655944	-0.226501	0.643705	74.352486	-82.143117	59.838493	0.068683	0.118192	0.990613	-0.712479	-0.689237	0.131633	0.698324	-0.714831	0.036870	0	0	0
14021	0	0	0	0	0	9.725634	1.375634	0.353694	0.003683	-0.000213	-0.006168	-0.563232	-0.546387	0.228516	0.322615	0.655956	-0.226478	0.643700	74.361423	-82.141007	59.831352	0.068716	0.118215	0.990608	-0.712453	-0.689255	0.131674	0.698347	-0.714810	0.036860	0	0	0
14022	0	0	0	0	0	9.728695	1.338315	0.411354	0.003479	-0.000970	-0.001537	-0.569824	-0.542969	0.230713	0.322603	0.655963	-0.226478	0.643699	74.367734	-82.141875	59.826099	0.068719	0.118195	0.990610	-0.712440	-0.689270	0.131663	0.698360	-0.714798	0.036841	0	0	0
14023	0	0	0	0	0	9.724662	1.372848	0.413203	0.001893	0.000083	-0.004242	-0.570313	-0.548828	0.221436	0.322606	0.655968	-0.226469	0.643695	74.372153	-82.140771	59.822202	0.068737	0.118207	0.990607	-0.712432	-0.689275	0.131685	0.698366	-0.714792	0.036836	0	0	0
14024	0	0	0	0	0	9.708782	1.389138	0.403907	0.000000	-0.000000	0.000000	-0.572266	-0.546387	0.225342	0.322602	0.655964	-0.226483	0.643696	74.370875	-82.142337	59.822598	0.068723	0.118184	0.990611	-0.712445	-0.689267	0.131658	0.698355	-0.714803	0.036832	0	0	0
14025	0	0	0	0	0	9.727060	1.357757	0.382393	-0.002185	-0.000087	-0.001883	-0.569580	-0.544678	0.229980	0.322622	0.655956	-0.226507	0.643686	74.369755	-82.142561	59.819876	0.068726	0.118178	0.990611	-0.712491	-0.689219	0.131653	0.698307	-0.714850	0.036833	0	0	0
14026	0	0	0	0	0	9.715184	1.339787	0.371071	-0.001593	-0.002663	-0.002166	-0.575195	-0.541260	0.223877	0.322627	0.655961	-0.226524	0.643672	74.380633	-82.143343	59.807079	0.068746	0.118151	0.990613	-0.712514	-0.689198	0.131647	0.698282	-0.714876	0.036805	0	0	0
14027	0	0	0	0	0	9.749291	1.292512	0.358824	-0.000987	0.002193	-0.003526	-0.572510	-0.541260	0.225342	0.322645	0.655951	-0.226528	0.643672	74.373476	-82.142350	59.812310	0.068744	0.118172	0.990611	-0.712537	-0.689171	0.131659	0.698259	-0.714897	0.036826	0	0	0
14028	0	0	0	0	0	9.717540	1.325009	0.340306	0.001294	-0.001057	-0.003420	-0.568115	-0.538818	0.222900	0.322646	0.655957	-0.226529	0.643665	74.380990	-82.142192	59.804579	0.068761	0.118165	0.990610	-0.712538	-0.689169	0.131667	0.698256	-0.714901	0.036809	0	0	0
14029	0	0	0	0	0	9.754604	1.361019	0.402763	0.001893	0.000083	-0.004241	-0.577393	-0.540283	0.235596	0.322656	0.655959	-0.226527	0.643658	74.384441	-82.141135	59.800367	0.068779	0.118176	0.990608	-0.712545	-0.689157	0.131686	0.698247	-0.714910	0.036806	0	0	0
14030	0	0	0	0	0	9.728374	1.340724	0.411109	-0.005261	-0.001319	-0.009069	-0.561768	-0.548096	0.227539	0.322697	0.655962	-0.226531	0.643634	74.395552	-82.137899	59.785213	0.068838	0.118206	0.990600	-0.712589	-0.689101	0.131747	0.698197	-0.714960	0.036796	0	0	0
14031	0	0	0	0	0	9.714874	1.342086	0.370890	0.000797	-0.001818	-0.004913	-0.568359	-0.546875	0.221191	0.322701	0.655973	-0.226524	0.643623	74.407875	-82.136741	59.773141	0.068873	0.118209	0.990597	-0.712582	-0.689102	0.131775	0.698200	-0.714958	0.036773	0	0	0
14032	0	0	0	0	0	9.766203	1.381067	0.413640	-0.001388	-0.001906	-0.006796	-0.566406	-0.550293	0.229248	0.322721	0.655981	-0.226524	0.643605	74.421000	-82.134849	59.758195	0.068921	0.118219	0.990593	-0.712600	-0.689076	0.131815	0.698177	-0.714981	0.036751	0	0	0
14033	0	0	0	0	0	9.708282	1.392779	0.403394	-0.004370	-0.000175	-0.003766	-0.569336	-0.543945	0.225098	0.322751	0.655973	-0.226544	0.643591	74.421582	-82.134021	59.753172	0.068938	0.118225	0.990591	-0.712652	-0.689020	0.131829	0.698122	-0.715035	0.036754	0	0	0
14034	0	0	0	0	0	9.724096	1.377011	0.412670	-0.004969	-0.001315	-0.002944	-0.566406	-0.543945	0.222900	0.322771	0.655969	-0.226567	0.643576	74.425999	-82.134164	59.744945	0.068954	0.118213	0.990591	-0.712698	-0.688973	0.131829	0.698074	-0.715082	0.036743	0	0	0
14035	0	0	0	0	0	9.698804	1.359791	0.361254	-0.003280	-0.001989	-0.002555	-0.575684	-0.536621	0.227051	0.322791	0.655968	-0.226591	0.643560	74.432947	-82.134316	59.734105	0.068975	0.118198	0.990592	-0.712743	-0.688925	0.131831	0.698025	-0.715131	0.036726	0	0	0
14036	0	0	0	0	0	9.726489	1.362084	0.381514	0.000096	-0.003337	-0.001777	-0.567627	-0.542969	0.219482	0.322788	0.655977	-0.226605	0.643546	74.447046	-82.135414	59.719034	0.068996	0.118163	0.990594	-0.712754	-0.688915	0.131822	0.698012	-0.715145	0.036689	0	0	0
14037	0	0	0	0	0	9.728913	1.346917	0.350425	0.000695	-0.002197	-0.002598	-0.569824	-0.544678	0.230225	0.322796	0.655982	-0.226617	0.643533	74.456891	-82.135624	59.707456	0.069018	0.118146	0.990595	-0.712774	-0.688895	0.131825	0.697990	-0.715168	0.036665	0	0	0
14038	0	0	0	0	0	9.770886	1.351998	0.351140	0.003479	-0.000969	-0.001537	-0.574707	-0.543945	0.225342	0.322784	0.655989	-0.226617	0.643532	74.463203	-82.136490	59.702202	0.069022	0.118127	0.990597	-0.712761	-0.688910	0.131814	0.698003	-0.715157	0.036647	0	0	0
14039	0	0	0	0	0	9.732888	1.313040	0.348205	-0.000497	-0.000761	-0.001494	-0.567139	-0.541748	0.226563	0.322789	0.655988	-0.226630	0.643526	74.466048	-82.137067	59.697866	0.069026	0.118113	0.990598	-0.712779	-0.688893	0.131807	0.697984	-0.715176	0.036637	0	0	0
14040	0	0	0	0	0	9.727969	1.344061	0.409784	-0.000394	-0.000383	-0.003809	-0.566406	-0.546387	0.233887	0.322798	0.655989	-0.226634	0.643519	74.470323	-82.136589	59.692428	0.069041	0.118114	0.990597	-0.712792	-0.688877	0.131817	0.697969	-0.715190	0.036630	0	0	0
14041	0	0	0	0	0	9.751647	1.380518	0.432101	0.001089	-0.001814	0.001211	-0.572021	-0.541504	0.224854	0.322782	0.655994	-0.226646	0.643518	74.475985	-82.138791	59.687169	0.069033	0.118075	0.990602	-0.712789	-0.688887	0.131784	0.697973	-0.715187	0.036606	0	0	0
14042	0	0	0	0	0	9.742239	1.347058	0.389909	-0.000993	-0.001523	-0.002987	-0.569336	-0.553467	0.226563	0.322789	0.655997	-0.226657	0.643507	74.483564	-82.138941	59.678049	0.069050	0.118061	0.990603	-0.712806	-0.688868	0.131787	0.697954	-0.715208	0.036588	0	0	0
14043	0	0	0	0	0	9.738209	1.381424	0.391731	0.001688	-0.000674	0.000389	-0.577148	-0.549561	0.226807	0.322784	0.655996	-0.226672	0.643505	74.484925	-82.140509	59.675780	0.069041	0.118035	0.990606	-0.712819	-0.688860	0.131761	0.697942	-0.715220	0.036578	0	0	0
14044	0	0	0	0	0	9.711346	1.383003	0.311397	-0.001490	-0.002284	-0.004480	-0.563721	-0.538330	0.225342	0.322797	0.656003	-0.226680	0.643489	74.496923	-82.139951	59.661912	0.069075	0.118027	0.990605	-0.712839	-0.688836	0.131778	0.697918	-0.715244	0.036553	0	0	0
14045	0	0	0	0	0	9.706431	1.413998	0.372970	-0.001688	0.000674	-0.000389	-0.572998	-0.547119	0.224609	0.322805	0.655993	-0.226700	0.643488	74.491955	-82.140906	59.664457	0.069061	0.118016	0.990607	-0.712870	-0.688808	0.131759	0.697888	-0.715273	0.036560	0	0	0
14046	0	0	0	0	0	9.703996	1.429328	0.403772	-0.002886	-0.001606	0.001254	-0.564209	-0.543457	0.231934	0.322805	0.655989	-0.226730	0.643482	74.494080	-82.143410	59.659748	0.069049	0.117973	0.990613	-0.712903	-0.688781	0.131719	0.697855	-0.715306	0.036544	0	0	0
14047	0	0	0	0	0	9.754042	1.365618	0.400804	-0.010238	-0.000052	0.000520	-0.572510	-0.548584	0.232666	0.322834	0.655969	-0.226778	0.643471	74.486563	-82.144959	59.660550	0.069034	0.117950	0.990617	-0.712987	-0.688700	0.131688	0.697771	-0.715388	0.036554	0	0	0
14048	0	0	0	0	0	9.727929	1.344559	0.409104	-0.006268	-0.003974	0.001015	-0.571045	-0.550537	0.225342	0.322843	0.655967	-0.226822	0.643453	74.496495	-82.147694	59.646003	0.069040	0.117892	0.990624	-0.713044	-0.688649	0.131649	0.697712	-0.715447	0.036518	0	0	0
14049	0	0	0	0	0	9.746253	1.313017	0.387346	-0.009644	-0.002627	0.000238	-0.574951	-0.544922	0.223633	0.322870	0.655956	-0.226873	0.643433	74.499835	-82.149471	59.635901	0.069045	0.117853	0.990628	-0.713127	-0.688568	0.131621	0.697627	-0.715531	0.036502	0	0	0
14050	0	0	0	0	0	9.734406	1.294857	0.376150	-0.003376	0.001348	-0.000777	-0.572266	-0.544922	0.232910	0.322881	0.655943	-0.226893	0.643433	74.492111	-82.150401	59.640850	0.069027	0.117845	0.990630	-0.713162	-0.688535	0.131601	0.697592	-0.715564	0.036516	0	0	0
14051	0	0	0	0	0	9.720968	1.295624	0.336231	-0.003376	0.001348	-0.000777	-0.569580	-0.540039	0.227051	0.322894	0.655930	-0.226914	0.643432	74.484096	-82.151054	59.645881	0.069011	0.117842	0.990632	-0.713200	-0.688499	0.131585	0.697555	-0.715600	0.036531	0	0	0
14052	0	0	0	0	0	9.732783	1.313972	0.347608	0.000701	0.001519	-0.003137	-0.568604	-0.542725	0.234863	0.322900	0.655927	-0.226914	0.643433	74.480642	-82.150655	59.648878	0.069008	0.117851	0.990631	-0.713206	-0.688492	0.131590	0.697549	-0.715604	0.036541	0	0	0
14053	0	0	0	0	0	9.758860	1.335274	0.339419	0.001300	0.002660	-0.003958	-0.564209	-0.546387	0.233887	0.322902	0.655924	-0.226899	0.643440	74.474362	-82.149352	59.656165	0.069004	0.117880	0.990627	-0.713193	-0.688502	0.131607	0.697563	-0.715590	0.036561	0	0	0
14054	0	0	0	0	0	9.742071	1.348259	0.389951	0.001893	0.000084	-0.004241	-0.573242	-0.547607	0.229492	0.322906	0.655928	-0.226894	0.643436	74.478566	-82.148563	59.652122	0.069020	0.117886	0.990626	-0.713190	-0.688502	0.131623	0.697565	-0.715589	0.036555	0	0	0
14055	0	0	0	0	0	9.723715	1.379970	0.411757	-0.003370	0.005063	-0.001315	-0.560791	-0.539795	0.230225	0.322919	0.655907	-0.226900	0.643449	74.457120	-82.148307	59.671825	0.068981	0.117914	0.990625	-0.713214	-0.688479	0.131614	0.697544	-0.715606	0.036606	0	0	0
14056	0	0	0	0	0	9.737963	1.382908	0.392612	-0.004465	0.003161	-0.001987	-0.561279	-0.543213	0.228760	0.322940	0.655888	-0.226917	0.643451	74.442857	-82.148290	59.682745	0.068959	0.117927	0.990625	-0.713256	-0.688437	0.131605	0.697503	-0.715645	0.036639	0	0	0
14057	0	0	0	0	0	9.728513	1.349666	0.350956	-0.004363	0.003540	-0.004302	-0.573242	-0.549561	0.229980	0.322963	0.655874	-0.226917	0.643453	74.430424	-82.146607	59.693060	0.068952	0.117965	0.990621	-0.713282	-0.688407	0.131625	0.697477	-0.715668	0.036675	0	0	0
14058	0	0	0	0	0	9.758608	1.336705	0.341026	-0.002178	0.003628	-0.002420	-0.571777	-0.541748	0.218994	0.322978	0.655858	-0.226925	0.643459	74.416090	-82.146278	59.705375	0.068930	0.117985	0.990620	-0.713308	-0.688381	0.131621	0.697453	-0.715690	0.036709	0	0	0
14059	0	0	0	0	0	9.718130	1.313259	0.369480	-0.000981	0.005909	-0.004062	-0.560791	-0.547363	0.224365	0.323005	0.655836	-0.226925	0.643468	74.394281	-82.144400	59.724669	0.068906	0.118036	0.990616	-0.713339	-0.688345	0.131638	0.697423	-0.715716	0.036768	0	0	0
14060	0	0	0	0	0	9.758471	1.337434	0.342109	0.001307	0.006375	-0.004495	-0.569092	-0.539551	0.238770	0.323019	0.655819	-0.226911	0.643484	74.373282	-82.142501	59.745728	0.068880	0.118090	0.990611	-0.713340	-0.688341	0.131657	0.697425	-0.715711	0.036825	0	0	0
14061	0	0	0	0	0	9.742529	1.353892	0.333515	0.000115	0.007810	-0.003390	-0.570068	-0.542969	0.231445	0.323028	0.655798	-0.226891	0.643508	74.345491	-82.140675	59.774402	0.068836	0.118151	0.990607	-0.713331	-0.688347	0.131669	0.697438	-0.715695	0.036898	0	0	0
14062	0	0	0	0	0	9.717920	1.314263	0.371451	0.001700	0.006757	-0.000686	-0.572754	-0.542725	0.227539	0.323028	0.655777	-0.226888	0.643531	74.318941	-82.140816	59.801292	0.068780	0.118182	0.990607	-0.713332	-0.688350	0.131650	0.697443	-0.715686	0.036958	0	0	0
14063	0	0	0	0	0	9.725656	1.366971	0.385259	0.005881	0.007309	-0.005359	-0.566650	-0.546143	0.223389	0.323029	0.655766	-0.226850	0.643554	74.297948	-82.138023	59.825467	0.068754	0.118252	0.990600	-0.713294	-0.688384	0.131683	0.697485	-0.715643	0.037019	0	0	0
14064	0	0	0	0	0	9.695418	1.380664	0.396045	0.004084	0.003888	-0.002895	-0.566406	-0.551758	0.227295	0.323025	0.655760	-0.226835	0.643567	74.286716	-82.137388	59.838273	0.068733	0.118277	0.990599	-0.713276	-0.688401	0.131686	0.697505	-0.715621	0.037048	0	0	0
14065	0	0	0	0	0	9.735781	1.404777	0.368331	0.005277	0.002453	-0.004000	-0.569336	-0.550049	0.227051	0.323026	0.655760	-0.226818	0.643573	74.282768	-82.136012	59.843599	0.068734	0.118304	0.990596	-0.713258	-0.688416	0.131706	0.697523	-0.715603	0.037064	0	0	0
14066	0	0	0	0	0	9.741337	1.351934	0.395535	0.002293	0.004182	-0.000970	-0.572998	-0.545166	0.233154	0.323022	0.655748	-0.226816	0.643588	74.267173	-82.136393	59.859773	0.068697	0.118318	0.990597	-0.713254	-0.688423	0.131690	0.697531	-0.715594	0.037098	0	0	0
14067	0	0	0	0	0	9.725438	1.368161	0.386548	0.003486	0.002748	-0.002074	-0.568604	-0.541260	0.225586	0.323016	0.655745	-0.226804	0.643599	74.259427	-82.136080	59.869072	0.068681	0.118334	0.990596	-0.713236	-0.688441	0.131690	0.697551	-0.715574	0.037117	0	0	0
14068	0	0	0	0	0	9.725414	1.368274	0.386739	-0.005663	0.000880	-0.000346	-0.570313	-0.542480	0.236328	0.323032	0.655730	-0.226835	0.643595	74.251758	-82.137317	59.872643	0.068663	0.118319	0.990599	-0.713288	-0.688393	0.131664	0.697499	-0.715623	0.037129	0	0	0
14069	0	0	0	0	0	9.729417	1.334255	0.384870	0.001895	0.000085	-0.004240	-0.564209	-0.547363	0.226318	0.323031	0.655737	-0.226821	0.643593	74.256497	-82.136256	59.869188	0.068679	0.118331	0.990596	-0.713271	-0.688407	0.131685	0.697515	-0.715607	0.037123	0	0	0
14070	0	0	0	0	0	9.729377	1.334531	0.384920	0.002886	0.001607	-0.001253	-0.571533	-0.544922	0.226563	0.323023	0.655734	-0.226820	0.643600	74.251842	-82.136881	59.874663	0.068662	0.118328	0.990598	-0.713262	-0.688418	0.131672	0.697526	-0.715597	0.037131	0	0	0
14071	0	0	0	0	0	9.727771	1.353639	0.356179	0.002990	0.001986	-0.003567	-0.571533	-0.552002	0.228027	0.323027	0.655732	-0.226810	0.643604	74.248103	-82.135846	59.878871	0.068663	0.118349	0.990595	-0.713256	-0.688422	0.131687	0.697532	-0.715590	0.037144	0	0	0
14072	0	0	0	0	0	9.713415	1.351261	0.375752	0.000800	-0.001817	-0.004912	-0.570313	-0.544922	0.227539	0.323034	0.655742	-0.226809	0.643591	74.260044	-82.134984	59.866384	0.068696	0.118347	0.990593	-0.713260	-0.688413	0.131709	0.697525	-0.715598	0.037121	0	0	0
14073	0	0	0	0	0	9.710894	1.366972	0.406622	-0.000490	0.002954	-0.002031	-0.567627	-0.544189	0.229248	0.323045	0.655730	-0.226814	0.643596	74.248745	-82.134652	59.876246	0.068679	0.118364	0.990592	-0.713279	-0.688394	0.131707	0.697508	-0.715614	0.037148	0	0	0
14074	0	0	0	0	0	9.725147	1.370052	0.387162	-0.000392	-0.000383	-0.003808	-0.570068	-0.543701	0.231201	0.323054	0.655731	-0.226818	0.643589	74.253032	-82.134176	59.870797	0.068694	0.118364	0.990591	-0.713291	-0.688379	0.131718	0.697493	-0.715628	0.037141	0	0	0
14075	0	0	0	0	0	9.710793	1.367678	0.406643	0.000801	-0.001817	-0.004912	-0.575195	-0.542725	0.225586	0.323058	0.655742	-0.226811	0.643578	74.265381	-82.133020	59.858724	0.068729	0.118367	0.990589	-0.713285	-0.688381	0.131745	0.697496	-0.715626	0.037118	0	0	0
14076	0	0	0	0	0	9.740917	1.354793	0.396097	0.004672	-0.002402	-0.002640	-0.572021	-0.543457	0.222412	0.323044	0.655757	-0.226806	0.643571	74.279316	-82.133502	59.846466	0.068750	0.118345	0.990590	-0.713263	-0.688403	0.131746	0.697517	-0.715608	0.037083	0	0	0
14077	0	0	0	0	0	9.710736	1.368224	0.406167	-0.001095	-0.001902	-0.000672	-0.570313	-0.545654	0.229980	0.323053	0.655756	-0.226831	0.643560	74.284730	-82.134727	59.838153	0.068757	0.118317	0.990593	-0.713298	-0.688370	0.131729	0.697480	-0.715645	0.037065	0	0	0
14078	0	0	0	0	0	9.752700	1.373390	0.406864	0.002489	-0.002490	-0.004523	-0.569092	-0.547119	0.233398	0.323052	0.655769	-0.226826	0.643548	74.299883	-82.134183	59.823401	0.068792	0.118307	0.990591	-0.713290	-0.688374	0.131748	0.697484	-0.715642	0.037033	0	0	0
14079	0	0	0	0	0	9.681431	1.385368	0.356316	-0.001198	-0.002281	0.001642	-0.568604	-0.537842	0.228516	0.323040	0.655772	-0.226846	0.643544	74.305757	-82.136701	59.816914	0.068783	0.118262	0.990597	-0.713300	-0.688372	0.131710	0.697476	-0.715652	0.037008	0	0	0
14080	0	0	0	0	0	9.743351	1.339965	0.364309	-0.002189	-0.003804	-0.001345	-0.570557	-0.545410	0.234619	0.323043	0.655779	-0.226870	0.643527	74.319916	-82.138113	59.800460	0.068805	0.118221	0.990601	-0.713327	-0.688347	0.131695	0.697446	-0.715683	0.036968	0	0	0
14081	0	0	0	0	0	9.733092	1.303105	0.381637	0.002385	-0.002869	-0.002209	-0.572754	-0.551758	0.226563	0.323029	0.655794	-0.226865	0.643520	74.334557	-82.138633	59.787493	0.068827	0.118198	0.990602	-0.713305	-0.688369	0.131696	0.697466	-0.715665	0.036932	0	0	0
14082	0	0	0	0	0	9.724992	1.371709	0.385191	0.004569	-0.002781	-0.000326	-0.567383	-0.540771	0.225342	0.323007	0.655807	-0.226869	0.643516	74.347368	-82.140448	59.776310	0.068834	0.118157	0.990606	-0.713285	-0.688394	0.131674	0.697485	-0.715649	0.036894	0	0	0
14083	0	0	0	0	0	9.729041	1.337531	0.383003	-0.001095	-0.001902	-0.000672	-0.575684	-0.539307	0.232178	0.323013	0.655807	-0.226890	0.643506	74.353300	-82.141624	59.768014	0.068841	0.118130	0.990609	-0.713314	-0.688367	0.131658	0.697455	-0.715679	0.036875	0	0	0
14084	0	0	0	0	0	9.739283	1.374695	0.364968	0.000692	-0.005912	-0.002060	-0.568848	-0.541260	0.226807	0.323007	0.655826	-0.226905	0.643485	74.378355	-82.142965	59.742227	0.068883	0.118078	0.990612	-0.713321	-0.688361	0.131652	0.697445	-0.715693	0.036812	0	0	0
14085	0	0	0	0	0	9.744915	1.321704	0.391444	0.002282	-0.003248	0.000106	-0.576660	-0.543701	0.229492	0.322989	0.655838	-0.226914	0.643478	74.391328	-82.144845	59.730135	0.068891	0.118036	0.990617	-0.713310	-0.688377	0.131629	0.697454	-0.715685	0.036773	0	0	0
14086	0	0	0	0	0	9.744901	1.321944	0.391004	0.003083	-0.005065	-0.004806	-0.569336	-0.552002	0.228516	0.322984	0.655861	-0.226911	0.643458	74.417449	-82.144538	59.704655	0.068946	0.118010	0.990616	-0.713298	-0.688385	0.131651	0.697461	-0.715681	0.036714	0	0	0
14087	0	0	0	0	0	9.713144	1.354268	0.371908	0.005659	-0.004594	0.000884	-0.566650	-0.542725	0.227295	0.322957	0.655881	-0.226917	0.643451	74.436638	-82.146997	59.687469	0.068960	0.117952	0.990622	-0.713274	-0.688416	0.131622	0.697485	-0.715661	0.036659	0	0	0
14088	0	0	0	0	0	9.757593	1.343996	0.341425	0.004771	-0.005739	-0.004417	-0.568848	-0.551514	0.227295	0.322944	0.655908	-0.226911	0.643430	74.465993	-82.147005	59.659702	0.069018	0.117919	0.990622	-0.713250	-0.688437	0.131641	0.697503	-0.715647	0.036591	0	0	0
14089	0	0	0	0	0	9.727410	1.357543	0.351138	0.007451	-0.004888	-0.001041	-0.568848	-0.547852	0.230225	0.322917	0.655933	-0.226906	0.643420	74.489564	-82.148410	59.638991	0.069048	0.117873	0.990625	-0.713214	-0.688476	0.131633	0.697538	-0.715616	0.036531	0	0	0
14090	0	0	0	0	0	9.736778	1.391223	0.392624	0.003476	-0.004683	-0.000998	-0.565430	-0.548096	0.231445	0.322900	0.655952	-0.226914	0.643408	74.510159	-82.150141	59.619317	0.069073	0.117823	0.990629	-0.713201	-0.688492	0.131617	0.697548	-0.715609	0.036475	0	0	0
14091	0	0	0	0	0	9.752656	1.375304	0.401411	0.005763	-0.004215	-0.001430	-0.572266	-0.542480	0.232178	0.322874	0.655975	-0.226906	0.643400	74.531194	-82.151220	59.601247	0.069101	0.117786	0.990632	-0.713163	-0.688532	0.131612	0.697584	-0.715577	0.036422	0	0	0
14092	0	0	0	0	0	9.714716	1.336273	0.398222	0.002882	-0.002108	-0.000715	-0.560059	-0.545410	0.232178	0.322861	0.655983	-0.226912	0.643395	74.540834	-82.152712	59.592288	0.069106	0.117752	0.990635	-0.713156	-0.688544	0.131594	0.697591	-0.715571	0.036393	0	0	0
14093	0	0	0	0	0	9.727414	1.357953	0.349442	0.002283	-0.003248	0.000107	-0.566406	-0.544189	0.223877	0.322838	0.655998	-0.226915	0.643391	74.554652	-82.154518	59.580242	0.069115	0.117711	0.990640	-0.713134	-0.688570	0.131572	0.697612	-0.715553	0.036353	0	0	0
14094	0	0	0	0	0	9.729011	1.339140	0.378124	0.006263	0.000262	-0.000476	-0.577393	-0.543701	0.231689	0.322815	0.656004	-0.226908	0.643399	74.556475	-82.155780	59.581131	0.069102	0.117693	0.990643	-0.713103	-0.688606	0.131552	0.697646	-0.715521	0.036343	0	0	0
14095	0	0	0	0	0	9.757570	1.344854	0.338692	0.004075	-0.003542	-0.001818	-0.581055	-0.542480	0.220947	0.322803	0.656020	-0.226909	0.643388	74.573392	-82.156603	59.565139	0.069128	0.117662	0.990645	-0.713090	-0.688620	0.131549	0.697656	-0.715513	0.036300	0	0	0
14096	0	0	0	0	0	9.740810	1.357656	0.388839	0.005768	-0.000500	-0.001968	-0.565674	-0.545410	0.230713	0.322786	0.656029	-0.226900	0.643390	74.579641	-82.157157	59.561273	0.069131	0.117649	0.990646	-0.713061	-0.688651	0.131544	0.697685	-0.715485	0.036284	0	0	0
14097	0	0	0	0	0	9.731417	1.324294	0.346699	0.005768	-0.000500	-0.001968	-0.568359	-0.545166	0.229004	0.322777	0.656036	-0.226895	0.643390	74.585013	-82.157440	59.557162	0.069137	0.117640	0.990647	-0.713045	-0.688668	0.131543	0.697701	-0.715470	0.036270	0	0	0
14098	0	0	0	0	0	9.742345	1.339332	0.417485	0.003584	-0.000589	-0.003850	-0.571533	-0.551025	0.228516	0.322773	0.656045	-0.226887	0.643386	74.592450	-82.156968	59.550834	0.069154	0.117639	0.990646	-0.713030	-0.688681	0.131555	0.697715	-0.715458	0.036255	0	0	0
14099	0	0	0	0	0	9.755838	1.364864	0.308983	0.005372	-0.004599	-0.005236	-0.577148	-0.554199	0.229248	0.322766	0.656070	-0.226874	0.643368	74.618389	-82.156013	59.526622	0.069212	0.117624	0.990643	-0.713004	-0.688701	0.131588	0.697735	-0.715440	0.036200	0	0	0
14100	0	0	0	0	0	9.716987	1.322810	0.365457	0.011041	-0.001762	-0.005429	-0.562256	-0.544434	0.232422	0.322741	0.656097	-0.226838	0.643366	74.636537	-82.154846	59.513795	0.069249	0.117626	0.990641	-0.712936	-0.688766	0.131619	0.697801	-0.715378	0.036164	0	0	0
14101	0	0	0	0	0	9.742183	1.340814	0.416496	0.005273	-0.001262	-0.003461	-0.559082	-0.537354	0.230225	0.322729	0.656111	-0.226822	0.643363	74.647465	-82.154355	59.505249	0.069271	0.117623	0.990639	-0.712905	-0.688795	0.131634	0.697831	-0.715350	0.036141	0	0	0
14102	0	0	0	0	0	9.708777	1.392049	0.368869	0.008057	-0.000032	-0.002400	-0.568115	-0.538818	0.221436	0.322706	0.656123	-0.226803	0.643369	74.653629	-82.154598	59.502793	0.069274	0.117616	0.990640	-0.712860	-0.688842	0.131633	0.697877	-0.715306	0.036125	0	0	0
14103	0	0	0	0	0	9.740499	1.360311	0.387347	0.005872	-0.000122	-0.004282	-0.574463	-0.543945	0.237793	0.322698	0.656134	-0.226784	0.643368	74.660789	-82.153524	59.498027	0.069293	0.117627	0.990637	-0.712829	-0.688870	0.131656	0.697907	-0.715278	0.036114	0	0	0
14104	0	0	0	0	0	9.731075	1.327179	0.345265	0.008160	0.000346	-0.004714	-0.566895	-0.538818	0.232666	0.322683	0.656148	-0.226756	0.643372	74.668041	-82.152431	59.494531	0.069310	0.117639	0.990635	-0.712781	-0.688915	0.131679	0.697954	-0.715232	0.036102	0	0	0
14105	0	0	0	0	0	9.700848	1.340907	0.355457	0.009850	-0.000327	-0.004324	-0.570801	-0.542480	0.233398	0.322649	0.656172	-0.226711	0.643380	74.679652	-82.151401	59.489839	0.069328	0.117648	0.990632	-0.712695	-0.688999	0.131703	0.698040	-0.715149	0.036080	0	0	0
14106	0	0	0	0	0	9.730935	1.328258	0.345053	0.010552	0.001191	-0.007460	-0.576172	-0.542969	0.228516	0.322635	0.656190	-0.226666	0.643384	74.687899	-82.148663	59.486723	0.069359	0.117685	0.990626	-0.712629	-0.689058	0.131754	0.698104	-0.715087	0.036074	0	0	0
14107	0	0	0	0	0	9.742647	1.347233	0.356264	0.008863	0.001863	-0.007849	-0.572510	-0.552734	0.233398	0.322628	0.656205	-0.226619	0.643389	74.692934	-82.145357	59.486309	0.069389	0.117734	0.990618	-0.712568	-0.689109	0.131812	0.698163	-0.715029	0.036077	0	0	0
14108	0	0	0	0	0	9.730719	1.329770	0.345307	0.011052	0.005668	-0.006508	-0.569092	-0.542480	0.234375	0.322615	0.656209	-0.226568	0.643410	74.682485	-82.142468	59.502355	0.069381	0.117796	0.990611	-0.712499	-0.689173	0.131854	0.698234	-0.714958	0.036114	0	0	0
14109	0	0	0	0	0	9.756733	1.351298	0.337141	0.009256	0.002248	-0.004042	-0.567139	-0.549316	0.228271	0.322591	0.656221	-0.226527	0.643424	74.682715	-82.141149	59.507803	0.069381	0.117823	0.990608	-0.712430	-0.689241	0.131876	0.698305	-0.714888	0.036120	0	0	0
14110	0	0	0	0	0	9.739160	1.386647	0.299126	0.010454	0.004528	-0.005685	-0.573242	-0.543457	0.228760	0.322576	0.656226	-0.226482	0.643442	74.675596	-82.138887	59.520141	0.069376	0.117871	0.990603	-0.712365	-0.689301	0.131909	0.698372	-0.714822	0.036147	0	0	0
14111	0	0	0	0	0	9.726387	1.365664	0.347980	0.008765	0.005200	-0.006075	-0.571045	-0.547363	0.224121	0.322573	0.656226	-0.226441	0.643459	74.664945	-82.135997	59.534615	0.069371	0.117932	0.990596	-0.712318	-0.689342	0.131951	0.698421	-0.714772	0.036184	0	0	0
14112	0	0	0	0	0	9.728772	1.350768	0.317568	0.010950	0.005291	-0.004192	-0.570313	-0.544189	0.225586	0.322552	0.656228	-0.226398	0.643482	74.653433	-82.134443	59.551676	0.069350	0.117976	0.990592	-0.712251	-0.689408	0.131969	0.698491	-0.714702	0.036218	0	0	0
14113	0	0	0	0	0	9.753918	1.368881	0.369138	0.012145	0.003856	-0.005293	-0.573975	-0.542725	0.233643	0.322541	0.656233	-0.226358	0.643496	74.648506	-82.132192	59.561129	0.069350	0.118021	0.990587	-0.712194	-0.689459	0.132004	0.698548	-0.714645	0.036240	0	0	0
14114	0	0	0	0	0	9.740419	1.369999	0.329334	0.013240	0.005759	-0.004622	-0.570557	-0.543213	0.229004	0.322515	0.656238	-0.226305	0.643523	74.636919	-82.130329	59.579590	0.069328	0.118071	0.990582	-0.712111	-0.689540	0.132028	0.698635	-0.714558	0.036275	0	0	0
14115	0	0	0	0	0	9.753744	1.369927	0.369858	0.011551	0.006431	-0.005012	-0.567627	-0.545654	0.232910	0.322494	0.656240	-0.226251	0.643551	74.622281	-82.127886	59.600727	0.069306	0.118133	0.990576	-0.712033	-0.689616	0.132059	0.698717	-0.714475	0.036320	0	0	0
14116	0	0	0	0	0	9.741838	1.352317	0.359114	0.011057	0.005667	-0.006504	-0.569580	-0.549561	0.225586	0.322481	0.656243	-0.226200	0.643572	74.611896	-82.124996	59.616712	0.069298	0.118195	0.990569	-0.711964	-0.689679	0.132101	0.698789	-0.714404	0.036357	0	0	0
14117	0	0	0	0	0	9.715634	1.332001	0.368033	0.014441	0.008039	-0.006264	-0.569092	-0.548584	0.230469	0.322462	0.656244	-0.226134	0.643604	74.593665	-82.121545	59.642374	0.069276	0.118278	0.990561	-0.711873	-0.689764	0.132147	0.698883	-0.714308	0.036415	0	0	0
14118	0	0	0	0	0	9.735074	1.403055	0.392773	0.009655	0.006351	-0.000773	-0.571045	-0.551270	0.229492	0.322436	0.656237	-0.226104	0.643635	74.573463	-82.121715	59.667459	0.069222	0.118306	0.990561	-0.711818	-0.689824	0.132131	0.698945	-0.714246	0.036461	0	0	0
14119	0	0	0	0	0	9.737506	1.387905	0.362373	0.005881	0.003591	-0.004819	-0.572266	-0.543213	0.230225	0.322435	0.656236	-0.226078	0.643645	74.566514	-82.119729	59.676729	0.069221	0.118346	0.990557	-0.711788	-0.689849	0.132160	0.698975	-0.714215	0.036486	0	0	0
14120	0	0	0	0	0	9.713818	1.351982	0.340473	0.005885	0.007306	-0.005361	-0.567383	-0.536621	0.227783	0.322437	0.656225	-0.226044	0.643667	74.545409	-82.117218	59.700545	0.069193	0.118413	0.990551	-0.711756	-0.689876	0.132188	0.699010	-0.714177	0.036546	0	0	0
14121	0	0	0	0	0	9.739820	1.373445	0.332676	0.010359	0.007866	-0.003908	-0.568604	-0.543701	0.233643	0.322421	0.656217	-0.225998	0.643699	74.522942	-82.115166	59.728510	0.069153	0.118477	0.990546	-0.711691	-0.689940	0.132208	0.699080	-0.714105	0.036607	0	0	0
14122	0	0	0	0	0	9.721361	1.405265	0.354677	0.007471	0.006259	-0.002655	-0.568604	-0.539063	0.232422	0.322408	0.656209	-0.225969	0.643724	74.503956	-82.114306	59.751104	0.069114	0.118517	0.990544	-0.711650	-0.689982	0.132210	0.699126	-0.714058	0.036655	0	0	0
14123	0	0	0	0	0	9.737173	1.389629	0.364702	0.003001	0.009412	-0.004651	-0.569092	-0.545898	0.229980	0.322413	0.656189	-0.225934	0.643755	74.472834	-82.111586	59.784865	0.069068	0.118599	0.990537	-0.711620	-0.690008	0.132235	0.699161	-0.714019	0.036740	0	0	0
14124	0	0	0	0	0	9.750472	1.389470	0.405664	-0.003868	0.008007	-0.003361	-0.565186	-0.542725	0.227295	0.322441	0.656157	-0.225937	0.643771	74.441184	-82.110065	59.813686	0.069021	0.118656	0.990534	-0.711657	-0.689968	0.132240	0.699128	-0.714048	0.036820	0	0	0
14125	0	0	0	0	0	9.692543	1.400689	0.396086	-0.005666	0.004589	-0.000896	-0.572998	-0.543945	0.223633	0.322466	0.656131	-0.225958	0.643779	74.419360	-82.110111	59.831481	0.068984	0.118677	0.990534	-0.711709	-0.689918	0.132226	0.699079	-0.714093	0.036870	0	0	0
14126	0	0	0	0	0	9.698192	1.347761	0.423919	-0.009641	0.008506	-0.001399	-0.576660	-0.548828	0.232422	0.322507	0.656086	-0.225986	0.643794	74.380250	-82.109592	59.864494	0.068920	0.118724	0.990532	-0.711788	-0.689839	0.132209	0.699005	-0.714161	0.036963	0	0	0
14127	0	0	0	0	0	9.770303	1.339705	0.415392	-0.007250	0.005636	-0.003600	-0.559814	-0.544922	0.233887	0.322552	0.656055	-0.226006	0.643796	74.355709	-82.108020	59.883236	0.068895	0.118770	0.990529	-0.711860	-0.689763	0.132219	0.698934	-0.714227	0.037026	0	0	0
14128	0	0	0	0	0	9.740972	1.356563	0.366502	-0.003870	0.004293	-0.002817	-0.570068	-0.536133	0.226563	0.322574	0.656035	-0.226017	0.643802	74.338266	-82.107367	59.897713	0.068871	0.118797	0.990527	-0.711898	-0.689724	0.132219	0.698898	-0.714260	0.037070	0	0	0
14129	0	0	0	0	0	9.693905	1.382704	0.427711	-0.006755	0.006399	-0.002108	-0.573730	-0.546875	0.223633	0.322602	0.656005	-0.226029	0.643814	74.310569	-82.106477	59.921917	0.068828	0.118840	0.990525	-0.711943	-0.689678	0.132216	0.698856	-0.714298	0.037138	0	0	0
14130	0	0	0	0	0	9.694776	1.386278	0.368608	-0.001580	0.004762	-0.003247	-0.563232	-0.549805	0.224854	0.322619	0.655987	-0.226030	0.643823	74.293062	-82.105512	59.937784	0.068804	0.118873	0.990523	-0.711965	-0.689655	0.132220	0.698836	-0.714315	0.037183	0	0	0
14131	0	0	0	0	0	9.722398	1.388717	0.389687	-0.005065	0.005728	-0.001716	-0.562988	-0.544434	0.230469	0.322655	0.655955	-0.226054	0.643829	74.267035	-82.104890	59.958452	0.068766	0.118907	0.990521	-0.712033	-0.689586	0.132214	0.698771	-0.714375	0.037246	0	0	0
14132	0	0	0	0	0	9.731622	1.422502	0.432188	-0.001686	0.004386	-0.000933	-0.565186	-0.543701	0.229736	0.322665	0.655936	-0.226064	0.643841	74.248375	-82.105257	59.975421	0.068728	0.118922	0.990522	-0.712057	-0.689565	0.132196	0.698750	-0.714393	0.037287	0	0	0
14133	0	0	0	0	0	9.722335	1.388842	0.390828	-0.010839	0.006226	0.000245	-0.565918	-0.545410	0.222168	0.322699	0.655897	-0.226097	0.643851	74.216451	-82.105649	60.001396	0.068671	0.118948	0.990523	-0.712134	-0.689490	0.132168	0.698677	-0.714461	0.037359	0	0	0
14134	0	0	0	0	0	9.700331	1.333563	0.397995	-0.010243	0.003651	-0.000035	-0.571045	-0.546143	0.220459	0.322733	0.655865	-0.226139	0.643852	74.194795	-82.106624	60.016440	0.068631	0.118951	0.990525	-0.712218	-0.689409	0.132138	0.698595	-0.714539	0.037404	0	0	0
14135	0	0	0	0	0	9.730483	1.320526	0.388237	-0.006052	0.004201	-0.004700	-0.561523	-0.541016	0.233398	0.322784	0.655838	-0.226163	0.643846	74.177131	-82.104608	60.027398	0.068626	0.118994	0.990521	-0.712299	-0.689321	0.132160	0.698513	-0.714616	0.037454	0	0	0
14136	0	0	0	0	0	9.744734	1.323612	0.369080	-0.004468	0.003153	-0.001995	-0.571045	-0.544678	0.227539	0.322805	0.655819	-0.226180	0.643848	74.162969	-82.104579	60.038217	0.068603	0.119008	0.990520	-0.712342	-0.689279	0.132151	0.698472	-0.714655	0.037487	0	0	0
14137	0	0	0	0	0	9.734499	1.286731	0.387213	-0.001685	0.004386	-0.000932	-0.577881	-0.551270	0.222412	0.322810	0.655803	-0.226182	0.643862	74.144945	-82.104635	60.055648	0.068567	0.119028	0.990521	-0.712352	-0.689271	0.132139	0.698465	-0.714659	0.037529	0	0	0
14138	0	0	0	0	0	9.696986	1.372056	0.341699	0.004191	0.000550	-0.004665	-0.575928	-0.550049	0.226074	0.322807	0.655810	-0.226167	0.643861	74.149104	-82.103542	60.052979	0.068582	0.119041	0.990518	-0.712332	-0.689288	0.132159	0.698484	-0.714641	0.037524	0	0	0
14139	0	0	0	0	0	9.706201	1.405957	0.383634	0.003979	-0.000202	-0.000038	-0.564453	-0.542236	0.227051	0.322805	0.655807	-0.226181	0.643860	74.149417	-82.104811	60.051646	0.068573	0.119020	0.990521	-0.712346	-0.689277	0.132139	0.698471	-0.714654	0.037517	0	0	0
14140	0	0	0	0	0	9.750691	1.395609	0.354007	0.002893	0.005323	-0.001791	-0.567139	-0.547363	0.224365	0.322804	0.655794	-0.226172	0.643878	74.130618	-82.104555	60.071404	0.068535	0.119048	0.990520	-0.712337	-0.689288	0.132130	0.698484	-0.714640	0.037562	0	0	0
14141	0	0	0	0	0	9.737935	1.374100	0.402837	0.001094	0.001904	0.000672	-0.576172	-0.548096	0.226807	0.322801	0.655784	-0.226184	0.643885	74.121310	-82.105853	60.079968	0.068506	0.119039	0.990523	-0.712349	-0.689281	0.132103	0.698474	-0.714648	0.037577	0	0	0
14142	0	0	0	0	0	9.739502	1.355265	0.432148	-0.002881	0.005821	0.000169	-0.569824	-0.539307	0.227783	0.322812	0.655757	-0.226199	0.643902	74.095006	-82.106597	60.103964	0.068449	0.119056	0.990525	-0.712381	-0.689253	0.132073	0.698446	-0.714672	0.037634	0	0	0
14143	0	0	0	0	0	9.733797	1.408252	0.405605	0.002787	0.004947	0.000523	-0.571533	-0.543701	0.216553	0.322807	0.655740	-0.226199	0.643921	74.074565	-82.107403	60.124849	0.068399	0.119069	0.990527	-0.712380	-0.689259	0.132046	0.698452	-0.714664	0.037678	0	0	0
14144	0	0	0	0	0	9.707701	1.387161	0.414418	-0.001791	0.004010	0.001381	-0.563721	-0.545166	0.222656	0.322809	0.655719	-0.226218	0.643935	74.054696	-82.109097	60.142977	0.068347	0.119065	0.990531	-0.712406	-0.689240	0.132005	0.698431	-0.714683	0.037716	0	0	0
14145	0	0	0	0	0	9.714340	1.337437	0.382210	-0.003974	0.003917	-0.000503	-0.570068	-0.543945	0.224609	0.322841	0.655691	-0.226250	0.643936	74.034453	-82.109434	60.157538	0.068314	0.119078	0.990532	-0.712478	-0.689169	0.131986	0.698361	-0.714749	0.037761	0	0	0
14146	0	0	0	0	0	9.734314	1.287233	0.390188	0.003388	0.006087	-0.000297	-0.569824	-0.550049	0.230713	0.322833	0.655674	-0.226243	0.643960	74.011193	-82.109874	60.182086	0.068259	0.119100	0.990533	-0.712467	-0.689185	0.131963	0.698378	-0.714730	0.037812	0	0	0
14147	0	0	0	0	0	9.744492	1.324325	0.372890	0.006273	0.003981	-0.001007	-0.572510	-0.540771	0.225830	0.322820	0.655668	-0.226228	0.643978	73.998640	-82.109932	60.197216	0.068227	0.119117	0.990533	-0.712438	-0.689217	0.131954	0.698410	-0.714697	0.037841	0	0	0
14148	0	0	0	0	0	9.732682	1.306276	0.362013	0.010852	0.004919	-0.001864	-0.580566	-0.542725	0.226318	0.322792	0.655669	-0.226193	0.644004	73.986083	-82.109691	60.215275	0.068191	0.119142	0.990533	-0.712374	-0.689284	0.131950	0.698479	-0.714627	0.037871	0	0	0
14149	0	0	0	0	0	9.702437	1.319733	0.372486	0.007469	0.002546	-0.002107	-0.572266	-0.545898	0.223389	0.322779	0.655669	-0.226176	0.644016	73.980449	-82.109466	60.223542	0.068176	0.119156	0.990532	-0.712343	-0.689316	0.131950	0.698513	-0.714594	0.037885	0	0	0
14150	0	0	0	0	0	9.762781	1.293746	0.352144	0.015641	0.002893	-0.006807	-0.573730	-0.549072	0.220947	0.322748	0.655689	-0.226114	0.644032	73.984323	-82.106823	60.227783	0.068190	0.119200	0.990526	-0.712241	-0.689412	0.131996	0.698615	-0.714494	0.037888	0	0	0
14151	0	0	0	0	0	9.727398	1.338426	0.424083	0.010360	0.004155	-0.003356	-0.569824	-0.550049	0.229004	0.322741	0.655687	-0.226089	0.644047	73.974754	-82.105568	60.240130	0.068175	0.119234	0.990523	-0.712208	-0.689444	0.132011	0.698650	-0.714458	0.037916	0	0	0
14152	0	0	0	0	0	9.734988	1.391276	0.437327	0.005287	0.002453	-0.003991	-0.564697	-0.547607	0.224121	0.322735	0.655689	-0.226070	0.644055	73.971237	-82.104546	60.245843	0.068172	0.119256	0.990520	-0.712181	-0.689469	0.132026	0.698678	-0.714430	0.037929	0	0	0
14153	0	0	0	0	0	9.723135	1.373551	0.426393	-0.002565	0.003232	-0.006232	-0.566895	-0.541992	0.233154	0.322769	0.655677	-0.226068	0.644051	73.962527	-82.101803	60.251656	0.068183	0.119304	0.990514	-0.712214	-0.689427	0.132065	0.698643	-0.714463	0.037963	0	0	0
14154	0	0	0	0	0	9.738916	1.358246	0.435980	-0.004152	0.000564	-0.008396	-0.570801	-0.539551	0.223877	0.322806	0.655674	-0.226068	0.644035	73.966126	-82.098653	60.244726	0.068225	0.119343	0.990506	-0.712250	-0.689379	0.132120	0.698602	-0.714502	0.037969	0	0	0
14155	0	0	0	0	0	9.722929	1.374908	0.426711	-0.006548	-0.000280	-0.005654	-0.571045	-0.543213	0.228760	0.322839	0.655669	-0.226080	0.644019	73.968839	-82.096875	60.238031	0.068254	0.119362	0.990502	-0.712296	-0.689327	0.132151	0.698553	-0.714550	0.037972	0	0	0
14156	0	0	0	0	0	9.711075	1.357267	0.415638	-0.003658	0.001329	-0.006903	-0.578369	-0.547607	0.224854	0.322870	0.655663	-0.226081	0.644009	73.967983	-82.094426	60.235885	0.068279	0.119396	0.990496	-0.712329	-0.689284	0.132192	0.698516	-0.714585	0.037985	0	0	0
14157	0	0	0	0	0	9.713541	1.342431	0.384995	-0.004258	0.000189	-0.006082	-0.576660	-0.551025	0.218506	0.322905	0.655658	-0.226092	0.643994	73.969773	-82.092339	60.229990	0.068310	0.119420	0.990491	-0.712376	-0.689229	0.132227	0.698466	-0.714634	0.037991	0	0	0
14158	0	0	0	0	0	9.700131	1.343524	0.344858	-0.000879	-0.001152	-0.005298	-0.573486	-0.552979	0.226074	0.322920	0.655662	-0.226094	0.643981	73.978514	-82.091167	60.219761	0.068341	0.119426	0.990488	-0.712391	-0.689209	0.132253	0.698447	-0.714653	0.037977	0	0	0
14159	0	0	0	0	0	9.741039	1.345902	0.405241	0.001021	-0.004786	-0.008991	-0.568115	-0.540771	0.223145	0.322954	0.655679	-0.226098	0.643945	74.005298	-82.088199	60.189543	0.068430	0.119434	0.990481	-0.712424	-0.689161	0.132320	0.698404	-0.714698	0.037929	0	0	0
14160	0	0	0	0	0	9.753688	1.368242	0.356373	0.002608	-0.002118	-0.006827	-0.571045	-0.544922	0.224365	0.322961	0.655695	-0.226085	0.643930	74.021585	-82.086336	60.173713	0.068479	0.119443	0.990477	-0.712414	-0.689164	0.132362	0.698410	-0.714694	0.037900	0	0	0
14161	0	0	0	0	0	9.720823	1.397594	0.397171	0.000918	-0.001447	-0.007219	-0.566650	-0.540039	0.229248	0.322983	0.655703	-0.226079	0.643913	74.033926	-82.083860	60.159871	0.068529	0.119464	0.990471	-0.712427	-0.689140	0.132411	0.698392	-0.714712	0.037883	0	0	0
14162	0	0	0	0	0	9.729944	1.431890	0.438918	-0.004261	-0.003526	-0.005541	-0.576904	-0.542480	0.232910	0.323006	0.655710	-0.226095	0.643888	74.050387	-82.082926	60.139891	0.068578	0.119454	0.990468	-0.712466	-0.689095	0.132437	0.698348	-0.714757	0.037850	0	0	0
14163	0	0	0	0	0	9.734035	1.398086	0.436819	-0.006058	-0.003232	-0.003620	-0.572510	-0.548828	0.233398	0.323023	0.655715	-0.226113	0.643868	74.063109	-82.082757	60.124101	0.068613	0.119438	0.990468	-0.712501	-0.689058	0.132448	0.698309	-0.714797	0.037821	0	0	0
14164	0	0	0	0	0	9.722248	1.380126	0.425380	-0.010636	-0.004171	-0.002762	-0.572754	-0.550049	0.223389	0.323058	0.655711	-0.226160	0.643839	74.075326	-82.083455	60.104718	0.068647	0.119404	0.990470	-0.712586	-0.688970	0.132445	0.698219	-0.714886	0.037790	0	0	0
14165	0	0	0	0	0	9.712052	1.343387	0.442772	-0.009439	-0.005606	-0.003862	-0.568115	-0.541260	0.221680	0.323095	0.655714	-0.226201	0.643803	74.095018	-82.083450	60.078139	0.068703	0.119372	0.990470	-0.712665	-0.688885	0.132458	0.698132	-0.714974	0.037744	0	0	0
14166	0	0	0	0	0	9.728888	1.331046	0.392257	-0.010632	-0.000457	-0.003302	-0.573730	-0.548340	0.222168	0.323136	0.655699	-0.226240	0.643784	74.093131	-82.083265	60.072999	0.068715	0.119369	0.990469	-0.712750	-0.688798	0.132460	0.698044	-0.715059	0.037749	0	0	0
14167	0	0	0	0	0	9.710397	1.362780	0.413451	-0.003770	-0.006476	-0.003508	-0.576416	-0.551514	0.231445	0.323160	0.655709	-0.226275	0.643749	74.117986	-82.083611	60.042922	0.068775	0.119327	0.990470	-0.712809	-0.688734	0.132470	0.697978	-0.715127	0.037690	0	0	0
14168	0	0	0	0	0	9.743131	1.334586	0.371873	-0.003663	-0.006100	-0.005820	-0.573975	-0.541748	0.229004	0.323180	0.655726	-0.226292	0.643716	74.145293	-82.082922	60.012337	0.068844	0.119301	0.990468	-0.712843	-0.688693	0.132500	0.697936	-0.715171	0.037630	0	0	0
14169	0	0	0	0	0	9.724653	1.366325	0.392689	-0.002187	-0.007523	-0.000803	-0.573242	-0.554932	0.230957	0.323176	0.655745	-0.226319	0.643688	74.173577	-82.084950	59.982051	0.068890	0.119234	0.990473	-0.712865	-0.688674	0.132485	0.697909	-0.715201	0.037555	0	0	0
14170	0	0	0	0	0	9.740554	1.350555	0.401394	-0.001480	-0.006006	-0.003936	-0.572998	-0.547607	0.223633	0.323183	0.655763	-0.226335	0.643661	74.199650	-82.085281	59.953976	0.068945	0.119195	0.990474	-0.712885	-0.688650	0.132496	0.697883	-0.715229	0.037494	0	0	0
14171	0	0	0	0	0	9.708696	1.383016	0.382128	0.000316	-0.006300	-0.005858	-0.566406	-0.547363	0.227295	0.323196	0.655785	-0.226343	0.643629	74.229647	-82.084263	59.922093	0.069020	0.119172	0.990472	-0.712902	-0.688626	0.132533	0.697859	-0.715257	0.037429	0	0	0
14172	0	0	0	0	0	9.736327	1.385708	0.401946	0.005878	-0.007547	-0.003192	-0.574219	-0.552734	0.231934	0.323175	0.655819	-0.226341	0.643606	74.265212	-82.085240	59.888690	0.069081	0.119117	0.990474	-0.712871	-0.688656	0.132540	0.697884	-0.715237	0.037342	0	0	0
14173	0	0	0	0	0	9.717863	1.417407	0.422597	-0.002679	-0.008287	-0.002294	-0.575684	-0.548828	0.229980	0.323178	0.655842	-0.226366	0.643573	74.298095	-82.086483	59.853269	0.069144	0.119056	0.990477	-0.712898	-0.688629	0.132540	0.697851	-0.715273	0.037260	0	0	0
14174	0	0	0	0	0	9.740496	1.351840	0.398461	-0.001095	-0.009334	0.000410	-0.574707	-0.543457	0.235107	0.323165	0.655866	-0.226401	0.643542	74.332767	-82.089718	59.816735	0.069192	0.118964	0.990485	-0.712919	-0.688613	0.132509	0.697825	-0.715304	0.037165	0	0	0
14175	0	0	0	0	0	9.724619	1.367808	0.388334	0.004575	-0.006489	0.000222	-0.572510	-0.545654	0.223877	0.323133	0.655893	-0.226404	0.643529	74.360189	-82.092147	59.791998	0.069222	0.118898	0.990491	-0.712885	-0.688653	0.132486	0.697856	-0.715277	0.037090	0	0	0
14176	0	0	0	0	0	9.727184	1.352394	0.356868	0.006864	-0.006019	-0.000208	-0.573730	-0.542236	0.229004	0.323100	0.655921	-0.226406	0.643518	74.386985	-82.094524	59.768020	0.069251	0.118833	0.990496	-0.712849	-0.688694	0.132464	0.697890	-0.715248	0.037017	0	0	0
14177	0	0	0	0	0	9.727199	1.352464	0.356197	0.009153	-0.005548	-0.000637	-0.570313	-0.538086	0.219971	0.323066	0.655949	-0.226399	0.643508	74.413149	-82.096324	59.745443	0.069282	0.118779	0.990501	-0.712804	-0.688743	0.132451	0.697933	-0.715209	0.036948	0	0	0
14178	0	0	0	0	0	9.727197	1.352646	0.355544	0.006971	-0.005643	-0.002520	-0.572754	-0.540771	0.222168	0.323041	0.655978	-0.226392	0.643493	74.441100	-82.097364	59.720362	0.069325	0.118733	0.990503	-0.712766	-0.688782	0.132452	0.697967	-0.715180	0.036879	0	0	0
14179	0	0	0	0	0	9.724660	1.368261	0.385704	0.005175	-0.005349	-0.000598	-0.568604	-0.541992	0.231201	0.323028	0.655996	-0.226406	0.643477	74.463215	-82.099172	59.698280	0.069355	0.118679	0.990507	-0.712765	-0.688787	0.132436	0.697966	-0.715184	0.036819	0	0	0
14180	0	0	0	0	0	9.759035	1.320954	0.372975	0.011444	-0.005078	-0.001066	-0.570068	-0.545166	0.223633	0.322984	0.656029	-0.226388	0.643472	74.489892	-82.100925	59.677071	0.069384	0.118627	0.990512	-0.712697	-0.688860	0.132424	0.698033	-0.715122	0.036750	0	0	0
14181	0	0	0	0	0	9.733878	1.402374	0.426446	0.003099	-0.005067	-0.004793	-0.562744	-0.541992	0.224609	0.322980	0.656052	-0.226383	0.643452	74.515778	-82.100323	59.651895	0.069441	0.118606	0.990510	-0.712683	-0.688868	0.132450	0.698041	-0.715118	0.036692	0	0	0
14182	0	0	0	0	0	9.736390	1.387231	0.395114	0.007465	-0.004878	-0.001027	-0.569824	-0.548096	0.227295	0.322950	0.656078	-0.226379	0.643443	74.539351	-82.102064	59.631518	0.069468	0.118555	0.990514	-0.712643	-0.688913	0.132437	0.698079	-0.715083	0.036630	0	0	0
14183	0	0	0	0	0	9.712873	1.350843	0.372209	0.001197	-0.005149	-0.000558	-0.579102	-0.540283	0.234863	0.322942	0.656092	-0.226396	0.643425	74.559678	-82.103768	59.610399	0.069497	0.118504	0.990518	-0.712651	-0.688907	0.132421	0.698068	-0.715097	0.036575	0	0	0
14184	0	0	0	0	0	9.727161	1.353815	0.352078	0.005282	-0.004973	-0.002910	-0.569092	-0.545654	0.225586	0.322924	0.656117	-0.226392	0.643411	74.584463	-82.104482	59.587536	0.069538	0.118466	0.990520	-0.712625	-0.688933	0.132425	0.698090	-0.715078	0.036515	0	0	0
14185	0	0	0	0	0	9.753189	1.375182	0.343071	0.011551	-0.004702	-0.003379	-0.578613	-0.544434	0.221436	0.322885	0.656152	-0.226361	0.643405	74.612396	-82.104648	59.565758	0.069582	0.118437	0.990521	-0.712547	-0.689011	0.132440	0.698166	-0.715008	0.036449	0	0	0
14186	0	0	0	0	0	9.711200	1.370410	0.341478	0.006374	-0.006783	-0.001697	-0.566650	-0.541260	0.231934	0.322858	0.656183	-0.226361	0.643387	74.643699	-82.106304	59.536948	0.069627	0.118377	0.990525	-0.712514	-0.689047	0.132432	0.698195	-0.714983	0.036369	0	0	0
14187	0	0	0	0	0	9.710301	1.367328	0.400487	0.006974	-0.005643	-0.002518	-0.565186	-0.545410	0.228027	0.322837	0.656210	-0.226355	0.643372	74.671153	-82.107067	59.511858	0.069672	0.118335	0.990526	-0.712482	-0.689079	0.132437	0.698223	-0.714959	0.036302	0	0	0
14188	0	0	0	0	0	9.750636	1.391356	0.371809	0.011447	-0.005078	-0.001065	-0.563965	-0.542725	0.221680	0.322793	0.656243	-0.226338	0.643367	74.697895	-82.108810	59.490586	0.069701	0.118284	0.990531	-0.712414	-0.689152	0.132425	0.698290	-0.714898	0.036233	0	0	0
14189	0	0	0	0	0	9.708635	1.386586	0.370570	0.001902	0.000081	-0.004234	-0.569336	-0.550537	0.227051	0.322802	0.656246	-0.226334	0.643361	74.701676	-82.107675	59.486303	0.069719	0.118295	0.990528	-0.712418	-0.689144	0.132446	0.698284	-0.714904	0.036229	0	0	0
14190	0	0	0	0	0	9.752223	1.373085	0.400227	0.002290	-0.003244	0.000113	-0.569580	-0.537354	0.231445	0.322786	0.656256	-0.226347	0.643353	74.714583	-82.109791	59.473701	0.069727	0.118248	0.990533	-0.712415	-0.689152	0.132419	0.698286	-0.714903	0.036190	0	0	0
14191	0	0	0	0	0	9.725433	1.374111	0.319672	0.002290	-0.003244	0.000113	-0.572266	-0.543213	0.232910	0.322770	0.656268	-0.226355	0.643347	74.727671	-82.111608	59.461368	0.069736	0.118206	0.990537	-0.712406	-0.689166	0.132397	0.698294	-0.714897	0.036151	0	0	0
14192	0	0	0	0	0	9.738844	1.373632	0.359424	-0.004473	-0.004280	-0.000909	-0.570557	-0.548828	0.227783	0.322778	0.656272	-0.226388	0.643327	74.741962	-82.113315	59.443457	0.069758	0.118159	0.990541	-0.712449	-0.689125	0.132378	0.698248	-0.714944	0.036110	0	0	0
14193	0	0	0	0	0	9.744644	1.320730	0.386218	-0.006164	-0.003610	-0.001300	-0.570313	-0.544434	0.230225	0.322794	0.656273	-0.226420	0.643307	74.753258	-82.114403	59.428035	0.069780	0.118124	0.990544	-0.712498	-0.689076	0.132367	0.698196	-0.714997	0.036079	0	0	0
14194	0	0	0	0	0	9.728724	1.336741	0.376649	-0.005670	-0.002845	0.000191	-0.569824	-0.545166	0.231445	0.322804	0.656269	-0.226458	0.643292	74.759952	-82.116500	59.417102	0.069785	0.118080	0.990549	-0.712550	-0.689028	0.132336	0.698142	-0.715051	0.036054	0	0	0
14195	0	0	0	0	0	9.729597	1.340130	0.316725	-0.001585	-0.002669	-0.002161	-0.571777	-0.544922	0.231934	0.322806	0.656277	-0.226469	0.643280	74.771287	-82.116972	59.404689	0.069806	0.118057	0.990550	-0.712562	-0.689016	0.132335	0.698128	-0.715066	0.036026	0	0	0
14196	0	0	0	0	0	9.731180	1.321857	0.345458	-0.005846	-0.002484	-0.008238	-0.582275	-0.549805	0.229980	0.322845	0.656281	-0.226479	0.643252	74.785601	-82.114354	59.385961	0.069868	0.118074	0.990544	-0.712610	-0.688956	0.132388	0.698073	-0.715121	0.036005	0	0	0
14197	0	0	0	0	0	9.711044	1.372449	0.337710	0.002290	-0.003244	0.000112	-0.568604	-0.544678	0.233154	0.322831	0.656292	-0.226490	0.643245	74.798434	-82.116203	59.373513	0.069877	0.118031	0.990548	-0.712605	-0.688965	0.132365	0.698077	-0.715119	0.035967	0	0	0
14198	0	0	0	0	0	9.741200	1.359692	0.327233	-0.005248	-0.001344	-0.009059	-0.572021	-0.548340	0.230957	0.322871	0.656294	-0.226494	0.643220	74.809420	-82.112959	59.358492	0.069936	0.118061	0.990541	-0.712648	-0.688909	0.132426	0.698027	-0.715168	0.035956	0	0	0
14199	0	0	0	0	0	9.742741	1.341694	0.356189	0.000317	0.001126	-0.006938	-0.568359	-0.537109	0.229736	0.322885	0.656299	-0.226475	0.643216	74.812084	-82.110206	59.356166	0.069966	0.118099	0.990534	-0.712640	-0.688908	0.132474	0.698032	-0.715163	0.035962	0	0	0
14200	0	0	0	0	0	9.744301	1.323601	0.385053	0.002607	-0.002118	-0.006825	-0.563721	-0.540771	0.231445	0.322892	0.656314	-0.226463	0.643201	74.828221	-82.108313	59.340487	0.070015	0.118108	0.990529	-0.712630	-0.688911	0.132515	0.698037	-0.715159	0.035934	0	0	0
14201	0	0	0	0	0	9.722465	1.393196	0.348428	0.005389	-0.000882	-0.005765	-0.575195	-0.549561	0.227295	0.322880	0.656332	-0.226432	0.643199	74.840651	-82.106545	59.331786	0.070048	0.118124	0.990525	-0.712581	-0.688954	0.132553	0.698084	-0.715115	0.035913	0	0	0
14202	0	0	0	0	0	9.735821	1.393113	0.388380	-0.000986	-0.001530	-0.002982	-0.563477	-0.548340	0.225586	0.322887	0.656336	-0.226442	0.643188	74.848221	-82.106689	59.322678	0.070066	0.118110	0.990526	-0.712599	-0.688936	0.132555	0.698064	-0.715135	0.035895	0	0	0
14203	0	0	0	0	0	9.712256	1.356984	0.365923	-0.003169	-0.001625	-0.004864	-0.567139	-0.549316	0.227051	0.322915	0.656336	-0.226458	0.643169	74.856388	-82.105456	59.310625	0.070101	0.118114	0.990523	-0.712643	-0.688885	0.132581	0.698016	-0.715183	0.035881	0	0	0
14204	0	0	0	0	0	9.728110	1.341651	0.375040	0.002115	-0.002882	-0.008316	-0.572754	-0.555176	0.229492	0.322928	0.656354	-0.226443	0.643149	74.876879	-82.102851	59.290266	0.070166	0.118128	0.990516	-0.712635	-0.688883	0.132637	0.698017	-0.715183	0.035846	0	0	0
14205	0	0	0	0	0	9.739803	1.360439	0.385939	0.000706	-0.002199	-0.002591	-0.575684	-0.544922	0.229004	0.322934	0.656360	-0.226453	0.643136	74.887396	-82.102939	59.278377	0.070190	0.118112	0.990517	-0.712650	-0.688866	0.132642	0.698000	-0.715201	0.035821	0	0	0
14206	0	0	0	0	0	9.726353	1.361257	0.345632	0.005284	-0.001257	-0.003452	-0.571045	-0.550049	0.227783	0.322922	0.656373	-0.226441	0.643133	74.897973	-82.102780	59.269860	0.070209	0.118104	0.990516	-0.712623	-0.688892	0.132651	0.698025	-0.715178	0.035797	0	0	0
14207	0	0	0	0	0	9.749810	1.398168	0.367897	0.000211	0.000751	-0.004625	-0.575684	-0.545166	0.231201	0.322938	0.656372	-0.226440	0.643127	74.898474	-82.101378	59.268018	0.070225	0.118122	0.990513	-0.712637	-0.688872	0.132675	0.698009	-0.715194	0.035802	0	0	0
14208	0	0	0	0	0	9.707779	1.393526	0.366944	-0.001478	-0.002295	-0.004472	-0.570068	-0.546387	0.229492	0.322950	0.656378	-0.226448	0.643111	74.910410	-82.100810	59.254218	0.070259	0.118114	0.990511	-0.712657	-0.688849	0.132692	0.697985	-0.715218	0.035777	0	0	0
14209	0	0	0	0	0	9.735423	1.396196	0.387275	0.001304	-0.001059	-0.003412	-0.571045	-0.542480	0.230469	0.322951	0.656385	-0.226446	0.643104	74.917942	-82.100363	59.246807	0.070278	0.118111	0.990510	-0.712654	-0.688850	0.132704	0.697987	-0.715217	0.035762	0	0	0
14210	0	0	0	0	0	9.727808	1.344101	0.374114	-0.001478	-0.002295	-0.004472	-0.567383	-0.543701	0.222168	0.322964	0.656392	-0.226454	0.643088	74.929876	-82.099794	59.233009	0.070311	0.118103	0.990509	-0.712674	-0.688826	0.132721	0.697963	-0.715242	0.035737	0	0	0
14211	0	0	0	0	0	9.742008	1.347483	0.354373	-0.000773	-0.000779	-0.007606	-0.564941	-0.545410	0.230469	0.322990	0.656397	-0.226449	0.643072	74.939042	-82.096974	59.221876	0.070359	0.118131	0.990502	-0.712693	-0.688796	0.132774	0.697939	-0.715266	0.035728	0	0	0
14212	0	0	0	0	0	9.726008	1.363907	0.344905	0.007468	-0.001160	-0.001570	-0.575684	-0.549316	0.226318	0.322965	0.656411	-0.226436	0.643074	74.948460	-82.097841	59.215792	0.070364	0.118111	0.990504	-0.712652	-0.688840	0.132765	0.697980	-0.715227	0.035702	0	0	0
14213	0	0	0	0	0	9.733491	1.416958	0.357778	-0.000667	-0.000404	-0.009918	-0.566895	-0.545654	0.232666	0.322998	0.656418	-0.226421	0.643056	74.958958	-82.093657	59.203609	0.070426	0.118158	0.990494	-0.712666	-0.688811	0.132842	0.697960	-0.715247	0.035697	0	0	0
14214	0	0	0	0	0	9.741800	1.349077	0.354026	0.003488	-0.000963	-0.001530	-0.568359	-0.544678	0.225830	0.322987	0.656425	-0.226421	0.643054	74.965264	-82.094516	59.198365	0.070429	0.118139	0.990496	-0.712653	-0.688826	0.132831	0.697972	-0.715235	0.035678	0	0	0
14215	0	0	0	0	0	9.723300	1.380788	0.375212	0.004194	-0.003162	-0.004121	-0.567627	-0.551025	0.225586	0.322978	0.656445	-0.226410	0.643043	74.983751	-82.093949	59.181659	0.070469	0.118127	0.990495	-0.712628	-0.688848	0.132852	0.697994	-0.715216	0.035638	0	0	0
14216	0	0	0	0	0	9.719056	1.415412	0.376807	0.003594	-0.000587	-0.003843	-0.566406	-0.551514	0.225342	0.322974	0.656453	-0.226401	0.643039	74.991097	-82.093473	59.175427	0.070486	0.118126	0.990494	-0.712613	-0.688861	0.132865	0.698008	-0.715204	0.035623	0	0	0
14217	0	0	0	0	0	9.713994	1.347740	0.332926	0.003488	-0.000962	-0.001530	-0.570801	-0.543945	0.222900	0.322973	0.656457	-0.226407	0.643034	74.996732	-82.093942	59.169372	0.070494	0.118112	0.990495	-0.712618	-0.688857	0.132860	0.698002	-0.715210	0.035608	0	0	0
14218	0	0	0	0	0	9.734928	1.400017	0.385931	0.001903	0.000081	-0.004233	-0.566650	-0.544434	0.232910	0.322976	0.656461	-0.226402	0.643030	75.000860	-82.093150	59.165409	0.070509	0.118119	0.990493	-0.712614	-0.688858	0.132876	0.698004	-0.715208	0.035602	0	0	0
14219	0	0	0	0	0	9.711376	1.363916	0.363503	-0.001477	-0.002296	-0.004472	-0.566406	-0.549561	0.221436	0.322990	0.656468	-0.226408	0.643014	75.012641	-82.092277	59.151717	0.070545	0.118115	0.990491	-0.712634	-0.688833	0.132898	0.697980	-0.715233	0.035579	0	0	0
14220	0	0	0	0	0	9.769274	1.353204	0.373645	0.000492	0.000765	0.001491	-0.567139	-0.541992	0.228271	0.322981	0.656461	-0.226425	0.643020	75.007126	-82.094552	59.156674	0.070515	0.118087	0.990496	-0.712644	-0.688830	0.132857	0.697973	-0.715240	0.035581	0	0	0
14221	0	0	0	0	0	9.727278	1.348289	0.372805	0.006481	0.001025	-0.005095	-0.572266	-0.545166	0.233643	0.322981	0.656468	-0.226405	0.643019	75.010347	-82.092806	59.155141	0.070534	0.118111	0.990492	-0.712621	-0.688848	0.132888	0.697994	-0.715219	0.035581	0	0	0
14222	0	0	0	0	0	9.711250	1.364872	0.363275	0.001520	-0.004023	-0.007492	-0.563721	-0.541748	0.232178	0.322991	0.656488	-0.226397	0.642996	75.034081	-82.090818	59.131162	0.070601	0.118111	0.990487	-0.712618	-0.688842	0.132936	0.697990	-0.715225	0.035535	0	0	0
14223	0	0	0	0	0	9.713720	1.349870	0.332277	0.001797	-0.000294	-0.001921	-0.569336	-0.546143	0.222168	0.322978	0.656496	-0.226387	0.642999	75.038229	-82.091068	59.129005	0.070603	0.118105	0.990488	-0.712594	-0.688867	0.132934	0.698015	-0.715201	0.035525	0	0	0
14224	0	0	0	0	0	9.725427	1.368464	0.343231	0.006485	-0.002690	-0.004551	-0.574463	-0.534180	0.230713	0.322964	0.656516	-0.226371	0.642990	75.056355	-82.090509	59.113560	0.070640	0.118094	0.990487	-0.712558	-0.688900	0.132955	0.698048	-0.715171	0.035485	0	0	0
14225	0	0	0	0	0	9.727055	1.350137	0.371945	0.003594	-0.000587	-0.003842	-0.571045	-0.544922	0.225098	0.322964	0.656524	-0.226363	0.642986	75.063023	-82.089799	59.107531	0.070658	0.118097	0.990485	-0.712549	-0.688907	0.132971	0.698056	-0.715164	0.035473	0	0	0
14226	0	0	0	0	0	9.738725	1.368946	0.383062	0.004298	0.000928	-0.006976	-0.567627	-0.547852	0.231689	0.322970	0.656532	-0.226340	0.642983	75.068056	-82.087363	59.104040	0.070687	0.118129	0.990479	-0.712526	-0.688922	0.133014	0.698076	-0.715145	0.035472	0	0	0
14227	0	0	0	0	0	9.755431	1.356923	0.332762	0.007080	0.002165	-0.005916	-0.564453	-0.539551	0.224609	0.322967	0.656539	-0.226308	0.642988	75.068481	-82.085015	59.106616	0.070703	0.118167	0.990473	-0.712487	-0.688955	0.133054	0.698114	-0.715107	0.035481	0	0	0
14228	0	0	0	0	0	9.722608	1.386019	0.373851	0.008666	0.001122	-0.003212	-0.565430	-0.552246	0.225586	0.322946	0.656550	-0.226283	0.642996	75.071244	-82.084634	59.107944	0.070703	0.118174	0.990473	-0.712437	-0.689005	0.133062	0.698165	-0.715058	0.035477	0	0	0
14229	0	0	0	0	0	9.738502	1.370423	0.383432	0.000701	0.005229	-0.003678	-0.566162	-0.538818	0.226563	0.322965	0.656533	-0.226278	0.643006	75.053046	-82.083033	59.124835	0.070683	0.118219	0.990469	-0.712454	-0.688984	0.133077	0.698150	-0.715070	0.035526	0	0	0
14230	0	0	0	0	0	9.732533	1.423829	0.356554	0.006483	0.001025	-0.005093	-0.567139	-0.550781	0.228516	0.322957	0.656542	-0.226253	0.643009	75.056945	-82.081625	59.123753	0.070698	0.118238	0.990465	-0.712418	-0.689017	0.133103	0.698185	-0.715035	0.035523	0	0	0
14231	0	0	0	0	0	9.722418	1.387209	0.374379	0.002396	0.000846	-0.002742	-0.572998	-0.551025	0.229492	0.322957	0.656543	-0.226249	0.643010	75.056619	-82.081220	59.124456	0.070700	0.118245	0.990464	-0.712413	-0.689021	0.133110	0.698190	-0.715030	0.035526	0	0	0
14232	0	0	0	0	0	9.720696	1.406188	0.345603	-0.000495	0.002949	-0.002035	-0.566162	-0.551514	0.218262	0.322964	0.656532	-0.226253	0.643016	75.045614	-82.081221	59.134385	0.070679	0.118257	0.990464	-0.712428	-0.689007	0.133103	0.698177	-0.715042	0.035551	0	0	0
14233	0	0	0	0	0	9.732400	1.424648	0.356911	-0.002183	-0.000098	-0.001882	-0.573975	-0.540527	0.225098	0.322989	0.656521	-0.226280	0.643005	75.044320	-82.081387	59.131174	0.070684	0.118251	0.990465	-0.712482	-0.688951	0.133100	0.698121	-0.715097	0.035554	0	0	0
14234	0	0	0	0	0	9.708906	1.388219	0.334708	-0.003383	0.001336	-0.000783	-0.573242	-0.539795	0.220947	0.323000	0.656509	-0.226301	0.643004	75.036744	-82.082319	59.135970	0.070666	0.118243	0.990467	-0.712518	-0.688918	0.133079	0.698086	-0.715130	0.035567	0	0	0
14235	0	0	0	0	0	9.735735	1.387300	0.415030	-0.003981	0.000196	0.000039	-0.572754	-0.544189	0.217285	0.323020	0.656494	-0.226337	0.642997	75.030940	-82.083653	59.136857	0.070653	0.118224	0.990470	-0.712580	-0.688859	0.133053	0.698025	-0.715189	0.035575	0	0	0
14236	0	0	0	0	0	9.726524	1.353599	0.373250	-0.001093	0.001808	-0.001213	-0.570313	-0.545166	0.234619	0.323025	0.656484	-0.226348	0.643000	75.023251	-82.084277	59.143092	0.070634	0.118223	0.990472	-0.712599	-0.688842	0.133038	0.698007	-0.715206	0.035590	0	0	0
14237	0	0	0	0	0	9.740782	1.356472	0.353781	-0.001691	0.000668	-0.000391	-0.572510	-0.549072	0.231934	0.323036	0.656474	-0.226370	0.642998	75.018120	-82.085241	59.145440	0.070621	0.118211	0.990474	-0.712634	-0.688809	0.133019	0.697972	-0.715240	0.035597	0	0	0
14238	0	0	0	0	0	9.731576	1.322774	0.311883	0.006271	0.000276	-0.000469	-0.569580	-0.556396	0.227783	0.323013	0.656480	-0.226362	0.643006	75.019957	-82.086503	59.146317	0.070608	0.118194	0.990477	-0.712603	-0.688846	0.132999	0.698005	-0.715208	0.035587	0	0	0
14239	0	0	0	0	0	9.729031	1.338298	0.342659	-0.001691	0.000668	-0.000391	-0.571533	-0.546875	0.227051	0.323021	0.656472	-0.226380	0.643004	75.015615	-82.087385	59.148464	0.070595	0.118183	0.990479	-0.712631	-0.688820	0.132982	0.697978	-0.715234	0.035593	0	0	0
14240	0	0	0	0	0	9.733204	1.304416	0.340898	0.002011	0.000456	-0.006544	-0.568359	-0.549072	0.229736	0.323031	0.656478	-0.226366	0.642998	75.020769	-82.085258	59.143528	0.070625	0.118209	0.990474	-0.712625	-0.688819	0.133020	0.697981	-0.715231	0.035591	0	0	0
14241	0	0	0	0	0	9.718859	1.302147	0.360506	0.001904	0.000081	-0.004232	-0.567871	-0.548828	0.231201	0.323038	0.656481	-0.226360	0.642993	75.024770	-82.084140	59.139429	0.070643	0.118220	0.990471	-0.712624	-0.688815	0.133041	0.697980	-0.715232	0.035587	0	0	0
14242	0	0	0	0	0	9.740582	1.357878	0.353889	0.000213	0.000749	-0.004623	-0.562256	-0.545898	0.229004	0.323049	0.656481	-0.226357	0.642988	75.025678	-82.083033	59.137740	0.070656	0.118235	0.990469	-0.712632	-0.688803	0.133061	0.697971	-0.715242	0.035590	0	0	0
14243	0	0	0	0	0	9.742185	1.339707	0.382888	0.004301	0.000928	-0.006974	-0.565674	-0.551758	0.225830	0.323052	0.656492	-0.226327	0.642987	75.031392	-82.080237	59.134395	0.070688	0.118272	0.990462	-0.712600	-0.688828	0.133111	0.698001	-0.715212	0.035589	0	0	0
14244	0	0	0	0	0	9.737867	1.374571	0.384716	-0.000278	-0.000017	-0.006113	-0.561768	-0.544189	0.229004	0.323068	0.656495	-0.226323	0.642977	75.036647	-82.078419	59.128031	0.070717	0.118291	0.990458	-0.712610	-0.688810	0.133144	0.697987	-0.715225	0.035585	0	0	0
14245	0	0	0	0	0	9.694136	1.388790	0.354721	0.004305	-0.002786	-0.006429	-0.563477	-0.544922	0.229248	0.323070	0.656515	-0.226305	0.642962	75.056013	-82.076454	59.109961	0.070772	0.118298	0.990453	-0.712589	-0.688823	0.133189	0.698003	-0.715212	0.035548	0	0	0
14246	0	0	0	0	0	9.734310	1.413349	0.326760	-0.003666	0.005033	-0.007440	-0.567139	-0.544434	0.236816	0.323107	0.656498	-0.226299	0.642963	75.040650	-82.073154	59.122455	0.070775	0.118362	0.990445	-0.712622	-0.688780	0.133235	0.697969	-0.715242	0.035599	0	0	0
14247	0	0	0	0	0	9.709893	1.374206	0.364351	-0.001367	-0.001923	-0.006782	-0.565430	-0.545410	0.224121	0.323117	0.656511	-0.226285	0.642949	75.054914	-82.070923	59.108525	0.070824	0.118378	0.990440	-0.712613	-0.688781	0.133281	0.697973	-0.715240	0.035576	0	0	0
14248	0	0	0	0	0	9.721534	1.393110	0.375420	-0.000278	-0.000017	-0.006113	-0.561279	-0.553467	0.227051	0.323134	0.656515	-0.226281	0.642939	75.060158	-82.069104	59.102174	0.070853	0.118397	0.990435	-0.712623	-0.688764	0.133315	0.697960	-0.715253	0.035572	0	0	0
14249	0	0	0	0	0	9.749155	1.395947	0.395859	0.003597	-0.000586	-0.003840	-0.568604	-0.551514	0.223145	0.323137	0.656521	-0.226275	0.642932	75.067164	-82.068230	59.095363	0.070875	0.118402	0.990433	-0.712619	-0.688765	0.133334	0.697962	-0.715251	0.035559	0	0	0
14250	0	0	0	0	0	9.721394	1.394116	0.375322	0.002012	0.000456	-0.006543	-0.573730	-0.538574	0.232178	0.323148	0.656527	-0.226261	0.642926	75.072293	-82.066102	59.090453	0.070904	0.118427	0.990428	-0.712613	-0.688763	0.133372	0.697965	-0.715248	0.035557	0	0	0
14251	0	0	0	0	0	9.707049	1.391815	0.394921	-0.000384	-0.000392	-0.003801	-0.571777	-0.540527	0.231934	0.323160	0.656528	-0.226265	0.642918	75.076128	-82.065341	59.085123	0.070922	0.118432	0.990426	-0.712629	-0.688743	0.133387	0.697947	-0.715267	0.035551	0	0	0
14252	0	0	0	0	0	9.709556	1.376625	0.364201	-0.003874	0.000569	-0.002273	-0.571777	-0.546875	0.227539	0.323177	0.656519	-0.226284	0.642912	75.072909	-82.065561	59.085235	0.070920	0.118429	0.990427	-0.712667	-0.688705	0.133382	0.697908	-0.715304	0.035558	0	0	0
14253	0	0	0	0	0	9.739757	1.363763	0.353964	-0.002674	-0.000864	-0.003371	-0.569824	-0.544434	0.229492	0.323190	0.656519	-0.226293	0.642902	75.077316	-82.065128	59.078867	0.070937	0.118427	0.990426	-0.712690	-0.688680	0.133392	0.697884	-0.715328	0.035549	0	0	0
14254	0	0	0	0	0	9.713736	1.342924	0.362197	0.004093	-0.003534	-0.001806	-0.566895	-0.552002	0.224365	0.323174	0.656535	-0.226294	0.642893	75.094469	-82.066212	59.063019	0.070960	0.118392	0.990428	-0.712672	-0.688699	0.133384	0.697899	-0.715316	0.035505	0	0	0
14255	0	0	0	0	0	9.713707	1.343173	0.362067	0.000705	0.001515	-0.003133	-0.571289	-0.550293	0.223877	0.323185	0.656530	-0.226296	0.642892	75.090652	-82.065479	59.065688	0.070961	0.118406	0.990426	-0.712686	-0.688683	0.133394	0.697885	-0.715329	0.035517	0	0	0
14256	0	0	0	0	0	9.743907	1.330325	0.351849	0.004088	0.000180	-0.002350	-0.559326	-0.545166	0.229736	0.323175	0.656535	-0.226289	0.642894	75.093624	-82.065714	59.064156	0.070962	0.118401	0.990427	-0.712668	-0.688702	0.133392	0.697903	-0.715312	0.035509	0	0	0
14257	0	0	0	0	0	9.727874	1.346724	0.342506	0.004302	0.000929	-0.006973	-0.568848	-0.537842	0.232666	0.323185	0.656543	-0.226266	0.642889	75.098485	-82.062919	59.060412	0.070994	0.118437	0.990420	-0.712651	-0.688710	0.133442	0.697917	-0.715298	0.035510	0	0	0
14258	0	0	0	0	0	9.741202	1.346896	0.382672	0.004793	0.001695	-0.005483	-0.563232	-0.547363	0.230713	0.323185	0.656548	-0.226245	0.642892	75.099155	-82.061196	59.061612	0.071007	0.118464	0.990416	-0.712626	-0.688730	0.133471	0.697941	-0.715274	0.035516	0	0	0
14259	0	0	0	0	0	9.720885	1.397689	0.375207	0.006592	0.001402	-0.007402	-0.575928	-0.549561	0.230469	0.323176	0.656564	-0.226199	0.642896	75.105052	-82.058162	59.060409	0.071037	0.118508	0.990409	-0.712565	-0.688783	0.133525	0.698000	-0.715216	0.035516	0	0	0
14260	0	0	0	0	0	9.723357	1.382797	0.344428	0.005888	-0.000113	-0.004269	-0.574219	-0.547119	0.223145	0.323166	0.656575	-0.226181	0.642896	75.112242	-82.057376	59.055660	0.071054	0.118514	0.990407	-0.712534	-0.688812	0.133543	0.698031	-0.715187	0.035502	0	0	0
14261	0	0	0	0	0	9.704754	1.414714	0.365884	0.003102	0.002362	-0.005874	-0.565918	-0.552490	0.230469	0.323182	0.656572	-0.226169	0.642895	75.108724	-82.055064	59.058751	0.071068	0.118552	0.990401	-0.712537	-0.688802	0.133579	0.698026	-0.715191	0.035521	0	0	0
14262	0	0	0	0	0	9.726418	1.470432	0.359332	0.000107	0.000374	-0.002311	-0.568359	-0.543457	0.222412	0.323185	0.656570	-0.226175	0.642893	75.108602	-82.055292	59.058041	0.071067	0.118547	0.990402	-0.712547	-0.688792	0.133575	0.698016	-0.715201	0.035520	0	0	0
14263	0	0	0	0	0	9.734876	1.402411	0.355750	-0.000276	-0.000018	-0.006112	-0.568604	-0.548096	0.227295	0.323208	0.656572	-0.226173	0.642881	75.113424	-82.053127	59.051348	0.071100	0.118571	0.990397	-0.712566	-0.688765	0.133614	0.697993	-0.715223	0.035519	0	0	0
14264	0	0	0	0	0	9.740773	1.349914	0.382974	0.000705	0.001515	-0.003132	-0.561035	-0.547852	0.229736	0.323214	0.656568	-0.226173	0.642882	75.109987	-82.052731	59.054331	0.071098	0.118581	0.990396	-0.712572	-0.688758	0.133619	0.697988	-0.715228	0.035528	0	0	0
14265	0	0	0	0	0	9.739030	1.368922	0.354070	0.004089	0.000181	-0.002349	-0.566650	-0.545410	0.230713	0.323205	0.656574	-0.226163	0.642884	75.113226	-82.052603	59.052737	0.071102	0.118581	0.990395	-0.712551	-0.688778	0.133623	0.698008	-0.715208	0.035521	0	0	0
14266	0	0	0	0	0	9.707043	1.401023	0.335381	0.002397	0.000847	-0.002741	-0.568604	-0.555176	0.229980	0.323202	0.656575	-0.226159	0.642885	75.112991	-82.052523	59.053464	0.071101	0.118583	0.990395	-0.712545	-0.688784	0.133624	0.698014	-0.715202	0.035522	0	0	0
14267	0	0	0	0	0	9.694430	1.379744	0.384122	0.001794	0.003421	-0.002464	-0.570801	-0.550049	0.223389	0.323204	0.656568	-0.226150	0.642895	75.102327	-82.051859	59.064767	0.071084	0.118607	0.990394	-0.712539	-0.688790	0.133629	0.698023	-0.715192	0.035550	0	0	0
14268	0	0	0	0	0	9.738943	1.369461	0.354355	0.003875	-0.000567	0.002273	-0.568604	-0.539551	0.226807	0.323179	0.656570	-0.226161	0.642902	75.103262	-82.054763	59.065169	0.071057	0.118564	0.990401	-0.712526	-0.688813	0.133581	0.698039	-0.715178	0.035535	0	0	0
14269	0	0	0	0	0	9.748110	1.403129	0.396207	0.009052	0.001520	0.000592	-0.576416	-0.541260	0.232666	0.323153	0.656573	-0.226151	0.642916	75.099793	-82.056141	59.071877	0.071031	0.118552	0.990404	-0.712489	-0.688856	0.133556	0.698079	-0.715139	0.035537	0	0	0
14270	0	0	0	0	0	9.734713	1.403420	0.356229	-0.000711	0.002200	0.002588	-0.566650	-0.542236	0.233154	0.323146	0.656558	-0.226173	0.642927	75.086781	-82.058812	59.083708	0.070983	0.118527	0.990410	-0.712509	-0.688846	0.133503	0.698064	-0.715152	0.035555	0	0	0
14271	0	0	0	0	0	9.687622	1.429259	0.416895	0.001309	-0.001060	-0.003409	-0.574463	-0.546631	0.239258	0.323138	0.656568	-0.226161	0.642924	75.095058	-82.058411	59.077122	0.071000	0.118525	0.990409	-0.712486	-0.688866	0.133515	0.698085	-0.715133	0.035538	0	0	0
14272	0	0	0	0	0	9.720418	1.400782	0.375776	-0.000598	-0.001140	0.000821	-0.575439	-0.543213	0.224365	0.323131	0.656567	-0.226182	0.642921	75.097235	-82.060596	59.073683	0.070988	0.118488	0.990415	-0.712504	-0.688855	0.133480	0.698068	-0.715150	0.035523	0	0	0
14273	0	0	0	0	0	9.724703	1.366399	0.374044	-0.000711	0.002200	0.002588	-0.575439	-0.547363	0.234131	0.323120	0.656554	-0.226198	0.642934	75.084465	-82.063029	59.086118	0.070940	0.118468	0.990421	-0.712513	-0.688855	0.133431	0.698064	-0.715153	0.035542	0	0	0
14274	0	0	0	0	0	9.746463	1.421434	0.367415	-0.000705	-0.001514	0.003133	-0.566895	-0.554688	0.225830	0.323107	0.656551	-0.226228	0.642934	75.085619	-82.066548	59.083648	0.070914	0.118412	0.990429	-0.712533	-0.688846	0.133373	0.698046	-0.715171	0.035524	0	0	0
14275	0	0	0	0	0	9.713059	1.347623	0.362916	0.002781	0.001240	0.001060	-0.575195	-0.544434	0.232178	0.323094	0.656547	-0.226234	0.642942	75.080047	-82.068174	59.089855	0.070887	0.118396	0.990433	-0.712528	-0.688857	0.133342	0.698054	-0.715163	0.035529	0	0	0
14276	0	0	0	0	0	9.726476	1.347106	0.403180	-0.002893	0.002100	0.000706	-0.559326	-0.552734	0.233154	0.323100	0.656531	-0.226257	0.642948	75.068150	-82.069817	59.099298	0.070853	0.118383	0.990437	-0.712561	-0.688829	0.133308	0.698023	-0.715192	0.035550	0	0	0
14277	0	0	0	0	0	9.713097	1.347303	0.363081	-0.001303	-0.002655	0.003954	-0.563477	-0.549316	0.225830	0.323078	0.656533	-0.226283	0.642947	75.073629	-82.073612	59.093552	0.070831	0.118320	0.990446	-0.712568	-0.688834	0.133248	0.698018	-0.715198	0.035520	0	0	0
14278	0	0	0	0	0	9.726516	1.346820	0.403167	-0.003277	0.001708	-0.003095	-0.568115	-0.558350	0.231934	0.323096	0.656523	-0.226295	0.642944	75.067096	-82.073209	59.097356	0.070827	0.118330	0.990445	-0.712602	-0.688799	0.133250	0.697985	-0.715230	0.035537	0	0	0
14279	0	0	0	0	0	9.740774	1.349689	0.383735	-0.003491	0.000960	0.001528	-0.569336	-0.537109	0.230713	0.323104	0.656508	-0.226324	0.642945	75.058655	-82.075055	59.102603	0.070800	0.118310	0.990450	-0.712643	-0.688762	0.133214	0.697945	-0.715269	0.035549	0	0	0
14280	0	0	0	0	0	9.699687	1.347662	0.323246	-0.003982	0.000194	0.000038	-0.564209	-0.546875	0.229248	0.323113	0.656498	-0.226351	0.642941	75.054416	-82.076609	59.103684	0.070783	0.118288	0.990453	-0.712684	-0.688726	0.133186	0.697905	-0.715308	0.035551	0	0	0
14281	0	0	0	0	0	9.724808	1.365532	0.374480	-0.005070	-0.001713	-0.000630	-0.570801	-0.542969	0.225098	0.323121	0.656495	-0.226375	0.642932	75.058382	-82.077791	59.096993	0.070787	0.118262	0.990456	-0.712717	-0.688694	0.133168	0.697870	-0.715342	0.035537	0	0	0
14282	0	0	0	0	0	9.739080	1.368383	0.354776	-0.005070	-0.001713	-0.000630	-0.565186	-0.538818	0.235596	0.323134	0.656490	-0.226406	0.642920	75.061815	-82.079257	59.089698	0.070789	0.118231	0.990460	-0.712765	-0.688649	0.133146	0.697821	-0.715390	0.035522	0	0	0
14283	0	0	0	0	0	9.724800	1.365642	0.374293	-0.002780	-0.001240	-0.001060	-0.574707	-0.549316	0.226807	0.323135	0.656490	-0.226420	0.642914	75.065665	-82.080154	59.084562	0.070791	0.118212	0.990462	-0.712781	-0.688635	0.133133	0.697805	-0.715407	0.035510	0	0	0
14284	0	0	0	0	0	9.720512	1.400072	0.375993	0.001309	-0.001059	-0.003409	-0.567871	-0.544434	0.229248	0.323137	0.656496	-0.226421	0.642907	75.073103	-82.079984	59.076913	0.070809	0.118205	0.990461	-0.712782	-0.688633	0.133141	0.697802	-0.715411	0.035493	0	0	0
14285	0	0	0	0	0	9.708793	1.381896	0.364597	-0.002284	-0.004188	0.000974	-0.568359	-0.548096	0.233154	0.323136	0.656500	-0.226453	0.642891	75.085912	-82.082406	59.061315	0.070819	0.118150	0.990467	-0.712817	-0.688603	0.133108	0.697766	-0.715448	0.035452	0	0	0
14286	0	0	0	0	0	9.724755	1.366127	0.373690	-0.005453	-0.002105	-0.004431	-0.562988	-0.540771	0.228760	0.323162	0.656500	-0.226475	0.642871	75.094724	-82.081825	59.048368	0.070851	0.118142	0.990466	-0.712864	-0.688551	0.133123	0.697714	-0.715500	0.035435	0	0	0
14287	0	0	0	0	0	9.724736	1.366321	0.373488	-0.001686	-0.003047	0.000153	-0.562256	-0.537109	0.223389	0.323154	0.656507	-0.226491	0.642863	75.105371	-82.083600	59.037054	0.070859	0.118102	0.990470	-0.712873	-0.688547	0.133100	0.697705	-0.715510	0.035402	0	0	0
14288	0	0	0	0	0	9.724740	1.366372	0.373181	-0.002177	-0.003813	-0.001337	-0.567139	-0.544189	0.228516	0.323157	0.656513	-0.226514	0.642846	75.119591	-82.084983	59.020543	0.070881	0.118061	0.990473	-0.712899	-0.688522	0.133086	0.697675	-0.715541	0.035363	0	0	0
14289	0	0	0	0	0	9.744946	1.316551	0.380496	-0.000874	-0.001158	-0.005290	-0.573730	-0.547119	0.226318	0.323174	0.656518	-0.226515	0.642833	75.127930	-82.083489	59.010604	0.070914	0.118071	0.990470	-0.712916	-0.688499	0.133116	0.697655	-0.715561	0.035350	0	0	0
14290	0	0	0	0	0	9.731472	1.317498	0.340044	0.007095	-0.005259	-0.004823	-0.572510	-0.552979	0.234375	0.323156	0.656548	-0.226500	0.642816	75.156906	-82.083152	58.984558	0.070971	0.118044	0.990469	-0.712875	-0.688537	0.133140	0.697690	-0.715530	0.035284	0	0	0
14291	0	0	0	0	0	9.741432	1.354924	0.321831	0.003001	-0.001726	-0.003018	-0.568115	-0.544678	0.227051	0.323152	0.656559	-0.226496	0.642809	75.167489	-82.082986	58.974646	0.070993	0.118034	0.990469	-0.712865	-0.688545	0.133149	0.697698	-0.715523	0.035260	0	0	0
14292	0	0	0	0	0	9.738823	1.370822	0.352395	0.003108	-0.001352	-0.005329	-0.566895	-0.547607	0.225342	0.323153	0.656571	-0.226485	0.642800	75.179147	-82.081795	58.963778	0.071026	0.118038	0.990466	-0.712853	-0.688553	0.133176	0.697708	-0.715515	0.035238	0	0	0
14293	0	0	0	0	0	9.724505	1.368405	0.371863	0.008071	-0.000012	-0.002388	-0.570557	-0.546875	0.230957	0.323136	0.656581	-0.226469	0.642803	75.184709	-82.081710	58.961167	0.071032	0.118036	0.990466	-0.712816	-0.688590	0.133181	0.697745	-0.715480	0.035226	0	0	0
14294	0	0	0	0	0	9.738747	1.371429	0.352126	0.003491	-0.000959	-0.001528	-0.569824	-0.544434	0.226807	0.323124	0.656588	-0.226469	0.642802	75.191020	-82.082566	58.955920	0.071035	0.118017	0.990468	-0.712803	-0.688605	0.133170	0.697757	-0.715468	0.035207	0	0	0
14295	0	0	0	0	0	9.724437	1.368972	0.371542	0.007090	-0.001545	-0.005367	-0.566650	-0.551758	0.232666	0.323114	0.656607	-0.226444	0.642796	75.205655	-82.081088	58.944364	0.071072	0.118024	0.990464	-0.712762	-0.688641	0.133204	0.697796	-0.715432	0.035180	0	0	0
14296	0	0	0	0	0	9.750373	1.390451	0.362747	0.004096	-0.003533	-0.001804	-0.569580	-0.545654	0.218750	0.323098	0.656624	-0.226445	0.642787	75.222855	-82.082167	58.928472	0.071095	0.117989	0.990467	-0.712745	-0.688660	0.133197	0.697811	-0.715420	0.035135	0	0	0
14297	0	0	0	0	0	9.738619	1.372559	0.351278	0.000328	-0.002593	-0.006387	-0.569580	-0.545166	0.224609	0.323120	0.656634	-0.226447	0.642766	75.238248	-82.080223	58.910988	0.071149	0.117996	0.990462	-0.712765	-0.688631	0.133239	0.697785	-0.715447	0.035108	0	0	0
14298	0	0	0	0	0	9.740264	1.354410	0.380020	0.003108	-0.001352	-0.005328	-0.570313	-0.545898	0.227539	0.323121	0.656646	-0.226436	0.642757	75.249892	-82.079030	58.900134	0.071182	0.118000	0.990459	-0.712753	-0.688639	0.133266	0.697794	-0.715438	0.035086	0	0	0
14299	0	0	0	0	0	9.700804	1.334204	0.348266	0.005889	-0.000112	-0.004269	-0.563965	-0.549805	0.226807	0.323118	0.656655	-0.226421	0.642754	75.256358	-82.077947	58.895169	0.071202	0.118010	0.990456	-0.712732	-0.688656	0.133288	0.697813	-0.715421	0.035076	0	0	0
14300	0	0	0	0	0	9.740963	1.358691	0.320150	0.004304	0.000929	-0.006971	-0.565186	-0.544434	0.227295	0.323123	0.656663	-0.226398	0.642751	75.261321	-82.075510	58.891752	0.071230	0.118041	0.990451	-0.712710	-0.688671	0.133332	0.697833	-0.715401	0.035075	0	0	0
14301	0	0	0	0	0	9.708068	1.387902	0.361057	0.007091	-0.001545	-0.005366	-0.570068	-0.545654	0.232422	0.323115	0.656682	-0.226374	0.642744	75.275936	-82.073967	58.879890	0.071269	0.118050	0.990447	-0.712673	-0.688702	0.133366	0.697867	-0.715369	0.035048	0	0	0
14302	0	0	0	0	0	9.738213	1.375548	0.350837	0.006097	0.004350	-0.009435	-0.574219	-0.541504	0.227783	0.323126	0.656685	-0.226331	0.642751	75.270884	-82.069666	58.887622	0.071291	0.118123	0.990437	-0.712636	-0.688727	0.133435	0.697902	-0.715334	0.035079	0	0	0
14303	0	0	0	0	0	9.751550	1.375700	0.391170	0.005178	0.002089	-0.001681	-0.567383	-0.543213	0.228271	0.323112	0.656686	-0.226316	0.642762	75.266224	-82.069741	58.894897	0.071275	0.118131	0.990437	-0.712606	-0.688759	0.133431	0.697935	-0.715301	0.035089	0	0	0
14304	0	0	0	0	0	9.715226	1.442122	0.374281	0.003707	-0.000212	-0.006149	-0.567871	-0.548828	0.224609	0.323115	0.656696	-0.226299	0.642756	75.274515	-82.067927	58.887774	0.071306	0.118149	0.990432	-0.712588	-0.688771	0.133466	0.697950	-0.715287	0.035078	0	0	0
14305	0	0	0	0	0	9.758831	1.429098	0.404193	-0.000987	0.002180	-0.003524	-0.574951	-0.551025	0.228271	0.323134	0.656686	-0.226304	0.642755	75.267382	-82.066898	58.892815	0.071305	0.118170	0.990430	-0.712613	-0.688742	0.133479	0.697924	-0.715311	0.035099	0	0	0
14306	0	0	0	0	0	9.721960	1.393184	0.342003	-0.001585	0.001040	-0.002702	-0.572266	-0.549805	0.232422	0.323145	0.656680	-0.226313	0.642753	75.264059	-82.066810	58.894357	0.071303	0.118174	0.990430	-0.712635	-0.688720	0.133479	0.697902	-0.715332	0.035107	0	0	0
14307	0	0	0	0	0	9.707648	1.390685	0.361661	-0.000382	-0.000393	-0.003800	-0.565674	-0.536133	0.229248	0.323156	0.656681	-0.226316	0.642744	75.268133	-82.066017	58.888946	0.071321	0.118179	0.990428	-0.712649	-0.688702	0.133494	0.697886	-0.715349	0.035101	0	0	0
14308	0	0	0	0	0	9.723601	1.375004	0.371164	-0.009060	0.002190	-0.001137	-0.569336	-0.544189	0.233398	0.323188	0.656658	-0.226353	0.642740	75.254315	-82.066629	58.896761	0.071299	0.118179	0.990429	-0.712724	-0.688628	0.133476	0.697811	-0.715420	0.035130	0	0	0
14309	0	0	0	0	0	9.711860	1.356910	0.360390	-0.006662	0.003038	-0.003877	-0.560059	-0.549072	0.227051	0.323214	0.656642	-0.226361	0.642740	75.242097	-82.065341	58.905955	0.071292	0.118210	0.990426	-0.712761	-0.688587	0.133490	0.697774	-0.715454	0.035165	0	0	0
14310	0	0	0	0	0	9.755513	1.343567	0.390318	-0.005667	-0.002856	0.000192	-0.565918	-0.541504	0.228760	0.323225	0.656638	-0.226399	0.642725	75.248894	-82.067426	58.894917	0.071296	0.118165	0.990431	-0.712814	-0.688539	0.133459	0.697720	-0.715508	0.035140	0	0	0
14311	0	0	0	0	0	9.695810	1.373253	0.350942	-0.003652	-0.002401	-0.006348	-0.564941	-0.545654	0.224609	0.323251	0.656645	-0.226404	0.642703	75.262126	-82.065467	58.878851	0.071347	0.118174	0.990426	-0.712843	-0.688500	0.133500	0.697685	-0.715543	0.035117	0	0	0
14312	0	0	0	0	0	9.739433	1.360238	0.380494	0.001915	-0.003633	-0.003684	-0.567627	-0.543701	0.233398	0.323248	0.656660	-0.226407	0.642688	75.280412	-82.065516	58.860600	0.071384	0.118151	0.990427	-0.712840	-0.688502	0.133510	0.697685	-0.715546	0.035075	0	0	0
14313	0	0	0	0	0	9.749346	1.397738	0.362347	-0.001959	-0.003067	-0.005956	-0.575439	-0.538818	0.226807	0.323265	0.656672	-0.226408	0.642667	75.296831	-82.063908	58.842469	0.071436	0.118152	0.990423	-0.712856	-0.688478	0.133547	0.697663	-0.715569	0.035043	0	0	0
14314	0	0	0	0	0	9.703067	1.426973	0.362989	-0.003974	-0.003523	0.000584	-0.567383	-0.544922	0.235596	0.323268	0.656672	-0.226444	0.642653	75.306854	-82.066305	58.829155	0.071442	0.118100	0.990428	-0.712897	-0.688442	0.133513	0.697621	-0.715612	0.035009	0	0	0
14315	0	0	0	0	0	9.711648	1.358706	0.359324	-0.006057	0.000464	-0.004152	-0.564941	-0.554932	0.229248	0.323293	0.656665	-0.226456	0.642643	75.305122	-82.065259	58.827577	0.071454	0.118113	0.990426	-0.712935	-0.688399	0.133530	0.697580	-0.715651	0.035018	0	0	0
14316	0	0	0	0	0	9.729322	1.324485	0.397586	-0.001469	-0.002300	-0.004467	-0.566895	-0.543701	0.222168	0.323305	0.656671	-0.226464	0.642627	75.316987	-82.064679	58.813852	0.071488	0.118105	0.990425	-0.712955	-0.688375	0.133547	0.697556	-0.715675	0.034993	0	0	0
14317	0	0	0	0	0	9.718973	1.411793	0.371932	-0.002282	-0.004189	0.000975	-0.568115	-0.543945	0.229492	0.323309	0.656674	-0.226500	0.642610	75.329675	-82.067020	58.797750	0.071500	0.118050	0.990430	-0.712997	-0.688338	0.133515	0.697512	-0.715720	0.034953	0	0	0
14318	0	0	0	0	0	9.707274	1.393607	0.360453	-0.002067	-0.003441	-0.003645	-0.569580	-0.535156	0.222168	0.323320	0.656683	-0.226515	0.642591	75.344881	-82.067060	58.780306	0.071536	0.118028	0.990430	-0.713021	-0.688311	0.133524	0.697483	-0.715750	0.034918	0	0	0
14319	0	0	0	0	0	9.749180	1.399208	0.361139	-0.009433	-0.001918	-0.004389	-0.574707	-0.545410	0.225342	0.323362	0.656674	-0.226549	0.642566	75.349990	-82.066221	58.768404	0.071568	0.118025	0.990428	-0.713101	-0.688225	0.133541	0.697399	-0.715833	0.034909	0	0	0
14320	0	0	0	0	0	9.732337	1.412023	0.411337	-0.003974	-0.003523	0.000584	-0.569580	-0.541748	0.224609	0.323365	0.656675	-0.226584	0.642552	75.360034	-82.068617	58.755069	0.071574	0.117973	0.990434	-0.713142	-0.688189	0.133507	0.697356	-0.715876	0.034875	0	0	0
14321	0	0	0	0	0	9.723218	1.378220	0.369249	-0.005069	-0.001716	-0.000628	-0.563721	-0.541748	0.229004	0.323386	0.656666	-0.226622	0.642537	75.362447	-82.069821	58.747529	0.071578	0.117946	0.990437	-0.713205	-0.688128	0.133488	0.697292	-0.715939	0.034865	0	0	0
14322	0	0	0	0	0	9.741771	1.346962	0.347662	-0.001577	-0.002674	-0.002156	-0.569336	-0.543701	0.224854	0.323391	0.656671	-0.226639	0.642523	75.373340	-82.070573	58.734722	0.071598	0.117919	0.990439	-0.713227	-0.688106	0.133482	0.697267	-0.715965	0.034836	0	0	0
14323	0	0	0	0	0	9.737460	1.381258	0.349303	0.001692	-0.000666	0.000391	-0.573975	-0.539551	0.219482	0.323382	0.656672	-0.226648	0.642524	75.375299	-82.072150	58.732806	0.071588	0.117893	0.990443	-0.713228	-0.688110	0.133457	0.697267	-0.715965	0.034824	0	0	0
14324	0	0	0	0	0	9.735718	1.400074	0.320015	0.000721	-0.005913	-0.002042	-0.563721	-0.536865	0.226074	0.323375	0.656691	-0.226664	0.642502	75.400294	-82.073434	58.707091	0.071629	0.117842	0.990446	-0.713234	-0.688105	0.133451	0.697256	-0.715979	0.034761	0	0	0
14325	0	0	0	0	0	9.709780	1.378940	0.328050	0.000498	-0.002948	0.002034	-0.571289	-0.544189	0.230469	0.323368	0.656692	-0.226694	0.642494	75.407940	-82.076310	58.697505	0.071623	0.117788	0.990453	-0.713260	-0.688086	0.133407	0.697231	-0.716005	0.034730	0	0	0
14326	0	0	0	0	0	9.733225	1.415277	0.349934	-0.000696	-0.005229	0.003677	-0.562500	-0.548828	0.226318	0.323348	0.656700	-0.226731	0.642482	75.423489	-82.080665	58.680507	0.071619	0.117702	0.990463	-0.713280	-0.688078	0.133344	0.697211	-0.716027	0.034675	0	0	0
14327	0	0	0	0	0	9.730725	1.430452	0.380287	-0.001791	-0.003422	0.002464	-0.576660	-0.545898	0.228516	0.323339	0.656703	-0.226763	0.642473	75.432563	-82.083752	58.669541	0.071614	0.117643	0.990470	-0.713305	-0.688061	0.133298	0.697185	-0.716053	0.034641	0	0	0
14328	0	0	0	0	0	9.704841	1.408913	0.388508	-0.012151	-0.003889	0.005285	-0.560303	-0.545166	0.223389	0.323354	0.656686	-0.226840	0.642456	75.434562	-82.088804	58.659597	0.071589	0.117556	0.990483	-0.713406	-0.687972	0.133215	0.697085	-0.716153	0.034614	0	0	0
14329	0	0	0	0	0	9.723468	1.377096	0.366853	-0.008061	-0.003706	0.002935	-0.569336	-0.546387	0.230225	0.323369	0.656676	-0.226898	0.642438	75.440056	-82.092213	58.647731	0.071582	0.117490	0.990491	-0.713486	-0.687900	0.133161	0.697004	-0.716233	0.034586	0	0	0
14330	0	0	0	0	0	9.714381	1.342961	0.324742	-0.005282	-0.002465	0.003994	-0.569336	-0.544922	0.230957	0.323366	0.656668	-0.226947	0.642430	75.441657	-82.096344	58.642163	0.071556	0.117423	0.990501	-0.713538	-0.687859	0.133093	0.696953	-0.716284	0.034565	0	0	0
14331	0	0	0	0	0	9.719517	1.311848	0.262992	-0.008444	-0.004098	-0.000864	-0.570801	-0.544189	0.231689	0.323385	0.656667	-0.226986	0.642408	75.453438	-82.097713	58.625310	0.071579	0.117381	0.990504	-0.713599	-0.687799	0.133077	0.696888	-0.716348	0.034531	0	0	0
14332	0	0	0	0	0	9.707021	1.290246	0.311316	0.001095	-0.001807	0.001212	-0.564453	-0.546387	0.233643	0.323371	0.656670	-0.227004	0.642406	75.458960	-82.100206	58.619473	0.071568	0.117337	0.990510	-0.713605	-0.687800	0.133038	0.696883	-0.716354	0.034508	0	0	0
14333	0	0	0	0	0	9.749022	1.295188	0.311864	0.002084	-0.003989	0.004735	-0.566895	-0.545166	0.233887	0.323333	0.656681	-0.227023	0.642406	75.471152	-82.104655	58.609187	0.071549	0.117259	0.990521	-0.713585	-0.687833	0.132971	0.696905	-0.716335	0.034460	0	0	0
14334	0	0	0	0	0	9.718768	1.308342	0.321915	0.003705	-0.000209	-0.006150	-0.563721	-0.537842	0.228516	0.323336	0.656692	-0.227006	0.642400	75.479414	-82.102835	58.602093	0.071580	0.117277	0.990516	-0.713568	-0.687845	0.133007	0.696920	-0.716321	0.034449	0	0	0
14335	0	0	0	0	0	9.725301	1.358148	0.394379	0.008782	-0.002207	-0.004978	-0.574463	-0.543701	0.231689	0.323309	0.656719	-0.226968	0.642399	75.498274	-82.101655	58.588907	0.071618	0.117278	0.990513	-0.713495	-0.687914	0.133038	0.696990	-0.716255	0.034410	0	0	0
14336	0	0	0	0	0	9.747706	1.417138	0.327818	0.004088	0.000183	-0.002351	-0.565674	-0.545410	0.234863	0.323299	0.656725	-0.226962	0.642401	75.501254	-82.101886	58.587368	0.071619	0.117272	0.990514	-0.713478	-0.687932	0.133036	0.697008	-0.716238	0.034402	0	0	0
14337	0	0	0	0	0	9.729114	1.448807	0.349169	0.001309	-0.001058	-0.003409	-0.563721	-0.548584	0.230225	0.323292	0.656735	-0.226952	0.642397	75.509615	-82.101426	58.580481	0.071637	0.117270	0.990513	-0.713458	-0.687950	0.133049	0.697026	-0.716221	0.034385	0	0	0
14338	0	0	0	0	0	9.749392	1.398877	0.356669	-0.001692	0.000666	-0.000391	-0.567627	-0.552734	0.227295	0.323296	0.656727	-0.226969	0.642398	75.505327	-82.102675	58.582936	0.071621	0.117255	0.990516	-0.713482	-0.687930	0.133025	0.697003	-0.716243	0.034389	0	0	0
14339	0	0	0	0	0	9.725963	1.362467	0.334418	-0.000383	-0.000392	-0.003799	-0.559082	-0.549805	0.225586	0.323307	0.656729	-0.226972	0.642389	75.509684	-82.101796	58.577326	0.071640	0.117261	0.990514	-0.713496	-0.687912	0.133042	0.696987	-0.716259	0.034383	0	0	0
14340	0	0	0	0	0	9.728483	1.347188	0.303778	0.001683	0.003048	-0.000154	-0.567383	-0.541504	0.226807	0.323302	0.656718	-0.226975	0.642401	75.497559	-82.102835	58.589645	0.071606	0.117261	0.990516	-0.713497	-0.687916	0.133018	0.696990	-0.716255	0.034407	0	0	0
14341	0	0	0	0	0	9.741887	1.347074	0.343968	0.003706	-0.000209	-0.006150	-0.570313	-0.546875	0.227539	0.323309	0.656728	-0.226958	0.642394	75.505656	-82.100653	58.582338	0.071640	0.117284	0.990511	-0.713483	-0.687922	0.133059	0.697000	-0.716245	0.034397	0	0	0
14342	0	0	0	0	0	9.711572	1.360566	0.354297	0.007464	0.002566	-0.002114	-0.565186	-0.544922	0.231934	0.323290	0.656730	-0.226938	0.642408	75.500801	-82.100673	58.590663	0.071623	0.117294	0.990511	-0.713442	-0.687965	0.133056	0.697044	-0.716202	0.034409	0	0	0
14343	0	0	0	0	0	9.737482	1.381967	0.345877	0.006378	0.000658	-0.002781	-0.566650	-0.545654	0.230713	0.323274	0.656740	-0.226917	0.642414	75.503912	-82.100279	58.590810	0.071626	0.117300	0.990510	-0.713402	-0.688005	0.133064	0.697085	-0.716163	0.034403	0	0	0
14344	0	0	0	0	0	9.730560	1.432062	0.378431	0.006485	0.001032	-0.005091	-0.568115	-0.543213	0.228271	0.323266	0.656749	-0.226893	0.642417	75.507703	-82.098867	58.589839	0.071641	0.117320	0.990507	-0.713366	-0.688038	0.133090	0.697120	-0.716129	0.034400	0	0	0
14345	0	0	0	0	0	9.718804	1.414189	0.367201	0.005292	-0.001249	-0.003448	-0.575195	-0.549805	0.233398	0.323253	0.656764	-0.226876	0.642414	75.518484	-82.098387	58.581652	0.071662	0.117317	0.990506	-0.713333	-0.688070	0.133105	0.697152	-0.716099	0.034377	0	0	0
14346	0	0	0	0	0	9.710564	1.358806	0.413959	0.005283	0.002465	-0.003993	-0.570801	-0.543945	0.228271	0.323247	0.656765	-0.226857	0.642422	75.514724	-82.097379	58.587608	0.071659	0.117339	0.990503	-0.713306	-0.688095	0.133119	0.697180	-0.716071	0.034391	0	0	0
14347	0	0	0	0	0	9.725553	1.365306	0.334749	0.000214	0.000748	-0.004620	-0.563721	-0.544434	0.229248	0.323258	0.656766	-0.226851	0.642419	75.515626	-82.095990	58.586255	0.071674	0.117358	0.990500	-0.713309	-0.688086	0.133143	0.697175	-0.716076	0.034394	0	0	0
14348	0	0	0	0	0	9.723760	1.384282	0.305892	0.009648	0.002667	-0.000234	-0.561523	-0.553711	0.224609	0.323226	0.656770	-0.226829	0.642438	75.509678	-82.097038	58.596944	0.071643	0.117356	0.990502	-0.713254	-0.688147	0.133122	0.697234	-0.716017	0.034404	0	0	0
14349	0	0	0	0	0	9.713760	1.347659	0.323847	0.004901	0.002072	-0.007792	-0.564941	-0.551270	0.227051	0.323238	0.656776	-0.226799	0.642437	75.511155	-82.093578	58.596973	0.071674	0.117407	0.990494	-0.713232	-0.688159	0.133181	0.697254	-0.715998	0.034415	0	0	0
14350	0	0	0	0	0	9.751337	1.387550	0.326400	0.006878	-0.002289	-0.000746	-0.572021	-0.554199	0.231445	0.323211	0.656792	-0.226793	0.642436	75.523951	-82.095053	58.587137	0.071681	0.117373	0.990498	-0.713196	-0.688200	0.133164	0.697290	-0.715964	0.034379	0	0	0
14351	0	0	0	0	0	9.706800	1.398010	0.356136	0.008669	0.001134	-0.003211	-0.568115	-0.546143	0.227539	0.323194	0.656802	-0.226767	0.642444	75.526602	-82.094289	58.588202	0.071686	0.117385	0.990496	-0.713150	-0.688244	0.133178	0.697336	-0.715919	0.034376	0	0	0
14352	0	0	0	0	0	9.737011	1.385277	0.345883	0.004687	0.001324	-0.003171	-0.572754	-0.544922	0.231934	0.323186	0.656805	-0.226754	0.642449	75.526213	-82.093901	58.590410	0.071685	0.117394	0.990495	-0.713128	-0.688266	0.133184	0.697359	-0.715897	0.034379	0	0	0
14353	0	0	0	0	0	9.706689	1.398764	0.356198	0.006487	0.001032	-0.005090	-0.571289	-0.539795	0.230225	0.323179	0.656815	-0.226727	0.642452	75.530009	-82.092202	58.589656	0.071701	0.117418	0.990491	-0.713089	-0.688301	0.133215	0.697398	-0.715859	0.034377	0	0	0
14354	0	0	0	0	0	9.746021	1.419886	0.387817	0.000107	0.000373	-0.002310	-0.568359	-0.545166	0.235107	0.323182	0.656813	-0.226733	0.642450	75.529906	-82.092427	58.588927	0.071701	0.117414	0.990491	-0.713099	-0.688291	0.133211	0.697387	-0.715870	0.034377	0	0	0
14355	0	0	0	0	0	9.708352	1.380618	0.385476	-0.001106	0.005520	-0.001759	-0.567383	-0.546387	0.222656	0.323186	0.656796	-0.226726	0.642468	75.508743	-82.091960	58.610325	0.071661	0.117447	0.990490	-0.713099	-0.688292	0.133206	0.697391	-0.715863	0.034428	0	0	0
14356	0	0	0	0	0	9.764506	1.388997	0.366882	-0.001468	-0.002302	-0.004465	-0.566650	-0.543701	0.233643	0.323199	0.656803	-0.226735	0.642452	75.520644	-82.091373	58.596565	0.071695	0.117439	0.990489	-0.713119	-0.688268	0.133223	0.697368	-0.715887	0.034403	0	0	0
14357	0	0	0	0	0	9.709079	1.384366	0.325938	0.005666	0.002859	-0.000194	-0.564697	-0.538818	0.228760	0.323182	0.656800	-0.226724	0.642467	75.511528	-82.092097	58.608091	0.071665	0.117443	0.990490	-0.713092	-0.688299	0.133206	0.697398	-0.715857	0.034421	0	0	0
14358	0	0	0	0	0	9.736737	1.387013	0.346629	0.001301	0.002655	-0.003953	-0.564453	-0.545654	0.232910	0.323189	0.656794	-0.226717	0.642471	75.504694	-82.091084	58.614847	0.071660	0.117466	0.990488	-0.713093	-0.688296	0.133219	0.697398	-0.715856	0.034441	0	0	0
14359	0	0	0	0	0	9.720706	1.403037	0.337309	0.001096	-0.001806	0.001213	-0.573975	-0.539795	0.217285	0.323170	0.656800	-0.226726	0.642472	75.510989	-82.093266	58.609576	0.071651	0.117427	0.990493	-0.713082	-0.688313	0.133186	0.697409	-0.715846	0.034417	0	0	0
14360	0	0	0	0	0	9.753542	1.374461	0.296245	0.000597	0.001141	-0.000822	-0.566650	-0.544434	0.230713	0.323168	0.656795	-0.226734	0.642475	75.506565	-82.094207	58.613492	0.071634	0.117418	0.990496	-0.713090	-0.688309	0.133168	0.697403	-0.715852	0.034423	0	0	0
14361	0	0	0	0	0	9.750152	1.386772	0.386882	-0.000607	0.002573	0.000275	-0.570801	-0.544189	0.224121	0.323178	0.656778	-0.226755	0.642480	75.493329	-82.095287	58.623981	0.071603	0.117415	0.990498	-0.713127	-0.688276	0.133141	0.697369	-0.715884	0.034449	0	0	0
14362	0	0	0	0	0	9.736696	1.387213	0.346979	0.002887	0.001616	-0.001252	-0.567383	-0.543701	0.231201	0.323170	0.656776	-0.226754	0.642487	75.488759	-82.095922	58.629369	0.071586	0.117413	0.990500	-0.713118	-0.688287	0.133128	0.697379	-0.715874	0.034457	0	0	0
14363	0	0	0	0	0	9.741009	1.353092	0.345207	-0.005069	-0.001718	-0.000628	-0.562012	-0.544189	0.230225	0.323186	0.656769	-0.226785	0.642474	75.491985	-82.097088	58.621992	0.071591	0.117386	0.990502	-0.713169	-0.688238	0.133111	0.697327	-0.715925	0.034445	0	0	0
14364	0	0	0	0	0	9.715080	1.331835	0.353853	0.002662	0.004583	0.002822	-0.574219	-0.547363	0.229248	0.323170	0.656752	-0.226793	0.642497	75.471210	-82.099556	58.643611	0.071525	0.117377	0.990508	-0.713165	-0.688252	0.133057	0.697338	-0.715913	0.034482	0	0	0
14365	0	0	0	0	0	9.756991	1.337300	0.354967	0.000323	0.001120	-0.006930	-0.566650	-0.536621	0.232422	0.323187	0.656755	-0.226778	0.642491	75.473250	-82.096794	58.641251	0.071554	0.117415	0.990502	-0.713165	-0.688243	0.133104	0.697334	-0.715916	0.034489	0	0	0
14366	0	0	0	0	0	9.724916	1.369429	0.336427	0.005666	0.002859	-0.000193	-0.565674	-0.540527	0.235352	0.323169	0.656752	-0.226769	0.642507	75.464208	-82.097836	58.652762	0.071521	0.117414	0.990504	-0.713138	-0.688275	0.133081	0.697365	-0.715885	0.034506	0	0	0
14367	0	0	0	0	0	9.736572	1.387908	0.347679	0.002398	0.000849	-0.002740	-0.563477	-0.546387	0.229980	0.323153	0.656759	-0.226749	0.642514	75.465409	-82.097498	58.654732	0.071520	0.117421	0.990503	-0.713100	-0.688314	0.133088	0.697405	-0.715846	0.034505	0	0	0
14368	0	0	0	0	0	9.722268	1.385392	0.367434	-0.000988	0.002179	-0.003523	-0.562500	-0.544678	0.224854	0.323166	0.656751	-0.226752	0.642515	75.458720	-82.096791	58.660019	0.071516	0.117438	0.990502	-0.713117	-0.688295	0.133095	0.697388	-0.715862	0.034523	0	0	0
14369	0	0	0	0	0	9.749911	1.388130	0.388084	-0.001585	0.001039	-0.002701	-0.563965	-0.551025	0.229004	0.323179	0.656745	-0.226759	0.642512	75.455471	-82.096336	58.661439	0.071517	0.117447	0.990501	-0.713139	-0.688271	0.133101	0.697365	-0.715883	0.034533	0	0	0
14370	0	0	0	0	0	9.717842	1.420210	0.369433	-0.000381	-0.000394	-0.003798	-0.563477	-0.539063	0.222412	0.323188	0.656746	-0.226763	0.642505	75.459696	-82.095847	58.656058	0.071532	0.117447	0.990499	-0.713151	-0.688256	0.133112	0.697351	-0.715898	0.034525	0	0	0
14371	0	0	0	0	0	9.720384	1.404972	0.338545	-0.003865	-0.003151	-0.001725	-0.568359	-0.548828	0.227539	0.323204	0.656747	-0.226792	0.642485	75.470420	-82.096546	58.641412	0.071556	0.117419	0.990501	-0.713198	-0.688209	0.133107	0.697301	-0.715948	0.034497	0	0	0
14372	0	0	0	0	0	9.752388	1.373326	0.357339	-0.001703	0.004379	-0.000937	-0.569580	-0.544922	0.231689	0.323214	0.656728	-0.226802	0.642497	75.451853	-82.096957	58.658276	0.071518	0.117434	0.990502	-0.713221	-0.688188	0.133089	0.697281	-0.715966	0.034538	0	0	0
14373	0	0	0	0	0	9.729018	1.336704	0.335262	0.001693	-0.000665	0.000391	-0.567383	-0.545166	0.226563	0.323203	0.656730	-0.226810	0.642498	75.454109	-82.098508	58.656284	0.071508	0.117408	0.990506	-0.713220	-0.688194	0.133064	0.697283	-0.715964	0.034526	0	0	0
14374	0	0	0	0	0	9.752352	1.373528	0.357540	-0.006057	0.000461	-0.004151	-0.562500	-0.542236	0.224121	0.323232	0.656720	-0.226830	0.642486	75.452034	-82.097700	58.653980	0.071520	0.117417	0.990504	-0.713272	-0.688138	0.133076	0.697229	-0.716016	0.034535	0	0	0
14375	0	0	0	0	0	9.707781	1.384088	0.387423	-0.000978	-0.001535	-0.002977	-0.574463	-0.545898	0.225830	0.323246	0.656721	-0.226843	0.642473	75.459109	-82.097499	58.644597	0.071541	0.117409	0.990503	-0.713298	-0.688109	0.133084	0.697200	-0.716045	0.034519	0	0	0
14376	0	0	0	0	0	9.738015	1.371280	0.377139	-0.003875	0.000563	-0.002271	-0.563477	-0.543701	0.225098	0.323262	0.656712	-0.226861	0.642467	75.455926	-82.097719	58.644673	0.071539	0.117405	0.990504	-0.713336	-0.688071	0.133078	0.697161	-0.716083	0.034526	0	0	0
14377	0	0	0	0	0	9.723719	1.368707	0.396878	0.000705	0.001514	-0.003131	-0.568604	-0.540527	0.233154	0.323276	0.656706	-0.226866	0.642466	75.451638	-82.097021	58.647384	0.071540	0.117419	0.990502	-0.713355	-0.688050	0.133087	0.697142	-0.716101	0.034539	0	0	0
14378	0	0	0	0	0	9.728827	1.338026	0.335522	0.000705	0.001514	-0.003131	-0.559814	-0.543213	0.227051	0.323281	0.656702	-0.226865	0.642467	75.448170	-82.096627	58.650399	0.071537	0.117429	0.990501	-0.713360	-0.688043	0.133092	0.697136	-0.716106	0.034548	0	0	0
14379	0	0	0	0	0	9.737889	1.372095	0.377442	0.001801	-0.000292	-0.001918	-0.565430	-0.547852	0.222656	0.323271	0.656708	-0.226859	0.642468	75.452014	-82.096852	58.647941	0.071540	0.117422	0.990502	-0.713343	-0.688061	0.133090	0.697154	-0.716089	0.034538	0	0	0
14380	0	0	0	0	0	9.712750	1.354371	0.326116	-0.003268	-0.002011	-0.002547	-0.564941	-0.544678	0.225586	0.323284	0.656709	-0.226879	0.642454	75.459746	-82.097289	58.637349	0.071558	0.117403	0.990503	-0.713377	-0.688027	0.133088	0.697117	-0.716126	0.034519	0	0	0
14381	0	0	0	0	0	9.712700	1.354747	0.326047	0.006489	0.001034	-0.005088	-0.564209	-0.546387	0.226074	0.323286	0.656715	-0.226861	0.642453	75.462693	-82.095522	58.635798	0.071577	0.117427	0.990499	-0.713358	-0.688041	0.133119	0.697135	-0.716108	0.034519	0	0	0
14382	0	0	0	0	0	9.727815	1.336263	0.395033	0.000931	-0.001453	-0.007205	-0.566162	-0.546387	0.229980	0.323300	0.656726	-0.226851	0.642438	75.475423	-82.093295	58.622590	0.071624	0.117443	0.990493	-0.713359	-0.688031	0.133164	0.697129	-0.716115	0.034500	0	0	0
14383	0	0	0	0	0	9.724208	1.374303	0.336997	0.010472	0.000845	-0.005127	-0.571045	-0.546631	0.224609	0.323281	0.656743	-0.226811	0.642444	75.482368	-82.091538	58.620772	0.071644	0.117467	0.990489	-0.713294	-0.688092	0.133198	0.697194	-0.716053	0.034491	0	0	0
14384	0	0	0	0	0	9.719780	1.409097	0.338753	0.002017	0.000455	-0.006537	-0.562988	-0.547607	0.224365	0.323292	0.656749	-0.226798	0.642438	75.487402	-82.089406	58.615961	0.071673	0.117492	0.990484	-0.713288	-0.688090	0.133236	0.697197	-0.716050	0.034489	0	0	0
14385	0	0	0	0	0	9.699886	1.335577	0.374438	0.004199	0.000558	-0.004658	-0.564941	-0.541504	0.234375	0.323300	0.656752	-0.226789	0.642434	75.490394	-82.087957	58.612940	0.071692	0.117510	0.990481	-0.713286	-0.688087	0.133262	0.697197	-0.716050	0.034488	0	0	0
14386	0	0	0	0	0	9.731294	1.428491	0.349931	0.004796	0.001699	-0.005479	-0.566895	-0.548096	0.225098	0.323300	0.656757	-0.226768	0.642436	75.490960	-82.086234	58.614248	0.071705	0.117537	0.990476	-0.713261	-0.688107	0.133292	0.697221	-0.716026	0.034494	0	0	0
14387	0	0	0	0	0	9.693622	1.389488	0.347472	0.003592	0.003131	-0.004382	-0.561768	-0.545898	0.226318	0.323299	0.656756	-0.226745	0.642445	75.484439	-82.084589	58.622766	0.071702	0.117572	0.990472	-0.713236	-0.688129	0.133315	0.697246	-0.716000	0.034516	0	0	0
14388	0	0	0	0	0	9.739824	1.361235	0.346619	-0.001249	-0.001557	-0.009083	-0.556396	-0.548096	0.225342	0.323327	0.656766	-0.226736	0.642424	75.498247	-82.081334	58.607207	0.071763	0.117600	0.990465	-0.713251	-0.688101	0.133378	0.697225	-0.716022	0.034498	0	0	0
14389	0	0	0	0	0	9.744075	1.327822	0.344700	0.000933	-0.001454	-0.007204	-0.568115	-0.538574	0.225586	0.323345	0.656776	-0.226726	0.642408	75.510988	-82.078687	58.593638	0.071815	0.117622	0.990458	-0.713256	-0.688086	0.133430	0.697215	-0.716033	0.034480	0	0	0
14390	0	0	0	0	0	9.742237	1.347039	0.315688	0.004689	0.001326	-0.003169	-0.565918	-0.546875	0.230469	0.323338	0.656780	-0.226713	0.642413	75.510595	-82.078299	58.595851	0.071814	0.117631	0.990457	-0.713234	-0.688108	0.133436	0.697238	-0.716010	0.034483	0	0	0
14391	0	0	0	0	0	9.722727	1.375748	0.396844	0.006599	0.001408	-0.007396	-0.563965	-0.544922	0.228271	0.323338	0.656791	-0.226677	0.642414	75.515294	-82.075265	58.594225	0.071845	0.117674	0.990450	-0.713192	-0.688140	0.133490	0.697277	-0.715972	0.034485	0	0	0
14392	0	0	0	0	0	9.709201	1.376771	0.356693	0.005405	-0.000874	-0.005753	-0.563232	-0.541748	0.235107	0.323333	0.656806	-0.226657	0.642408	75.526738	-82.073759	58.584901	0.071877	0.117684	0.990446	-0.713163	-0.688164	0.133522	0.697303	-0.715947	0.034465	0	0	0
