// General information: 
//  MT Manager version: 2022.2.0 
//  XDA version: 2022.2.0 build 7381 rev 124627 built on 2023-07-19
// Device information: 
//  DeviceId: 10B426DB
//  ProductCode: MTW2-3A7G6
//  Firmware Version: 4.14.0
//  Hardware Version: 3.0.0
// Device settings: 
//  Filter Profile: human(46.1)
//  Option Flags: Orientation Smoother Disabled, Position/Velocity Smoother Disabled, Continuous Zero Rotation Update Disabled, AHS Disabled, ICC Disabled
// Coordinate system: ENU
PacketCounter	SampleTimeFine	Year	Month	Day	Second	Acc_X	Acc_Y	Acc_Z	Gyr_X	Gyr_Y	Gyr_Z	Mag_X	Mag_Y	Mag_Z	Quat_q0	Quat_q1	Quat_q2	Quat_q3	Roll	Pitch	Yaw	Mat[1][1]	Mat[2][1]	Mat[3][1]	Mat[1][2]	Mat[2][2]	Mat[3][2]	Mat[1][3]	Mat[2][3]	Mat[3][3]	Vel_E	Vel_N	Vel_U
13933	0	0	0	0	0	9.828736	0.123412	-0.552831	0.010945	0.012926	-0.000465	-0.813232	-0.154053	-0.391113	0.685872	0.075240	-0.721090	0.062829	166.191563	-86.973958	-154.982298	-0.047837	-0.022325	0.998606	-0.194695	0.980783	0.012600	-0.979697	-0.193820	-0.051264	0	0	0
13934	0	0	0	0	0	9.834066	0.164856	-0.557722	0.011753	0.010142	0.000820	-0.805420	-0.160400	-0.389648	0.685898	0.075272	-0.721059	0.062864	166.170189	-86.978338	-154.955464	-0.047757	-0.022315	0.998610	-0.194788	0.980765	0.012601	-0.979682	-0.193915	-0.051185	0	0	0
13935	0	0	0	0	0	9.816171	0.137197	-0.566197	0.013909	0.015590	-0.005925	-0.806396	-0.157959	-0.395752	0.685944	0.075336	-0.721006	0.062888	166.064659	-86.984903	-154.842833	-0.047610	-0.022360	0.998616	-0.194910	0.980739	0.012667	-0.979665	-0.194037	-0.051051	0	0	0
13936	0	0	0	0	0	9.790152	0.161070	-0.522919	0.012953	0.017512	0.001017	-0.803955	-0.155273	-0.399658	0.685996	0.075370	-0.720950	0.062931	166.025636	-86.993433	-154.797526	-0.047458	-0.022334	0.998624	-0.195016	0.980718	0.012666	-0.979651	-0.194147	-0.050898	0	0	0
13937	0	0	0	0	0	9.782992	0.140214	-0.571221	0.012953	0.017511	0.001019	-0.806396	-0.164063	-0.382568	0.686048	0.075404	-0.720893	0.062976	165.987248	-87.002016	-154.752680	-0.047305	-0.022308	0.998631	-0.195126	0.980696	0.012664	-0.979637	-0.194260	-0.050744	0	0	0
13938	0	0	0	0	0	9.788364	0.181606	-0.575520	0.014971	0.018264	-0.000015	-0.800781	-0.162354	-0.381836	0.686102	0.075449	-0.720833	0.063024	165.935884	-87.010785	-154.693759	-0.047144	-0.022291	0.998639	-0.195254	0.980671	0.012672	-0.979619	-0.194391	-0.050585	0	0	0
13939	0	0	0	0	0	9.795694	0.202315	-0.523918	0.013835	0.015155	-0.001805	-0.810547	-0.159180	-0.397217	0.686146	0.075498	-0.720783	0.063061	165.873672	-87.017661	-154.624552	-0.047008	-0.022297	0.998646	-0.195374	0.980647	0.012698	-0.979602	-0.194512	-0.050455	0	0	0
13940	0	0	0	0	0	9.813916	0.154303	-0.540829	0.016116	0.017536	-0.000734	-0.799072	-0.154541	-0.392090	0.686196	0.075551	-0.720724	0.063112	165.816466	-87.025877	-154.558968	-0.046854	-0.022289	0.998653	-0.195517	0.980618	0.012713	-0.979581	-0.194658	-0.050303	0	0	0
13941	0	0	0	0	0	9.834677	0.164927	-0.546818	0.018341	0.011821	-0.000579	-0.801270	-0.156494	-0.392090	0.686226	0.075612	-0.720685	0.063168	165.778410	-87.031066	-154.511364	-0.046753	-0.022289	0.998658	-0.195680	0.980585	0.012724	-0.979553	-0.194822	-0.050207	0	0	0
13942	0	0	0	0	0	9.787907	0.177718	-0.496786	0.015375	0.009159	0.004882	-0.808594	-0.159912	-0.387939	0.686246	0.075640	-0.720658	0.063229	165.804282	-87.035517	-154.530010	-0.046691	-0.022240	0.998662	-0.195802	0.980561	0.012683	-0.979531	-0.194948	-0.050138	0	0	0
13943	0	0	0	0	0	9.798701	0.184616	-0.536078	0.013234	0.011465	-0.001898	-0.801758	-0.158936	-0.396484	0.686277	0.075688	-0.720620	0.063262	165.749922	-87.040322	-154.469011	-0.046591	-0.022254	0.998666	-0.195916	0.980538	0.012710	-0.979513	-0.195062	-0.050044	0	0	0
13944	0	0	0	0	0	9.814171	0.153657	-0.536380	0.008587	0.010106	0.002588	-0.804443	-0.157715	-0.395508	0.686303	0.075704	-0.720591	0.063293	165.743820	-87.044923	-154.459136	-0.046515	-0.022227	0.998670	-0.195979	0.980526	0.012695	-0.979504	-0.195128	-0.049965	0	0	0
13945	0	0	0	0	0	9.793545	0.142761	-0.527938	0.006907	0.011408	0.001615	-0.810791	-0.164063	-0.391357	0.686335	0.075718	-0.720557	0.063316	165.723547	-87.050190	-154.435899	-0.046423	-0.022207	0.998675	-0.196029	0.980516	0.012690	-0.979499	-0.195181	-0.049872	0	0	0
13946	0	0	0	0	0	9.826964	0.139746	-0.518463	0.010681	0.011285	-0.002557	-0.809326	-0.162354	-0.389648	0.686366	0.075760	-0.720521	0.063337	165.659462	-87.054710	-154.366649	-0.046325	-0.022229	0.998679	-0.196118	0.980498	0.012727	-0.979485	-0.195269	-0.049781	0	0	0
13947	0	0	0	0	0	9.844959	0.167899	-0.507744	0.010419	0.009656	-0.004661	-0.803467	-0.159180	-0.393066	0.686392	0.075809	-0.720490	0.063350	165.578033	-87.058109	-154.280161	-0.046238	-0.022273	0.998682	-0.196205	0.980479	0.012783	-0.979472	-0.195356	-0.049706	0	0	0
13948	0	0	0	0	0	9.835075	0.164508	-0.539745	0.008324	0.008476	0.000486	-0.813477	-0.164551	-0.390137	0.686412	0.075833	-0.720466	0.063373	165.553068	-87.061468	-154.251389	-0.046174	-0.022271	0.998685	-0.196270	0.980466	0.012790	-0.979462	-0.195422	-0.049644	0	0	0
13949	0	0	0	0	0	9.847794	0.150771	-0.523073	0.009197	0.009954	0.000174	-0.806396	-0.159912	-0.389893	0.686439	0.075860	-0.720436	0.063398	165.522099	-87.065718	-154.216130	-0.046094	-0.022267	0.998689	-0.196343	0.980452	0.012798	-0.979451	-0.195496	-0.049565	0	0	0
13950	0	0	0	0	0	9.822536	0.177850	-0.553309	0.004068	0.017268	0.003879	-0.807861	-0.161377	-0.382568	0.686491	0.075856	-0.720384	0.063422	165.506676	-87.074387	-154.199173	-0.045951	-0.022215	0.998697	-0.196368	0.980447	0.012773	-0.979453	-0.195525	-0.049415	0	0	0
13951	0	0	0	0	0	9.819909	0.194861	-0.534083	-0.002053	0.026159	0.000080	-0.803955	-0.168945	-0.391113	0.686580	0.075840	-0.720302	0.063413	165.422217	-87.087609	-154.116808	-0.045712	-0.022180	0.998708	-0.196331	0.980454	0.012788	-0.979472	-0.195493	-0.049173	0	0	0
13952	0	0	0	0	0	9.835451	0.164003	-0.533008	-0.010923	0.022093	0.000412	-0.808350	-0.158691	-0.389160	0.686656	0.075798	-0.720237	0.063374	165.345183	-87.098410	-154.046383	-0.045515	-0.022154	0.998718	-0.196217	0.980477	0.012807	-0.979504	-0.195383	-0.048974	0	0	0
13953	0	0	0	0	0	9.781517	0.156239	-0.532019	-0.009583	0.018735	0.003395	-0.807617	-0.164063	-0.404785	0.686720	0.075747	-0.720184	0.063346	165.312765	-87.107988	-154.020446	-0.045355	-0.022101	0.998726	-0.196105	0.980499	0.012792	-0.979533	-0.195275	-0.048805	0	0	0
13954	0	0	0	0	0	9.768986	0.169755	-0.545648	-0.006625	0.025224	0.000457	-0.808838	-0.167236	-0.389648	0.686807	0.075714	-0.720107	0.063320	165.229127	-87.120684	-153.941607	-0.045126	-0.022066	0.998738	-0.196022	0.980516	0.012807	-0.979561	-0.195196	-0.048572	0	0	0
13955	0	0	0	0	0	9.779005	0.173329	-0.510287	-0.009178	0.025046	-0.000204	-0.806152	-0.165527	-0.397461	0.686895	0.075675	-0.720030	0.063284	165.138091	-87.133227	-153.856748	-0.044897	-0.022037	0.998749	-0.195915	0.980537	0.012828	-0.979593	-0.195094	-0.048341	0	0	0
13956	0	0	0	0	0	9.805354	0.149737	-0.549670	-0.006339	0.019185	-0.002466	-0.804688	-0.169678	-0.396973	0.686961	0.075659	-0.719972	0.063250	165.037436	-87.142055	-153.760103	-0.044722	-0.022045	0.998756	-0.195846	0.980550	0.012873	-0.979614	-0.195027	-0.048169	0	0	0
13957	0	0	0	0	0	9.830737	0.122477	-0.516249	-0.010991	0.017827	0.002015	-0.805176	-0.162109	-0.398438	0.687022	0.075608	-0.719922	0.063212	164.990139	-87.150918	-153.720079	-0.044568	-0.022007	0.998764	-0.195721	0.980575	0.012873	-0.979646	-0.194905	-0.048009	0	0	0
13958	0	0	0	0	0	9.830834	0.122141	-0.514475	-0.014771	0.017947	0.006186	-0.811768	-0.163330	-0.394287	0.687084	0.075532	-0.719874	0.063177	164.983454	-87.160414	-153.722527	-0.044420	-0.021932	0.998772	-0.195563	0.980607	0.012836	-0.979685	-0.194752	-0.047848	0	0	0
13959	0	0	0	0	0	9.818286	0.135642	-0.528651	-0.008958	0.014746	-0.001531	-0.804932	-0.153320	-0.391357	0.687135	0.075502	-0.719833	0.063133	164.906514	-87.167043	-153.651657	-0.044290	-0.021936	0.998778	-0.195459	0.980627	0.012870	-0.979711	-0.194650	-0.047719	0	0	0
13960	0	0	0	0	0	9.813062	0.094257	-0.521292	-0.008152	0.011966	-0.000246	-0.804199	-0.155029	-0.399658	0.687175	0.075469	-0.719802	0.063094	164.852337	-87.172192	-153.603320	-0.044191	-0.021933	0.998782	-0.195359	0.980647	0.012891	-0.979736	-0.194551	-0.047620	0	0	0
13961	0	0	0	0	0	9.789631	0.100935	-0.495738	-0.005859	0.010515	-0.001687	-0.803711	-0.156982	-0.400635	0.687209	0.075451	-0.719774	0.063059	164.787719	-87.176450	-153.543010	-0.044101	-0.021947	0.998786	-0.195285	0.980661	0.012926	-0.979754	-0.194478	-0.047534	0	0	0
13962	0	0	0	0	0	9.777048	0.114951	-0.510546	-0.004098	0.009641	-0.004825	-0.808105	-0.157715	-0.387939	0.687241	0.075447	-0.719747	0.063015	164.690877	-87.179763	-153.450058	-0.044014	-0.021992	0.998789	-0.195219	0.980674	0.012991	-0.979772	-0.194411	-0.047457	0	0	0
13963	0	0	0	0	0	9.836701	0.088543	-0.542817	-0.006458	0.006832	-0.001789	-0.795410	-0.164795	-0.394775	0.687263	0.075429	-0.719732	0.062977	164.635730	-87.181963	-153.399575	-0.043960	-0.022014	0.998791	-0.195140	0.980689	0.013026	-0.979790	-0.194331	-0.047407	0	0	0
13964	0	0	0	0	0	9.813246	0.095223	-0.517641	0.003218	0.008117	-0.000824	-0.805664	-0.165039	-0.395752	0.687284	0.075441	-0.719710	0.062977	164.591524	-87.184884	-153.354347	-0.043897	-0.022026	0.998793	-0.195157	0.980685	0.013049	-0.979789	-0.194349	-0.047348	0	0	0
13965	0	0	0	0	0	9.849128	0.150863	-0.497290	0.002604	0.008265	0.001592	-0.805664	-0.165283	-0.400635	0.687307	0.075441	-0.719688	0.062983	164.574972	-87.188387	-153.337308	-0.043836	-0.022012	0.998796	-0.195165	0.980684	0.013047	-0.979790	-0.194358	-0.047285	0	0	0
13966	0	0	0	0	0	9.818620	0.136453	-0.522195	0.003410	0.005485	0.002876	-0.802002	-0.159424	-0.400391	0.687318	0.075443	-0.719676	0.062996	164.579174	-87.190481	-153.340263	-0.043805	-0.021993	0.998798	-0.195186	0.980680	0.013034	-0.979787	-0.194381	-0.047251	0	0	0
13967	0	0	0	0	0	9.815861	0.153382	-0.504593	0.004557	0.004760	0.002155	-0.809570	-0.155762	-0.393311	0.687327	0.075449	-0.719666	0.063010	164.580926	-87.192133	-153.340429	-0.043779	-0.021980	0.998799	-0.195213	0.980674	0.013024	-0.979783	-0.194408	-0.047224	0	0	0
13968	0	0	0	0	0	9.815888	0.152893	-0.504219	0.006153	0.003031	0.007242	-0.811768	-0.167236	-0.389648	0.687327	0.075441	-0.719664	0.063044	164.645820	-87.193538	-153.403260	-0.043781	-0.021921	0.998801	-0.195247	0.980668	0.012965	-0.979776	-0.194445	-0.047215	0	0	0
13969	0	0	0	0	0	9.806095	0.148631	-0.536588	0.007626	0.008190	0.007036	-0.810059	-0.165527	-0.394287	0.687345	0.075438	-0.719643	0.063086	164.693843	-87.197825	-153.447992	-0.043731	-0.021853	0.998804	-0.195302	0.980658	0.012905	-0.979768	-0.194504	-0.047154	0	0	0
13970	0	0	0	0	0	9.795265	0.140699	-0.495587	0.008158	0.007613	0.008733	-0.798096	-0.162109	-0.389404	0.687359	0.075437	-0.719625	0.063139	164.761148	-87.201844	-153.511086	-0.043693	-0.021774	0.998808	-0.195372	0.980645	0.012831	-0.979755	-0.194578	-0.047101	0	0	0
13971	0	0	0	0	0	9.795314	0.139842	-0.494860	0.005606	0.007436	0.008067	-0.802246	-0.169678	-0.395508	0.687375	0.075424	-0.719607	0.063178	164.822322	-87.205865	-153.570143	-0.043652	-0.021698	0.998811	-0.195406	0.980639	0.012763	-0.979750	-0.194617	-0.047047	0	0	0
13972	0	0	0	0	0	9.798154	0.121913	-0.511166	0.009646	0.008941	0.006009	-0.805176	-0.170898	-0.397705	0.687395	0.075437	-0.719583	0.063227	164.855157	-87.210278	-153.597948	-0.043594	-0.021642	0.998815	-0.195491	0.980623	0.012716	-0.979736	-0.194705	-0.046980	0	0	0
13973	0	0	0	0	0	9.816143	0.149235	-0.500329	0.007162	0.013022	0.003750	-0.805420	-0.157959	-0.396240	0.687432	0.075444	-0.719544	0.063259	164.851278	-87.216738	-153.590983	-0.043491	-0.021597	0.998820	-0.195543	0.980613	0.012689	-0.979730	-0.194760	-0.046871	0	0	0
13974	0	0	0	0	0	9.841420	0.121362	-0.467700	0.008772	0.007462	0.006319	-0.807129	-0.163818	-0.397461	0.687447	0.075451	-0.719525	0.063304	164.892322	-87.220418	-153.627777	-0.043447	-0.021541	0.998823	-0.195614	0.980600	0.012639	-0.979718	-0.194835	-0.046818	0	0	0
13975	0	0	0	0	0	9.805342	0.141226	-0.458331	0.008324	0.008465	0.000511	-0.801758	-0.166260	-0.398682	0.687468	0.075474	-0.719500	0.063327	164.866254	-87.223874	-153.597929	-0.043382	-0.021537	0.998826	-0.195678	0.980587	0.012645	-0.979708	-0.194900	-0.046754	0	0	0
13976	0	0	0	0	0	9.828891	0.134460	-0.482056	0.011681	0.005862	0.002463	-0.802979	-0.156006	-0.398438	0.687478	0.075506	-0.719484	0.063369	164.869705	-87.226108	-153.595395	-0.043346	-0.021521	0.998828	-0.195780	0.980566	0.012632	-0.979689	-0.195003	-0.046717	0	0	0
13977	0	0	0	0	0	9.808197	0.123469	-0.474281	0.008787	0.003632	0.003801	-0.807373	-0.159180	-0.400879	0.687480	0.075521	-0.719477	0.063403	164.896335	-87.227382	-153.618042	-0.043335	-0.021494	0.998829	-0.195848	0.980553	0.012604	-0.979676	-0.195072	-0.046701	0	0	0
13978	0	0	0	0	0	9.828919	0.133811	-0.481656	0.011901	-0.004429	0.001126	-0.805908	-0.157715	-0.390381	0.687454	0.075556	-0.719496	0.063433	164.918364	-87.223766	-153.634739	-0.043397	-0.021510	0.998826	-0.195939	0.980535	0.012603	-0.979655	-0.195163	-0.046767	0	0	0
13979	0	0	0	0	0	9.846841	0.161417	-0.472094	0.010207	0.000703	0.002669	-0.812500	-0.166992	-0.398193	0.687446	0.075581	-0.719498	0.063467	164.941893	-87.223251	-153.653466	-0.043412	-0.021500	0.998826	-0.196021	0.980519	0.012586	-0.979638	-0.195245	-0.046781	0	0	0
13980	0	0	0	0	0	9.834249	0.174787	-0.487768	0.007382	0.002730	0.002414	-0.800049	-0.160400	-0.395264	0.687445	0.075598	-0.719495	0.063492	164.953439	-87.223669	-153.661646	-0.043409	-0.021490	0.998826	-0.196079	0.980508	0.012574	-0.979627	-0.195303	-0.046776	0	0	0
13981	0	0	0	0	0	9.826157	0.150302	-0.464148	0.007451	0.006986	0.000820	-0.812744	-0.159912	-0.385986	0.687461	0.075618	-0.719476	0.063512	164.934993	-87.226354	-153.639930	-0.043359	-0.021486	0.998829	-0.196134	0.980496	0.012577	-0.979618	-0.195359	-0.046727	0	0	0
13982	0	0	0	0	0	9.816371	0.146667	-0.496601	0.007997	0.002580	-0.000002	-0.808838	-0.164551	-0.398438	0.687460	0.075645	-0.719472	0.063530	164.920449	-87.226302	-153.621746	-0.043353	-0.021500	0.998828	-0.196197	0.980484	0.012589	-0.979606	-0.195421	-0.046725	0	0	0
13983	0	0	0	0	0	9.813608	0.163542	-0.479012	0.005072	0.008011	0.006374	-0.807861	-0.160645	-0.388428	0.687479	0.075636	-0.719452	0.063561	164.960927	-87.230382	-153.660387	-0.043304	-0.021439	0.998832	-0.196227	0.980478	0.012538	-0.979602	-0.195455	-0.046665	0	0	0
13984	0	0	0	0	0	9.780325	0.166146	-0.486832	0.005430	0.006234	0.001850	-0.810059	-0.160156	-0.403320	0.687492	0.075648	-0.719437	0.063578	164.954068	-87.232649	-153.651220	-0.043265	-0.021429	0.998834	-0.196266	0.980471	0.012533	-0.979596	-0.195495	-0.046625	0	0	0
13985	0	0	0	0	0	9.816475	0.145762	-0.494809	0.000327	0.005883	0.000514	-0.802002	-0.158936	-0.385010	0.687507	0.075644	-0.719424	0.063571	164.931361	-87.234678	-153.629324	-0.043225	-0.021429	0.998836	-0.196252	0.980473	0.012543	-0.979600	-0.195482	-0.046586	0	0	0
13986	0	0	0	0	0	9.831635	0.190681	-0.467500	-0.000016	0.003830	0.002519	-0.800293	-0.165771	-0.396729	0.687513	0.075633	-0.719419	0.063568	164.937009	-87.235749	-153.636117	-0.043211	-0.021416	0.998836	-0.196232	0.980477	0.012533	-0.979605	-0.195462	-0.046570	0	0	0
13987	0	0	0	0	0	9.815399	0.141950	-0.420778	-0.000547	0.004406	0.000822	-0.809814	-0.161377	-0.397949	0.687523	0.075627	-0.719412	0.063559	164.921868	-87.237007	-153.622298	-0.043186	-0.021417	0.998837	-0.196210	0.980482	0.012540	-0.979611	-0.195440	-0.046545	0	0	0
13988	0	0	0	0	0	9.823549	0.166071	-0.443531	-0.000016	0.003830	0.002519	-0.799072	-0.156494	-0.388672	0.687529	0.075618	-0.719406	0.063558	164.926092	-87.238114	-153.627370	-0.043170	-0.021404	0.998838	-0.196195	0.980485	0.012531	-0.979614	-0.195426	-0.046527	0	0	0
13989	0	0	0	0	0	9.782118	0.144497	-0.428515	-0.003183	0.003805	0.004268	-0.810303	-0.156982	-0.390137	0.687537	0.075590	-0.719403	0.063550	164.950809	-87.239552	-153.654968	-0.043158	-0.021372	0.998840	-0.196145	0.980495	0.012505	-0.979625	-0.195378	-0.046509	0	0	0
13990	0	0	0	0	0	9.790286	0.168300	-0.451071	-0.001178	0.008386	0.005759	-0.807373	-0.165039	-0.388672	0.687559	0.075560	-0.719385	0.063555	164.979952	-87.243575	-153.686067	-0.043107	-0.021318	0.998843	-0.196110	0.980503	0.012463	-0.979634	-0.195346	-0.046447	0	0	0
13991	0	0	0	0	0	9.816643	0.144116	-0.491951	-0.002567	0.003655	0.001851	-0.801270	-0.158447	-0.397705	0.687566	0.075543	-0.719380	0.063542	164.977781	-87.244570	-153.686393	-0.043092	-0.021310	0.998844	-0.196067	0.980511	0.012460	-0.979643	-0.195304	-0.046430	0	0	0
13992	0	0	0	0	0	9.795940	0.133305	-0.484165	-0.002841	0.005857	0.002263	-0.805664	-0.156250	-0.388672	0.687581	0.075525	-0.719369	0.063530	164.971910	-87.246713	-153.683013	-0.043057	-0.021296	0.998846	-0.196024	0.980520	0.012455	-0.979653	-0.195262	-0.046393	0	0	0
13993	0	0	0	0	0	9.801311	0.174421	-0.489791	-0.002653	0.003229	0.005965	-0.799561	-0.156494	-0.388916	0.687586	0.075492	-0.719368	0.063530	165.018362	-87.248083	-153.732067	-0.043054	-0.021248	0.998847	-0.195979	0.980530	0.012411	-0.979663	-0.195219	-0.046380	0	0	0
13994	0	0	0	0	0	9.826514	0.146695	-0.457704	-0.007413	0.004931	0.002623	-0.805908	-0.156982	-0.395020	0.687598	0.075454	-0.719363	0.063501	165.018504	-87.249732	-153.737706	-0.043030	-0.021231	0.998848	-0.195885	0.980549	0.012404	-0.979682	-0.195125	-0.046352	0	0	0
13995	0	0	0	0	0	9.837474	0.153462	-0.497648	-0.007483	0.000675	0.004216	-0.808838	-0.165771	-0.407715	0.687596	0.075413	-0.719371	0.063477	165.049965	-87.249428	-153.774522	-0.043048	-0.021206	0.998848	-0.195792	0.980567	0.012380	-0.979700	-0.195034	-0.046364	0	0	0
13996	0	0	0	0	0	9.837481	0.153202	-0.497578	-0.006867	0.000526	0.001800	-0.803223	-0.157227	-0.393311	0.687594	0.075382	-0.719379	0.063446	165.052474	-87.248647	-153.782089	-0.043063	-0.021207	0.998847	-0.195706	0.980584	0.012381	-0.979717	-0.194947	-0.046377	0	0	0
13997	0	0	0	0	0	9.847272	0.156462	-0.464733	-0.009231	-0.002279	0.004833	-0.805176	-0.161865	-0.395020	0.687582	0.075333	-0.719399	0.063416	165.099075	-87.246797	-153.835066	-0.043112	-0.021181	0.998846	-0.195597	0.980607	0.012352	-0.979736	-0.194838	-0.046419	0	0	0
13998	0	0	0	0	0	9.816762	0.141762	-0.490263	-0.012071	0.003577	0.007098	-0.808105	-0.153076	-0.386475	0.687591	0.075264	-0.719400	0.063386	165.151061	-87.248407	-153.895105	-0.043109	-0.021123	0.998847	-0.195458	0.980635	0.012303	-0.979764	-0.194702	-0.046403	0	0	0
13999	0	0	0	0	0	9.796043	0.130621	-0.482806	-0.008357	-0.000803	0.004526	-0.812988	-0.159424	-0.396484	0.687583	0.075219	-0.719414	0.063359	165.190055	-87.247326	-153.939965	-0.043142	-0.021098	0.998846	-0.195357	0.980655	0.012276	-0.979783	-0.194602	-0.046429	0	0	0
14000	0	0	0	0	0	9.790462	0.164660	-0.448595	-0.011182	0.001225	0.004270	-0.808838	-0.162109	-0.393066	0.687584	0.075163	-0.719423	0.063320	165.218575	-87.247154	-153.976206	-0.043158	-0.021072	0.998846	-0.195224	0.980682	0.012253	-0.979809	-0.194470	-0.046438	0	0	0
14001	0	0	0	0	0	9.834729	0.168289	-0.480330	-0.009232	-0.002280	0.004834	-0.802490	-0.159912	-0.388916	0.687571	0.075114	-0.719443	0.063291	165.265054	-87.245296	-154.029060	-0.043207	-0.021046	0.998844	-0.195115	0.980704	0.012224	-0.979828	-0.194361	-0.046480	0	0	0
14002	0	0	0	0	0	9.826582	0.143506	-0.457261	-0.010652	0.000647	0.005968	-0.800293	-0.156250	-0.396729	0.687569	0.075057	-0.719454	0.063262	165.313544	-87.245057	-154.084515	-0.043231	-0.021006	0.998844	-0.194995	0.980729	0.012186	-0.979851	-0.194243	-0.046494	0	0	0
14003	0	0	0	0	0	9.844764	0.094944	-0.475375	-0.015154	0.003977	0.004737	-0.810303	-0.157471	-0.397461	0.687581	0.074986	-0.719453	0.063214	165.336568	-87.246649	-154.117285	-0.043218	-0.020969	0.998846	-0.194827	0.980762	0.012160	-0.979885	-0.194077	-0.046472	0	0	0
14004	0	0	0	0	0	9.808679	0.114776	-0.466421	-0.008903	0.003600	0.005353	-0.800293	-0.161133	-0.399170	0.687590	0.074933	-0.719453	0.063187	165.370616	-87.248051	-154.157834	-0.043211	-0.020928	0.998847	-0.194715	0.980785	0.012126	-0.979908	-0.193967	-0.046456	0	0	0
14005	0	0	0	0	0	9.829436	0.125105	-0.473378	-0.013390	0.003102	0.001600	-0.806885	-0.158936	-0.395508	0.687599	0.074880	-0.719454	0.063134	165.361156	-87.248704	-154.157070	-0.043200	-0.020924	0.998847	-0.194566	0.980814	0.012131	-0.979938	-0.193818	-0.046443	0	0	0
14006	0	0	0	0	0	9.808726	0.114145	-0.465594	-0.010323	0.006527	0.006489	-0.805908	-0.164063	-0.404053	0.687618	0.074819	-0.719444	0.063109	165.397776	-87.251892	-154.200695	-0.043166	-0.020867	0.998850	-0.194445	0.980839	0.012087	-0.979963	-0.193700	-0.046396	0	0	0
14007	0	0	0	0	0	9.805962	0.131048	-0.447971	-0.011369	0.003854	0.000573	-0.801758	-0.160889	-0.395508	0.687630	0.074776	-0.719442	0.063059	165.375343	-87.252812	-154.185784	-0.043146	-0.020871	0.998851	-0.194317	0.980864	0.012101	-0.979989	-0.193571	-0.046376	0	0	0
14008	0	0	0	0	0	9.842095	0.110679	-0.455999	-0.010237	0.006955	0.002376	-0.806885	-0.154785	-0.395508	0.687652	0.074731	-0.719429	0.063021	165.362450	-87.255664	-154.179615	-0.043099	-0.020854	0.998853	-0.194201	0.980887	0.012099	-0.980014	-0.193457	-0.046325	0	0	0
14009	0	0	0	0	0	9.819770	0.120755	-0.504125	-0.007943	0.005505	0.000934	-0.817139	-0.161133	-0.396240	0.687669	0.074698	-0.719420	0.062986	165.341132	-87.257551	-154.163854	-0.043064	-0.020851	0.998855	-0.194106	0.980906	0.012108	-0.980035	-0.193362	-0.046289	0	0	0
14010	0	0	0	0	0	9.808844	0.113437	-0.463273	-0.005134	0.007304	0.003713	-0.805908	-0.160400	-0.388672	0.687689	0.074664	-0.719405	0.062970	165.347507	-87.260706	-154.174336	-0.043018	-0.020820	0.998857	-0.194035	0.980920	0.012089	-0.980051	-0.193293	-0.046237	0	0	0
14011	0	0	0	0	0	9.817045	0.137552	-0.485774	-0.004244	0.004954	0.000881	-0.806885	-0.161865	-0.393799	0.687702	0.074644	-0.719397	0.062948	165.329329	-87.262281	-154.159598	-0.042988	-0.020819	0.998859	-0.193976	0.980932	0.012097	-0.980064	-0.193235	-0.046207	0	0	0
14012	0	0	0	0	0	9.808905	0.112984	-0.462096	-0.007156	0.006551	0.004742	-0.807861	-0.160156	-0.390869	0.687720	0.074603	-0.719386	0.062930	165.347947	-87.265126	-154.183058	-0.042952	-0.020780	0.998861	-0.193893	0.980949	0.012069	-0.980082	-0.193153	-0.046163	0	0	0
14013	0	0	0	0	0	9.826886	0.140522	-0.451608	0.007454	0.006982	0.000829	-0.805420	-0.168213	-0.387451	0.687736	0.074622	-0.719367	0.062950	165.329684	-87.267817	-154.161525	-0.042902	-0.020775	0.998863	-0.193948	0.980937	0.012072	-0.980073	-0.193210	-0.046114	0	0	0
14014	0	0	0	0	0	9.785440	0.119246	-0.436174	-0.000746	0.010862	-0.000347	-0.812988	-0.162842	-0.399170	0.687768	0.074622	-0.719337	0.062942	165.279133	-87.272277	-154.111713	-0.042814	-0.020779	0.998867	-0.193936	0.980940	0.012093	-0.980080	-0.193198	-0.046028	0	0	0
14015	0	0	0	0	0	9.829763	0.123113	-0.467076	0.001389	0.004725	0.003915	-0.808350	-0.162842	-0.393799	0.687777	0.074611	-0.719328	0.062950	165.300085	-87.274166	-154.132917	-0.042792	-0.020748	0.998869	-0.193931	0.980941	0.012068	-0.980082	-0.193195	-0.046000	0	0	0
14016	0	0	0	0	0	9.829792	0.122858	-0.466519	-0.000818	0.006605	0.001243	-0.803223	-0.165283	-0.389648	0.687794	0.074604	-0.719314	0.062943	165.280968	-87.276577	-154.114957	-0.042748	-0.020743	0.998871	-0.193911	0.980945	0.012073	-0.980087	-0.193175	-0.045956	0	0	0
14017	0	0	0	0	0	9.829820	0.122805	-0.465942	0.001476	0.005155	-0.000199	-0.808594	-0.159912	-0.392578	0.687806	0.074607	-0.719302	0.062938	165.252733	-87.278105	-154.086869	-0.042714	-0.020753	0.998872	-0.193908	0.980945	0.012088	-0.980089	-0.193173	-0.045924	0	0	0
14018	0	0	0	0	0	9.811897	0.095039	-0.475302	0.002624	0.004430	-0.000920	-0.803467	-0.158447	-0.392822	0.687814	0.074621	-0.719293	0.062935	165.217159	-87.278950	-154.050334	-0.042687	-0.020773	0.998873	-0.193925	0.980942	0.012113	-0.980087	-0.193189	-0.045902	0	0	0
14019	0	0	0	0	0	9.817302	0.136556	-0.480827	0.004028	0.005330	0.000470	-0.809814	-0.168945	-0.394043	0.687825	0.074631	-0.719281	0.062942	165.197590	-87.280671	-154.029458	-0.042653	-0.020776	0.998874	-0.193947	0.980937	0.012121	-0.980084	-0.193212	-0.045869	0	0	0
14020	0	0	0	0	0	9.806330	0.129449	-0.440324	0.002022	0.000752	-0.001028	-0.804443	-0.159180	-0.391113	0.687821	0.074645	-0.719284	0.062936	165.171367	-87.279485	-154.002601	-0.042661	-0.020805	0.998873	-0.193959	0.980934	0.012147	-0.980082	-0.193222	-0.045883	0	0	0
14021	0	0	0	0	0	9.829891	0.122962	-0.464408	0.007197	0.005357	-0.001279	-0.800293	-0.163086	-0.392334	0.687832	0.074672	-0.719270	0.062947	165.133108	-87.280963	-153.961197	-0.042623	-0.020824	0.998874	-0.194013	0.980923	0.012171	-0.980073	-0.193276	-0.045850	0	0	0
14022	0	0	0	0	0	9.838084	0.147473	-0.487288	0.010037	-0.000497	-0.003549	-0.807861	-0.159180	-0.392090	0.687820	0.074721	-0.719274	0.062960	165.086503	-87.278722	-153.909545	-0.042639	-0.020880	0.998872	-0.194100	0.980906	0.012219	-0.980055	-0.193361	-0.045878	0	0	0
14023	0	0	0	0	0	9.809146	0.112884	-0.456971	0.007486	-0.000672	-0.004218	-0.806885	-0.164551	-0.403076	0.687811	0.074762	-0.719280	0.062960	165.032913	-87.276426	-153.852626	-0.042655	-0.020940	0.998870	-0.194159	0.980893	0.012272	-0.980042	-0.193416	-0.045905	0	0	0
14024	0	0	0	0	0	9.806339	0.130405	-0.439832	0.009764	0.001704	-0.003134	-0.808350	-0.162109	-0.398438	0.687808	0.074807	-0.719277	0.062973	164.984016	-87.275508	-153.798944	-0.042649	-0.020987	0.998870	-0.194242	0.980876	0.012315	-0.980026	-0.193497	-0.045910	0	0	0
14025	0	0	0	0	0	9.775835	0.116561	-0.465441	0.010037	-0.000498	-0.003548	-0.807129	-0.159424	-0.392822	0.687797	0.074854	-0.719281	0.062985	164.939279	-87.273403	-153.749425	-0.042664	-0.021040	0.998868	-0.194324	0.980859	0.012361	-0.980009	-0.193577	-0.045936	0	0	0
14026	0	0	0	0	0	9.820115	0.120899	-0.497335	0.009436	-0.004176	-0.003654	-0.810791	-0.156250	-0.401611	0.687773	0.074902	-0.719298	0.062993	164.903146	-87.269129	-153.708772	-0.042716	-0.021103	0.998864	-0.194403	0.980843	0.012409	-0.979991	-0.193652	-0.046000	0	0	0
14027	0	0	0	0	0	9.807527	0.134865	-0.513558	0.008288	-0.003451	-0.002933	-0.809570	-0.156494	-0.396484	0.687752	0.074941	-0.719313	0.063000	164.873956	-87.265478	-153.675820	-0.042761	-0.021156	0.998861	-0.194469	0.980830	0.012449	-0.979976	-0.193715	-0.046055	0	0	0
14028	0	0	0	0	0	9.829828	0.124933	-0.465210	0.007414	-0.004928	-0.002626	-0.805176	-0.154053	-0.399902	0.687727	0.074975	-0.719334	0.063001	164.852097	-87.260984	-153.651142	-0.042822	-0.021209	0.998858	-0.194518	0.980819	0.012487	-0.979964	-0.193761	-0.046126	0	0	0
14029	0	0	0	0	0	9.817228	0.138605	-0.481750	0.001004	-0.009236	0.002460	-0.816406	-0.156982	-0.387695	0.687686	0.074972	-0.719374	0.062997	164.899209	-87.254940	-153.698758	-0.042934	-0.021220	0.998853	-0.194510	0.980821	0.012477	-0.979960	-0.193751	-0.046238	0	0	0
14030	0	0	0	0	0	9.817186	0.138398	-0.482665	-0.001547	-0.009411	0.001792	-0.802002	-0.163818	-0.397949	0.687646	0.074960	-0.719415	0.062980	164.937679	-87.248561	-153.739551	-0.043049	-0.021239	0.998847	-0.194471	0.980829	0.012475	-0.979963	-0.193710	-0.046354	0	0	0
14031	0	0	0	0	0	9.783841	0.141499	-0.491891	0.003715	-0.004378	-0.002575	-0.804443	-0.163574	-0.400146	0.687623	0.074983	-0.719435	0.062971	164.913065	-87.244453	-153.713804	-0.043104	-0.021290	0.998844	-0.194492	0.980824	0.012513	-0.979957	-0.193727	-0.046418	0	0	0
14032	0	0	0	0	0	9.793579	0.145146	-0.459569	0.002496	-0.007908	-0.000263	-0.804688	-0.165527	-0.394043	0.687588	0.074997	-0.719468	0.062965	164.922617	-87.238681	-153.722712	-0.043197	-0.021328	0.998839	-0.194504	0.980822	0.012532	-0.979950	-0.193736	-0.046517	0	0	0
14033	0	0	0	0	0	9.796339	0.127901	-0.477503	0.004173	-0.009211	0.000713	-0.805908	-0.162354	-0.396240	0.687547	0.075011	-0.719505	0.062967	164.950928	-87.232388	-153.749688	-0.043306	-0.021356	0.998834	-0.194527	0.980817	0.012537	-0.979941	-0.193757	-0.046629	0	0	0
14034	0	0	0	0	0	9.826818	0.142064	-0.452607	0.005391	-0.005681	-0.001598	-0.805420	-0.163330	-0.397461	0.687518	0.075040	-0.719530	0.062968	164.940313	-87.227591	-153.736614	-0.043376	-0.021403	0.998830	-0.194570	0.980808	0.012567	-0.979929	-0.193798	-0.046708	0	0	0
14035	0	0	0	0	0	9.850333	0.135544	-0.477444	0.007670	-0.003304	-0.000516	-0.813721	-0.153076	-0.396240	0.687498	0.075069	-0.719545	0.062981	164.938341	-87.224383	-153.731266	-0.043424	-0.021432	0.998827	-0.194629	0.980796	0.012584	-0.979915	-0.193854	-0.046761	0	0	0
14036	0	0	0	0	0	9.804421	0.152108	-0.502355	0.006982	-0.007411	0.003493	-0.805176	-0.160889	-0.403564	0.687461	0.075081	-0.719577	0.063002	164.993492	-87.219405	-153.783729	-0.043521	-0.021430	0.998823	-0.194675	0.980787	0.012561	-0.979902	-0.193899	-0.046857	0	0	0
14037	0	0	0	0	0	9.804403	0.151744	-0.502811	0.004759	-0.001705	0.003342	-0.806641	-0.164063	-0.388672	0.687446	0.075085	-0.719590	0.063018	165.028858	-87.217654	-153.817433	-0.043561	-0.021418	0.998821	-0.194703	0.980782	0.012540	-0.979894	-0.193927	-0.046894	0	0	0
14038	0	0	0	0	0	9.847488	0.151663	-0.461728	0.004070	-0.005812	0.007352	-0.812744	-0.161621	-0.395996	0.687414	0.075076	-0.719618	0.063044	165.119916	-87.214123	-153.907093	-0.043650	-0.021377	0.998818	-0.194726	0.980778	0.012481	-0.979886	-0.193952	-0.046974	0	0	0
14039	0	0	0	0	0	9.847478	0.151195	-0.462105	0.007927	-0.001680	0.001594	-0.803467	-0.160645	-0.393799	0.687399	0.075097	-0.719629	0.063065	165.136995	-87.212126	-153.920670	-0.043686	-0.021382	0.998816	-0.194787	0.980766	0.012476	-0.979872	-0.194011	-0.047011	0	0	0
14040	0	0	0	0	0	9.837675	0.147412	-0.495493	0.004430	-0.007587	0.002826	-0.804443	-0.164551	-0.389160	0.687362	0.075105	-0.719662	0.063076	165.182383	-87.206921	-153.964492	-0.043784	-0.021389	0.998812	-0.194814	0.980761	0.012462	-0.979863	-0.194037	-0.047109	0	0	0
14041	0	0	0	0	0	9.837633	0.147164	-0.496391	0.005849	-0.010515	0.001693	-0.809570	-0.158447	-0.396973	0.687316	0.075122	-0.719704	0.063087	165.225765	-87.200043	-154.005596	-0.043907	-0.021410	0.998806	-0.194853	0.980753	0.012457	-0.979849	-0.194074	-0.047234	0	0	0
14042	0	0	0	0	0	9.804279	0.149914	-0.505773	0.005834	-0.006687	0.004215	-0.807861	-0.170898	-0.393799	0.687281	0.075131	-0.719734	0.063109	165.284613	-87.195518	-154.062008	-0.043999	-0.021401	0.998802	-0.194895	0.980745	0.012429	-0.979837	-0.194115	-0.047323	0	0	0
14043	0	0	0	0	0	9.848533	0.153455	-0.537792	-0.001233	0.000299	0.004835	-0.812988	-0.166504	-0.393066	0.687275	0.075108	-0.719742	0.063109	165.327026	-87.195086	-154.106205	-0.044023	-0.021370	0.998802	-0.194864	0.980752	0.012395	-0.979842	-0.194085	-0.047340	0	0	0
14044	0	0	0	0	0	9.837614	0.146120	-0.497078	0.000932	0.009561	0.000620	-0.803711	-0.158691	-0.395508	0.687302	0.075112	-0.719716	0.063110	165.292544	-87.199010	-154.071304	-0.043948	-0.021367	0.998805	-0.194871	0.980750	0.012407	-0.979844	-0.194093	-0.047266	0	0	0
14045	0	0	0	0	0	9.814129	0.152263	-0.472013	-0.004416	0.004102	0.009105	-0.809570	-0.164063	-0.396973	0.687310	0.075062	-0.719714	0.063115	165.370320	-87.201305	-154.152733	-0.043942	-0.021287	0.998807	-0.194807	0.980764	0.012332	-0.979857	-0.194032	-0.047244	0	0	0
14046	0	0	0	0	0	9.825119	0.158887	-0.511645	-0.002494	0.007910	0.000260	-0.802734	-0.161133	-0.389404	0.687332	0.075051	-0.719694	0.063098	165.335959	-87.204338	-154.120714	-0.043883	-0.021289	0.998810	-0.194766	0.980772	0.012347	-0.979868	-0.193993	-0.047185	0	0	0
14047	0	0	0	0	0	9.750381	0.140643	-0.504463	-0.000759	0.014691	0.002166	-0.811035	-0.166016	-0.388184	0.687379	0.075035	-0.719652	0.063096	165.305666	-87.211495	-154.091847	-0.043760	-0.021256	0.998816	-0.194741	0.980777	0.012341	-0.979878	-0.193971	-0.047058	0	0	0
14048	0	0	0	0	0	9.790754	0.158098	-0.444553	-0.001634	0.013214	0.002475	-0.807617	-0.166260	-0.398193	0.687419	0.075020	-0.719615	0.063094	165.281011	-87.217683	-154.068611	-0.043654	-0.021227	0.998821	-0.194716	0.980782	0.012333	-0.979888	-0.193948	-0.046949	0	0	0
14049	0	0	0	0	0	9.804572	0.147767	-0.500694	0.008057	0.010657	0.000933	-0.811523	-0.162109	-0.397461	0.687448	0.075041	-0.719583	0.063119	165.253535	-87.222424	-154.037507	-0.043568	-0.021214	0.998825	-0.194778	0.980770	0.012335	-0.979879	-0.194011	-0.046863	0	0	0
14050	0	0	0	0	0	9.819793	0.192617	-0.472692	0.002064	0.012661	0.002425	-0.809814	-0.163574	-0.386963	0.687485	0.075037	-0.719547	0.063128	165.231263	-87.228395	-154.014739	-0.043466	-0.021186	0.998830	-0.194785	0.980768	0.012327	-0.979882	-0.194022	-0.046757	0	0	0
14051	0	0	0	0	0	9.814452	0.150809	-0.465710	0.002264	0.006203	0.003605	-0.805176	-0.156982	-0.396973	0.687500	0.075030	-0.719533	0.063139	165.244338	-87.231058	-154.027557	-0.043429	-0.021156	0.998832	-0.194789	0.980768	0.012304	-0.979883	-0.194027	-0.046715	0	0	0
14052	0	0	0	0	0	9.783963	0.136312	-0.490932	-0.006610	0.002153	0.003908	-0.805664	-0.160889	-0.387451	0.687502	0.074993	-0.719537	0.063118	165.266982	-87.231369	-154.054942	-0.043435	-0.021133	0.998833	-0.194707	0.980784	0.012284	-0.979899	-0.193947	-0.046715	0	0	0
14053	0	0	0	0	0	9.810109	0.188480	-0.504156	-0.002463	0.000254	-0.004784	-0.801270	-0.163086	-0.391602	0.687499	0.075001	-0.719542	0.063081	165.199227	-87.229510	-153.989547	-0.043440	-0.021197	0.998831	-0.194668	0.980791	0.012348	-0.979907	-0.193905	-0.046732	0	0	0
14054	0	0	0	0	0	9.801897	0.164522	-0.481406	-0.002609	-0.008256	-0.001600	-0.811035	-0.162109	-0.393555	0.687464	0.075003	-0.719578	0.063052	165.192081	-87.223233	-153.984573	-0.043536	-0.021249	0.998826	-0.194633	0.980798	0.012381	-0.979910	-0.193865	-0.046836	0	0	0
14055	0	0	0	0	0	9.818421	0.137379	-0.556532	-0.004286	-0.006954	-0.002577	-0.798340	-0.160645	-0.392334	0.687435	0.074999	-0.719609	0.063013	165.170490	-87.217703	-153.966441	-0.043616	-0.021305	0.998821	-0.194575	0.980809	0.012424	-0.979917	-0.193804	-0.046924	0	0	0
14056	0	0	0	0	0	9.783862	0.137177	-0.492711	-0.001462	-0.008983	-0.002320	-0.800293	-0.161621	-0.394043	0.687397	0.075006	-0.719647	0.062985	165.158051	-87.210959	-153.955679	-0.043718	-0.021364	0.998815	-0.194548	0.980814	0.012464	-0.979918	-0.193772	-0.047035	0	0	0
14057	0	0	0	0	0	9.819922	0.117261	-0.501992	0.000905	-0.006179	-0.005353	-0.813232	-0.167236	-0.392822	0.687371	0.075030	-0.719673	0.062956	165.105758	-87.205449	-153.903831	-0.043785	-0.021446	0.998811	-0.194542	0.980814	0.012532	-0.979917	-0.193762	-0.047117	0	0	0
14058	0	0	0	0	0	9.843227	0.187048	-0.498753	0.003184	-0.003803	-0.004271	-0.809326	-0.157715	-0.403320	0.687350	0.075061	-0.719690	0.062941	165.057862	-87.201273	-153.854626	-0.043831	-0.021516	0.998807	-0.194566	0.980809	0.012590	-0.979910	-0.193782	-0.047177	0	0	0
14059	0	0	0	0	0	9.835019	0.163179	-0.476132	0.007155	-0.006558	-0.004734	-0.798340	-0.163818	-0.397461	0.687319	0.075104	-0.719716	0.062936	165.017658	-87.195641	-153.811296	-0.043903	-0.021592	0.998802	-0.194621	0.980797	0.012648	-0.979895	-0.193833	-0.047263	0	0	0
14060	0	0	0	0	0	9.825213	0.160031	-0.509495	0.006609	-0.002153	-0.003909	-0.806641	-0.155762	-0.384033	0.687304	0.075140	-0.719726	0.062932	164.971275	-87.192545	-153.762231	-0.043933	-0.021654	0.998800	-0.194668	0.980787	0.012701	-0.979885	-0.193877	-0.047304	0	0	0
14061	0	0	0	0	0	9.825180	0.160408	-0.510006	0.006280	-0.008035	-0.004425	-0.806396	-0.162842	-0.386475	0.687268	0.075180	-0.719757	0.062925	164.938829	-87.186139	-153.727169	-0.044020	-0.021730	0.998794	-0.194715	0.980777	0.012756	-0.979872	-0.193919	-0.047405	0	0	0
14062	0	0	0	0	0	9.825152	0.160758	-0.510438	0.010035	-0.000503	-0.003547	-0.807617	-0.160400	-0.390869	0.687257	0.075228	-0.719762	0.062937	164.895374	-87.183803	-153.678773	-0.044038	-0.021785	0.998792	-0.194801	0.980759	0.012803	-0.979854	-0.194002	-0.047435	0	0	0
14063	0	0	0	0	0	9.825139	0.160874	-0.510645	0.001950	-0.003505	0.000565	-0.809570	-0.163818	-0.398438	0.687237	0.075233	-0.719781	0.062933	164.903012	-87.180645	-153.686328	-0.044090	-0.021804	0.998790	-0.194803	0.980759	0.012811	-0.979851	-0.194002	-0.047490	0	0	0
14064	0	0	0	0	0	9.804395	0.150292	-0.503405	0.002896	0.002227	-0.001336	-0.803955	-0.166748	-0.396484	0.687238	0.075249	-0.719779	0.062928	164.870887	-87.180253	-153.653387	-0.044084	-0.021832	0.998789	-0.194817	0.980756	0.012839	-0.979848	-0.194015	-0.047489	0	0	0
14065	0	0	0	0	0	9.832336	0.105809	-0.488756	0.004845	-0.001278	-0.000771	-0.806641	-0.168213	-0.393311	0.687225	0.075268	-0.719789	0.062930	164.858459	-87.178127	-153.639189	-0.044112	-0.021860	0.998787	-0.194848	0.980749	0.012859	-0.979841	-0.194045	-0.047522	0	0	0
14066	0	0	0	0	0	9.816959	0.136827	-0.487697	0.003441	-0.002178	-0.002160	-0.811523	-0.164307	-0.390625	0.687210	0.075293	-0.719801	0.062925	164.829386	-87.175179	-153.608475	-0.044146	-0.021906	0.998785	-0.194877	0.980743	0.012897	-0.979834	-0.194071	-0.047565	0	0	0
14067	0	0	0	0	0	9.816946	0.136938	-0.487944	0.003971	-0.002755	-0.000463	-0.804932	-0.160645	-0.395020	0.687193	0.075308	-0.719816	0.062925	164.824449	-87.172282	-153.602280	-0.044189	-0.021933	0.998782	-0.194899	0.980738	0.012914	-0.979827	-0.194091	-0.047613	0	0	0
14068	0	0	0	0	0	9.816930	0.137166	-0.488199	0.004058	-0.002328	-0.004577	-0.808838	-0.160400	-0.385010	0.687178	0.075341	-0.719828	0.062911	164.770800	-87.168861	-153.547052	-0.044221	-0.022003	0.998779	-0.194928	0.980732	0.012974	-0.979820	-0.194116	-0.047658	0	0	0
14069	0	0	0	0	0	9.826709	0.140826	-0.455346	0.003956	0.001074	0.002058	-0.805176	-0.164795	-0.394531	0.687173	0.075346	-0.719831	0.062921	164.782448	-87.168460	-153.557471	-0.044231	-0.021998	0.998779	-0.194949	0.980728	0.012967	-0.979816	-0.194137	-0.047667	0	0	0
14070	0	0	0	0	0	9.829503	0.123315	-0.472458	0.004759	-0.001705	0.003344	-0.809082	-0.162842	-0.394287	0.687157	0.075353	-0.719844	0.062938	164.816014	-87.166542	-153.589072	-0.044274	-0.021988	0.998777	-0.194982	0.980721	0.012947	-0.979807	-0.194171	-0.047707	0	0	0
14071	0	0	0	0	0	9.811559	0.095125	-0.482213	0.005360	0.001974	0.003448	-0.810547	-0.170898	-0.391846	0.687155	0.075358	-0.719844	0.062958	164.841248	-87.166847	-153.612287	-0.044278	-0.021968	0.998778	-0.195016	0.980715	0.012925	-0.979800	-0.194206	-0.047708	0	0	0
14072	0	0	0	0	0	9.832326	0.105255	-0.489075	0.006220	0.007279	0.005660	-0.811279	-0.163086	-0.392334	0.687170	0.075361	-0.719826	0.062994	164.873283	-87.170260	-153.641188	-0.044235	-0.021919	0.998781	-0.195069	0.980705	0.012883	-0.979791	-0.194261	-0.047658	0	0	0
14073	0	0	0	0	0	9.816997	0.135577	-0.487295	0.001920	0.004153	0.005607	-0.803467	-0.162842	-0.390137	0.687177	0.075346	-0.719820	0.063010	164.914183	-87.172091	-153.682062	-0.044222	-0.021873	0.998782	-0.195068	0.980706	0.012841	-0.979792	-0.194263	-0.047636	0	0	0
14074	0	0	0	0	0	9.807248	0.131469	-0.519738	0.002794	0.005629	0.005299	-0.807129	-0.159912	-0.391113	0.687187	0.075337	-0.719809	0.063029	164.946247	-87.174536	-153.713298	-0.044196	-0.021830	0.998784	-0.195082	0.980703	0.012803	-0.979791	-0.194279	-0.047602	0	0	0
14075	0	0	0	0	0	9.840597	0.127912	-0.510612	0.004815	0.006379	0.004272	-0.814209	-0.160889	-0.393799	0.687201	0.075335	-0.719794	0.063052	164.967226	-87.177398	-153.732566	-0.044159	-0.021793	0.998787	-0.195110	0.980698	0.012772	-0.979787	-0.194309	-0.047559	0	0	0
14076	0	0	0	0	0	9.835057	0.161987	-0.475756	-0.000560	0.008234	0.003344	-0.809570	-0.159424	-0.396973	0.687223	0.075319	-0.719775	0.063052	164.968370	-87.180998	-153.735055	-0.044103	-0.021764	0.998790	-0.195086	0.980703	0.012755	-0.979794	-0.194288	-0.047498	0	0	0
14077	0	0	0	0	0	9.828108	0.140492	-0.525268	-0.001064	0.001500	0.011059	-0.808350	-0.163086	-0.390869	0.687219	0.075274	-0.719781	0.063075	165.077063	-87.182164	-153.845516	-0.044127	-0.021670	0.998791	-0.195054	0.980711	0.012660	-0.979799	-0.194259	-0.047503	0	0	0
14078	0	0	0	0	0	9.830932	0.122390	-0.541928	-0.007771	0.006711	0.007147	-0.805664	-0.164307	-0.387939	0.687237	0.075220	-0.719771	0.063061	165.121174	-87.185505	-153.895111	-0.044094	-0.021606	0.998794	-0.194959	0.980730	0.012608	-0.979820	-0.194168	-0.047456	0	0	0
14079	0	0	0	0	0	9.820007	0.114709	-0.500919	-0.002324	0.009109	0.006482	-0.806885	-0.155029	-0.390869	0.687263	0.075185	-0.719750	0.063067	165.155080	-87.190201	-153.931416	-0.044034	-0.021542	0.998798	-0.194916	0.980739	0.012559	-0.979831	-0.194129	-0.047384	0	0	0
14080	0	0	0	0	0	9.804709	0.144942	-0.498839	-0.004345	0.008359	0.007510	-0.805908	-0.161133	-0.387695	0.687285	0.075141	-0.719733	0.063068	165.201093	-87.194464	-153.980958	-0.043985	-0.021471	0.998801	-0.194854	0.980753	0.012502	-0.979845	-0.194071	-0.047323	0	0	0
14081	0	0	0	0	0	9.786812	0.116444	-0.507572	-0.001721	0.012787	0.006588	-0.811768	-0.168701	-0.395508	0.687324	0.075107	-0.719699	0.063077	165.225807	-87.201210	-154.007714	-0.043890	-0.021399	0.998807	-0.194818	0.980760	0.012452	-0.979857	-0.194039	-0.047214	0	0	0
14082	0	0	0	0	0	9.843737	0.105969	-0.522116	-0.002339	0.012936	0.009006	-0.806885	-0.155518	-0.397949	0.687361	0.075066	-0.719666	0.063095	165.275329	-87.208221	-154.059129	-0.043799	-0.021306	0.998813	-0.194783	0.980768	0.012380	-0.979868	-0.194010	-0.047107	0	0	0
14083	0	0	0	0	0	9.807708	0.125379	-0.512507	-0.000391	0.009430	0.009573	-0.812744	-0.153564	-0.388916	0.687386	0.075027	-0.719644	0.063118	165.345132	-87.213539	-154.130264	-0.043742	-0.021211	0.998818	-0.194758	0.980774	0.012299	-0.979875	-0.193990	-0.047032	0	0	0
14084	0	0	0	0	0	9.820321	0.111029	-0.495566	-0.001103	0.012636	0.004172	-0.806885	-0.156982	-0.394043	0.687424	0.075000	-0.719610	0.063118	165.344020	-87.219725	-154.131376	-0.043645	-0.021164	0.998823	-0.194719	0.980782	0.012273	-0.979888	-0.193954	-0.046928	0	0	0
14085	0	0	0	0	0	9.838340	0.138062	-0.484871	-0.001612	0.005901	0.011886	-0.817139	-0.159424	-0.392090	0.687436	0.074949	-0.719602	0.063143	165.450501	-87.223414	-154.239932	-0.043628	-0.021053	0.998826	-0.194681	0.980791	0.012169	-0.979896	-0.193921	-0.046888	0	0	0
14086	0	0	0	0	0	9.820415	0.109492	-0.494031	-0.001434	0.006755	0.003655	-0.805176	-0.167236	-0.390869	0.687453	0.074928	-0.719588	0.063140	165.460237	-87.226235	-154.251680	-0.043588	-0.021023	0.998828	-0.194646	0.980798	0.012149	-0.979905	-0.193888	-0.046843	0	0	0
14087	0	0	0	0	0	9.805117	0.139882	-0.492213	-0.000376	0.005601	0.007052	-0.805908	-0.156006	-0.395996	0.687465	0.074899	-0.719579	0.063153	165.513294	-87.229056	-154.306041	-0.043563	-0.020960	0.998831	-0.194622	0.980804	0.012093	-0.979910	-0.193868	-0.046806	0	0	0
14088	0	0	0	0	0	9.787193	0.111446	-0.501314	-0.001177	0.008380	0.005767	-0.807373	-0.164795	-0.395508	0.687487	0.074873	-0.719560	0.063160	165.541382	-87.233108	-154.335669	-0.043510	-0.020907	0.998834	-0.194595	0.980810	0.012053	-0.979918	-0.193843	-0.046744	0	0	0
14089	0	0	0	0	0	9.805208	0.138730	-0.490739	-0.000030	0.007653	0.005047	-0.808838	-0.164063	-0.393066	0.687507	0.074851	-0.719542	0.063169	165.565748	-87.236778	-154.361106	-0.043462	-0.020860	0.998837	-0.194575	0.980814	0.012017	-0.979924	-0.193827	-0.046687	0	0	0
14090	0	0	0	0	0	9.798314	0.117371	-0.539842	0.001102	0.010753	0.006851	-0.803711	-0.163818	-0.393555	0.687537	0.074830	-0.719514	0.063190	165.600195	-87.242288	-154.395515	-0.043388	-0.020792	0.998842	-0.194574	0.980815	0.011965	-0.979928	-0.193830	-0.046601	0	0	0
14091	0	0	0	0	0	9.826089	0.148091	-0.496027	0.003125	0.011502	0.005825	-0.811279	-0.160889	-0.387207	0.687569	0.074816	-0.719483	0.063214	165.624132	-87.248203	-154.418712	-0.043303	-0.020730	0.998847	-0.194585	0.980813	0.011920	-0.979929	-0.193845	-0.046506	0	0	0
14092	0	0	0	0	0	9.828953	0.130534	-0.511855	-0.002158	0.013787	0.000779	-0.798340	-0.162109	-0.391357	0.687612	0.074804	-0.719444	0.063203	165.578481	-87.254486	-154.374887	-0.043189	-0.020716	0.998852	-0.194554	0.980819	0.011930	-0.979941	-0.193815	-0.046391	0	0	0
14093	0	0	0	0	0	9.774966	0.122803	-0.511800	0.002324	0.014279	0.004542	-0.806641	-0.157959	-0.400879	0.687655	0.074791	-0.719403	0.063221	165.578848	-87.261760	-154.374946	-0.043074	-0.020661	0.998858	-0.194558	0.980819	0.011898	-0.979945	-0.193823	-0.046268	0	0	0
14094	0	0	0	0	0	9.829086	0.129698	-0.509500	-0.000378	0.005600	0.007054	-0.812012	-0.156982	-0.391846	0.687667	0.074762	-0.719393	0.063233	165.631102	-87.264500	-154.428538	-0.043051	-0.020600	0.998860	-0.194533	0.980824	0.011844	-0.979951	-0.193802	-0.046232	0	0	0
14095	0	0	0	0	0	9.818085	0.122247	-0.468541	0.003487	0.009726	0.001299	-0.817627	-0.161621	-0.402344	0.687694	0.074766	-0.719366	0.063242	165.608114	-87.268785	-154.404549	-0.042975	-0.020586	0.998864	-0.194550	0.980821	0.011844	-0.979951	-0.193820	-0.046155	0	0	0
14096	0	0	0	0	0	9.805608	0.135615	-0.483562	-0.000031	0.007652	0.005049	-0.802734	-0.161133	-0.395264	0.687713	0.074744	-0.719349	0.063249	165.632197	-87.272323	-154.429813	-0.042928	-0.020540	0.998867	-0.194529	0.980826	0.011809	-0.979957	-0.193801	-0.046101	0	0	0
14097	0	0	0	0	0	9.805653	0.135165	-0.482777	0.001992	0.008400	0.004024	-0.804443	-0.161377	-0.394043	0.687735	0.074733	-0.719328	0.063261	165.644043	-87.276260	-154.441555	-0.042870	-0.020502	0.998870	-0.194530	0.980826	0.011782	-0.979959	-0.193805	-0.046036	0	0	0
14098	0	0	0	0	0	9.797438	0.110520	-0.458925	0.002264	0.006198	0.003611	-0.812988	-0.166016	-0.397705	0.687749	0.074727	-0.719315	0.063272	165.656035	-87.278807	-154.453126	-0.042834	-0.020474	0.998872	-0.194536	0.980825	0.011762	-0.979960	-0.193813	-0.045996	0	0	0
14099	0	0	0	0	0	9.805729	0.134630	-0.481366	0.003231	0.008101	-0.000811	-0.815186	-0.166016	-0.390625	0.687771	0.074738	-0.719292	0.063272	165.613010	-87.281891	-154.409224	-0.042770	-0.020484	0.998875	-0.194551	0.980822	0.011783	-0.979959	-0.193828	-0.045935	0	0	0
14100	0	0	0	0	0	9.805757	0.134525	-0.480843	0.007380	0.002715	0.002432	-0.800293	-0.159912	-0.390381	0.687770	0.074759	-0.719289	0.063300	165.624144	-87.282258	-154.416467	-0.042767	-0.020475	0.998875	-0.194618	0.980809	0.011772	-0.979946	-0.193895	-0.045931	0	0	0
14101	0	0	0	0	0	9.796069	0.130690	-0.513392	0.003411	0.005472	0.002892	-0.795166	-0.155273	-0.394287	0.687781	0.074758	-0.719277	0.063312	165.632362	-87.284409	-154.423764	-0.042736	-0.020454	0.998877	-0.194633	0.980806	0.011757	-0.979945	-0.193912	-0.045896	0	0	0
14102	0	0	0	0	0	9.803008	0.151433	-0.462726	0.006402	0.008122	-0.002556	-0.807129	-0.155273	-0.402344	0.687803	0.074785	-0.719254	0.063316	165.569494	-87.287156	-154.358344	-0.042669	-0.020482	0.998879	-0.194677	0.980796	0.011795	-0.979939	-0.193956	-0.045837	0	0	0
14103	0	0	0	0	0	9.839142	0.131330	-0.470236	0.008153	0.011071	-0.003167	-0.810547	-0.158691	-0.387207	0.687834	0.074821	-0.719219	0.063327	165.492437	-87.291546	-154.277550	-0.042571	-0.020509	0.998883	-0.194741	0.980783	0.011837	-0.979930	-0.194020	-0.045747	0	0	0
14104	0	0	0	0	0	9.805903	0.134631	-0.477812	0.008680	0.010493	-0.001468	-0.805420	-0.155518	-0.390869	0.687863	0.074851	-0.719187	0.063343	165.436820	-87.295730	-154.218207	-0.042484	-0.020521	0.998886	-0.194805	0.980770	0.011864	-0.979921	-0.194084	-0.045665	0	0	0
14105	0	0	0	0	0	9.826723	0.145283	-0.484154	0.011503	0.008463	-0.001207	-0.808594	-0.155762	-0.394531	0.687883	0.074891	-0.719161	0.063371	165.392256	-87.298949	-154.168020	-0.042416	-0.020534	0.998889	-0.194901	0.980751	0.011885	-0.979905	-0.194181	-0.045601	0	0	0
14106	0	0	0	0	0	9.826766	0.145444	-0.483239	0.011851	0.010514	-0.003211	-0.813232	-0.156738	-0.393799	0.687911	0.074938	-0.719127	0.063392	165.317964	-87.302870	-154.088243	-0.042326	-0.020563	0.998892	-0.194996	0.980732	0.011927	-0.979890	-0.194275	-0.045520	0	0	0
14107	0	0	0	0	0	9.826810	0.145526	-0.482310	0.016603	0.008804	0.000143	-0.812012	-0.168945	-0.391602	0.687930	0.074991	-0.719099	0.063444	165.290895	-87.306470	-154.052647	-0.042257	-0.020562	0.998895	-0.195141	0.980703	0.011932	-0.979864	-0.194422	-0.045454	0	0	0
14108	0	0	0	0	0	9.821221	0.180015	-0.447311	0.012378	0.009935	-0.001510	-0.806152	-0.159668	-0.392090	0.687955	0.075038	-0.719068	0.063476	165.236962	-87.310260	-153.992188	-0.042175	-0.020577	0.998898	-0.195253	0.980680	0.011958	-0.979846	-0.194534	-0.045378	0	0	0
14109	0	0	0	0	0	9.842055	0.190779	-0.453260	0.014206	0.017134	-0.003712	-0.803223	-0.165283	-0.395020	0.688006	0.075095	-0.719010	0.063509	165.136702	-87.317906	-153.884695	-0.042017	-0.020598	0.998905	-0.195377	0.980655	0.012003	-0.979828	-0.194659	-0.045229	0	0	0
14110	0	0	0	0	0	9.808829	0.194116	-0.460599	0.018099	0.010125	-0.002575	-0.811768	-0.157227	-0.394531	0.688030	0.075165	-0.718976	0.063558	165.071878	-87.321692	-153.810147	-0.041931	-0.020623	0.998908	-0.195544	0.980621	0.012038	-0.979798	-0.194825	-0.045151	0	0	0
14111	0	0	0	0	0	9.824197	0.163582	-0.460682	0.019068	0.012023	-0.006995	-0.810059	-0.164795	-0.399658	0.688062	0.075251	-0.718932	0.063596	164.950849	-87.326007	-153.679075	-0.041816	-0.020686	0.998911	-0.195716	0.980586	0.012113	-0.979769	-0.194997	-0.045053	0	0	0
14112	0	0	0	0	0	9.788133	0.184493	-0.451158	0.013347	0.011830	-0.005927	-0.808350	-0.160645	-0.401855	0.688095	0.075315	-0.718893	0.063615	164.838150	-87.330239	-153.559604	-0.041707	-0.020740	0.998915	-0.195833	0.980562	0.012183	-0.979750	-0.195112	-0.044958	0	0	0
14113	0	0	0	0	0	9.816003	0.140387	-0.435296	0.015021	0.010527	-0.004945	-0.812012	-0.161133	-0.389893	0.688122	0.075380	-0.718857	0.063644	164.743191	-87.334011	-153.456952	-0.041611	-0.020785	0.998918	-0.195965	0.980534	0.012240	-0.979728	-0.195244	-0.044874	0	0	0
14114	0	0	0	0	0	9.839432	0.210227	-0.430689	0.011069	0.009456	-0.007013	-0.806152	-0.160156	-0.395996	0.688148	0.075441	-0.718825	0.063651	164.623486	-87.336733	-153.331768	-0.041523	-0.020855	0.998920	-0.196060	0.980514	0.012321	-0.979712	-0.195337	-0.044803	0	0	0
14115	0	0	0	0	0	9.800740	0.172284	-0.432260	0.011849	0.010506	-0.003202	-0.806885	-0.161621	-0.394775	0.688176	0.075489	-0.718791	0.063675	164.546941	-87.340742	-153.249370	-0.041431	-0.020883	0.998923	-0.196161	0.980494	0.012362	-0.979696	-0.195437	-0.044719	0	0	0
14116	0	0	0	0	0	9.818726	0.200396	-0.421370	0.009026	0.012535	-0.003466	-0.807861	-0.163818	-0.398193	0.688212	0.075529	-0.718751	0.063688	164.457373	-87.345702	-153.155535	-0.041319	-0.020912	0.998927	-0.196234	0.980479	0.012409	-0.979686	-0.195511	-0.044616	0	0	0
14117	0	0	0	0	0	9.800825	0.172918	-0.430081	0.010447	0.009606	-0.004594	-0.806152	-0.166016	-0.393555	0.688238	0.075578	-0.718720	0.063701	164.365907	-87.348988	-153.059003	-0.041233	-0.020956	0.998930	-0.196321	0.980460	0.012465	-0.979672	-0.195597	-0.044541	0	0	0
14118	0	0	0	0	0	9.836735	0.229134	-0.409477	0.004548	0.012039	-0.007234	-0.808594	-0.169678	-0.396240	0.688275	0.075619	-0.718682	0.063687	164.228845	-87.353064	-152.919795	-0.041118	-0.021023	0.998933	-0.196359	0.980452	0.012552	-0.979669	-0.195634	-0.044443	0	0	0
14119	0	0	0	0	0	9.831317	0.188170	-0.402461	0.004123	0.005741	-0.003637	-0.809814	-0.158447	-0.396484	0.688289	0.075643	-0.718666	0.063679	164.157718	-87.354352	-152.847253	-0.041072	-0.021065	0.998934	-0.196384	0.980446	0.012601	-0.979666	-0.195657	-0.044406	0	0	0
14120	0	0	0	0	0	9.834185	0.171172	-0.418884	0.005524	0.006640	-0.002242	-0.805664	-0.154053	-0.397461	0.688305	0.075671	-0.718648	0.063683	164.098964	-87.356212	-152.785995	-0.041020	-0.021094	0.998936	-0.196427	0.980437	0.012638	-0.979660	-0.195700	-0.044361	0	0	0
14121	0	0	0	0	0	9.809223	0.198773	-0.450115	0.006147	0.006487	-0.004658	-0.806152	-0.158936	-0.393799	0.688321	0.075706	-0.718629	0.063680	164.014108	-87.357742	-152.698548	-0.040965	-0.021145	0.998937	-0.196473	0.980427	0.012696	-0.979653	-0.195744	-0.044317	0	0	0
14122	0	0	0	0	0	9.803810	0.157747	-0.443201	-0.000374	0.009071	-0.004884	-0.808105	-0.155762	-0.390381	0.688349	0.075716	-0.718604	0.063650	163.913646	-87.360547	-152.599711	-0.040885	-0.021193	0.998939	-0.196446	0.980432	0.012760	-0.979662	-0.195716	-0.044248	0	0	0
14123	0	0	0	0	0	9.845400	0.179428	-0.456906	-0.002650	0.006699	-0.005973	-0.806885	-0.162109	-0.395264	0.688370	0.075725	-0.718586	0.063610	163.807060	-87.361970	-152.495557	-0.040824	-0.021256	0.998940	-0.196405	0.980439	0.012835	-0.979673	-0.195673	-0.044200	0	0	0
14124	0	0	0	0	0	9.870399	0.152909	-0.424354	-0.008276	0.006930	-0.009027	-0.802246	-0.161621	-0.397461	0.688394	0.075726	-0.718569	0.063539	163.659439	-87.362859	-152.353693	-0.040757	-0.021349	0.998941	-0.196308	0.980457	0.012945	-0.979695	-0.195573	-0.044152	0	0	0
14125	0	0	0	0	0	9.816364	0.146039	-0.425170	-0.007846	0.005933	-0.003212	-0.808594	-0.164795	-0.401123	0.688414	0.075708	-0.718557	0.063490	163.585303	-87.364288	-152.285003	-0.040710	-0.021387	0.998942	-0.196216	0.980475	0.012995	-0.979715	-0.195479	-0.044111	0	0	0
14126	0	0	0	0	0	9.819238	0.128966	-0.441807	-0.011094	0.001665	0.000118	-0.813721	-0.164795	-0.391357	0.688418	0.075670	-0.718562	0.063439	163.561806	-87.363828	-152.268772	-0.040711	-0.021402	0.998942	-0.196092	0.980499	0.013015	-0.979740	-0.195355	-0.044114	0	0	0
14127	0	0	0	0	0	9.819244	0.129121	-0.441637	-0.010471	0.001512	-0.002298	-0.796387	-0.161133	-0.391602	0.688422	0.075641	-0.718566	0.063382	163.512625	-87.362972	-152.226571	-0.040708	-0.021439	0.998941	-0.195973	0.980522	0.013057	-0.979764	-0.195234	-0.044117	0	0	0
14128	0	0	0	0	0	9.816399	0.146458	-0.424217	-0.009091	0.006237	0.001621	-0.808105	-0.152588	-0.400391	0.688440	0.075604	-0.718555	0.063347	163.492811	-87.365167	-152.212645	-0.040669	-0.021431	0.998943	-0.195872	0.980542	0.013062	-0.979786	-0.195134	-0.044076	0	0	0
14129	0	0	0	0	0	9.816429	0.146299	-0.423585	-0.006542	0.006409	0.002299	-0.808350	-0.163818	-0.398926	0.688459	0.075571	-0.718543	0.063322	163.483409	-87.367747	-152.208011	-0.040628	-0.021413	0.998945	-0.195790	0.980559	0.013056	-0.979804	-0.195053	-0.044030	0	0	0
14130	0	0	0	0	0	9.830482	0.135609	-0.480184	-0.006639	0.005986	0.006414	-0.800537	-0.168213	-0.400391	0.688474	0.075520	-0.718535	0.063307	163.523868	-87.370690	-152.253771	-0.040599	-0.021357	0.998947	-0.195699	0.980578	0.013011	-0.979823	-0.194964	-0.043990	0	0	0
14131	0	0	0	0	0	9.801439	0.100297	-0.449134	-0.002592	0.007479	0.004372	-0.801025	-0.162109	-0.392822	0.688495	0.075493	-0.718518	0.063304	163.537791	-87.374195	-152.270220	-0.040551	-0.021317	0.998950	-0.195654	0.980587	0.012983	-0.979834	-0.194923	-0.043935	0	0	0
14132	0	0	0	0	0	9.825122	0.092984	-0.472745	-0.003564	0.005582	0.008791	-0.799561	-0.162109	-0.392822	0.688507	0.075450	-0.718510	0.063313	163.608058	-87.377273	-152.343210	-0.040531	-0.021240	0.998952	-0.195606	0.980597	0.012914	-0.979845	-0.194878	-0.043899	0	0	0
14133	0	0	0	0	0	9.876350	0.117268	-0.453552	0.000055	0.008073	0.000935	-0.806641	-0.163818	-0.401611	0.688530	0.075444	-0.718490	0.063308	163.580258	-87.380548	-152.316375	-0.040470	-0.021233	0.998955	-0.195590	0.980601	0.012919	-0.979850	-0.194862	-0.043838	0	0	0
14134	0	0	0	0	0	9.861042	0.147994	-0.451729	-0.003992	0.006580	0.002978	-0.808105	-0.161377	-0.407471	0.688547	0.075419	-0.718476	0.063294	163.577762	-87.383233	-152.317010	-0.040429	-0.021211	0.998957	-0.195535	0.980612	0.012907	-0.979863	-0.194810	-0.043793	0	0	0
14135	0	0	0	0	0	9.862391	0.127145	-0.394669	-0.000491	0.012473	0.001762	-0.796631	-0.158447	-0.391113	0.688586	0.075406	-0.718441	0.063292	163.543863	-87.389059	-152.284383	-0.040327	-0.021186	0.998962	-0.195513	0.980616	0.012905	-0.979872	-0.194790	-0.043688	0	0	0
14136	0	0	0	0	0	9.855699	0.106147	-0.443471	0.000657	0.011746	0.001046	-0.807129	-0.161133	-0.396973	0.688621	0.075400	-0.718408	0.063288	163.502805	-87.394308	-152.244134	-0.040231	-0.021172	0.998966	-0.195499	0.980619	0.012910	-0.979878	-0.194777	-0.043591	0	0	0
14137	0	0	0	0	0	9.884881	0.140894	-0.472178	0.001062	0.021866	-0.000020	-0.817383	-0.169678	-0.401855	0.688693	0.075396	-0.718339	0.063288	163.414108	-87.404999	-152.155762	-0.040034	-0.021147	0.998975	-0.195492	0.980620	0.012924	-0.979888	-0.194774	-0.043392	0	0	0
14138	0	0	0	0	0	9.864225	0.130284	-0.462130	-0.001104	0.035636	0.000765	-0.811035	-0.164307	-0.399414	0.688815	0.075381	-0.718224	0.063290	163.280419	-87.423237	-152.023191	-0.039704	-0.021090	0.998989	-0.195471	0.980624	0.012934	-0.979905	-0.194760	-0.043057	0	0	0
14139	0	0	0	0	0	9.872744	0.154401	-0.481318	0.003524	0.044621	0.001367	-0.802002	-0.158691	-0.397949	0.688967	0.075373	-0.718077	0.063312	163.123727	-87.446621	-151.865347	-0.039286	-0.021007	0.999007	-0.195488	0.980621	0.012933	-0.979919	-0.194786	-0.042632	0	0	0
14140	0	0	0	0	0	9.852158	0.143833	-0.469744	0.001598	0.044292	-0.001721	-0.805420	-0.163086	-0.402344	0.689120	0.075371	-0.717931	0.063316	162.924438	-87.469178	-151.665955	-0.038867	-0.020957	0.999025	-0.195488	0.980620	0.012966	-0.979936	-0.194793	-0.042210	0	0	0
14141	0	0	0	0	0	9.839924	0.157386	-0.481247	0.003771	0.046234	0.003495	-0.810547	-0.164063	-0.394531	0.689277	0.075356	-0.717778	0.063347	162.782030	-87.493761	-151.522272	-0.038437	-0.020850	0.999043	-0.195506	0.980617	0.012944	-0.979949	-0.194822	-0.041769	0	0	0
14142	0	0	0	0	0	9.820510	0.125768	-0.413548	0.004567	0.043455	0.004787	-0.806885	-0.154785	-0.395752	0.689423	0.075343	-0.717636	0.063386	162.662616	-87.516891	-151.400884	-0.038039	-0.020739	0.999061	-0.195537	0.980611	0.012911	-0.979958	-0.194862	-0.041356	0	0	0
14143	0	0	0	0	0	9.811161	0.121620	-0.442552	0.009335	0.037924	0.005629	-0.808594	-0.161621	-0.407959	0.689548	0.075342	-0.717511	0.063441	162.578374	-87.537270	-151.312235	-0.037695	-0.020627	0.999076	-0.195609	0.980598	0.012865	-0.979957	-0.194944	-0.040998	0	0	0
14144	0	0	0	0	0	9.810210	0.141677	-0.494976	0.006786	0.037749	0.004952	-0.800293	-0.161865	-0.402344	0.689673	0.075333	-0.717389	0.063482	162.482558	-87.557346	-151.213859	-0.037353	-0.020523	0.999091	-0.195650	0.980590	0.012828	-0.979962	-0.194993	-0.040643	0	0	0
14145	0	0	0	0	0	9.806021	0.079160	-0.429189	0.005661	0.034650	0.003143	-0.805420	-0.157227	-0.401855	0.689788	0.075330	-0.717275	0.063514	162.374557	-87.575494	-151.103539	-0.037036	-0.020442	0.999105	-0.195687	0.980583	0.012809	-0.979967	-0.195038	-0.040317	0	0	0
14146	0	0	0	0	0	9.814566	0.103122	-0.449135	0.011933	0.030441	0.001268	-0.805908	-0.164795	-0.395752	0.689886	0.075355	-0.717174	0.063559	162.260222	-87.590938	-150.983524	-0.036758	-0.020389	0.999116	-0.195783	0.980564	0.012807	-0.979958	-0.195139	-0.040035	0	0	0
14147	0	0	0	0	0	9.793866	0.092510	-0.439388	0.011358	0.022948	-0.001374	-0.807129	-0.158203	-0.400635	0.689958	0.075392	-0.717098	0.063592	162.142512	-87.601892	-150.860222	-0.036547	-0.020375	0.999124	-0.195878	0.980544	0.012831	-0.979947	-0.195237	-0.039827	0	0	0
14148	0	0	0	0	0	9.793959	0.092608	-0.437288	0.015330	0.020194	-0.001818	-0.816650	-0.158691	-0.398926	0.690019	0.075445	-0.717030	0.063636	162.030713	-87.611100	-150.740446	-0.036364	-0.020373	0.999131	-0.196013	0.980517	0.012859	-0.979927	-0.195376	-0.039649	0	0	0
14149	0	0	0	0	0	9.770266	0.099298	-0.411681	0.011747	0.010065	0.000969	-0.807617	-0.162842	-0.404541	0.690044	0.075479	-0.716999	0.063674	161.996804	-87.615431	-150.700796	-0.036284	-0.020361	0.999134	-0.196111	0.980497	0.012859	-0.979910	-0.195475	-0.039569	0	0	0
14150	0	0	0	0	0	9.773252	0.081946	-0.427575	0.010951	0.012836	-0.000315	-0.805908	-0.166016	-0.406982	0.690079	0.075513	-0.716959	0.063704	161.932894	-87.620903	-150.631653	-0.036176	-0.020358	0.999138	-0.196200	0.980479	0.012874	-0.979896	-0.195566	-0.039464	0	0	0
14151	0	0	0	0	0	9.775841	0.140561	-0.415699	0.017117	0.008208	0.001926	-0.803467	-0.166992	-0.397949	0.690096	0.075562	-0.716933	0.063763	161.922256	-87.624390	-150.612216	-0.036116	-0.020340	0.999141	-0.196350	0.980449	0.012862	-0.979868	-0.195717	-0.039404	0	0	0
14152	0	0	0	0	0	9.778804	0.123043	-0.432245	0.012216	0.001427	0.001726	-0.798340	-0.166016	-0.400879	0.690089	0.075601	-0.716931	0.063803	161.932227	-87.624035	-150.615723	-0.036123	-0.020341	0.999140	-0.196461	0.980427	0.012857	-0.979846	-0.195828	-0.039412	0	0	0
14153	0	0	0	0	0	9.778802	0.122861	-0.432336	0.012766	-0.002968	0.000897	-0.801270	-0.159912	-0.392822	0.690067	0.075642	-0.716945	0.063839	161.953437	-87.621251	-150.630656	-0.036171	-0.020356	0.999138	-0.196569	0.980406	0.012858	-0.979823	-0.195934	-0.039463	0	0	0
14154	0	0	0	0	0	9.809070	0.136859	-0.406910	0.013561	-0.005740	0.002184	-0.806396	-0.158936	-0.402588	0.690034	0.075685	-0.716969	0.063882	162.001947	-87.617038	-150.672182	-0.036249	-0.020365	0.999135	-0.196688	0.980382	0.012847	-0.979796	-0.196053	-0.039544	0	0	0
14155	0	0	0	0	0	9.824379	0.105549	-0.408711	0.011455	-0.010726	0.004785	-0.805908	-0.160400	-0.399170	0.689984	0.075710	-0.717011	0.063924	162.105943	-87.610710	-150.770725	-0.036381	-0.020357	0.999131	-0.196782	0.980364	0.012809	-0.979772	-0.196145	-0.039672	0	0	0
14156	0	0	0	0	0	9.788178	0.125636	-0.401646	0.009015	-0.010477	-0.000014	-0.811768	-0.164307	-0.401611	0.689936	0.075743	-0.717051	0.063938	162.143671	-87.603556	-150.804553	-0.036502	-0.020396	0.999125	-0.196850	0.980350	0.012821	-0.979754	-0.196210	-0.039799	0	0	0
14157	0	0	0	0	0	9.811886	0.118425	-0.427072	0.006174	-0.015729	0.009118	-0.810791	-0.167969	-0.409912	0.689869	0.075736	-0.717114	0.063974	162.320835	-87.595244	-150.979357	-0.036690	-0.020355	0.999119	-0.196890	0.980343	0.012742	-0.979739	-0.196249	-0.039977	0	0	0
14158	0	0	0	0	0	9.788074	0.124515	-0.404508	0.004882	-0.016208	0.003604	-0.808594	-0.169922	-0.399414	0.689801	0.075747	-0.717177	0.063987	162.423932	-87.585600	-151.080453	-0.036874	-0.020372	0.999112	-0.196925	0.980336	0.012721	-0.979725	-0.196281	-0.040160	0	0	0
14159	0	0	0	0	0	9.829661	0.145262	-0.420306	0.002060	-0.014181	0.003334	-0.803711	-0.158691	-0.401611	0.689742	0.075746	-0.717233	0.063989	162.515474	-87.577105	-151.171920	-0.037036	-0.020384	0.999106	-0.196927	0.980336	0.012701	-0.979718	-0.196280	-0.040322	0	0	0
14160	0	0	0	0	0	9.835449	0.110215	-0.455741	0.000556	-0.015498	0.006051	-0.806641	-0.162109	-0.402344	0.689678	0.075733	-0.717296	0.063995	162.643793	-87.568222	-151.300783	-0.037217	-0.020375	0.999099	-0.196918	0.980338	0.012657	-0.979713	-0.196269	-0.040498	0	0	0
14161	0	0	0	0	0	9.841949	0.130645	-0.407508	-0.001444	-0.020066	0.004540	-0.807617	-0.158447	-0.393555	0.689599	0.075718	-0.717374	0.063986	162.770838	-87.556697	-151.429796	-0.037440	-0.020388	0.999091	-0.196885	0.980345	0.012627	-0.979711	-0.196233	-0.040718	0	0	0
14162	0	0	0	0	0	9.857209	0.099072	-0.410307	-0.000947	-0.016817	0.008769	-0.811035	-0.160156	-0.392090	0.689530	0.075688	-0.717443	0.063993	162.937630	-87.547504	-151.598379	-0.037641	-0.020354	0.999084	-0.196854	0.980352	0.012555	-0.979710	-0.196201	-0.040908	0	0	0
14163	0	0	0	0	0	9.836322	0.087804	-0.404912	-0.000046	-0.019171	0.005942	-0.807617	-0.166260	-0.391602	0.689453	0.075672	-0.717519	0.063994	163.077400	-87.536676	-151.739329	-0.037857	-0.020350	0.999076	-0.196835	0.980357	0.012511	-0.979706	-0.196179	-0.041119	0	0	0
14164	0	0	0	0	0	9.805925	0.073005	-0.432463	0.004253	-0.016060	0.006024	-0.808838	-0.166748	-0.401855	0.689384	0.075673	-0.717583	0.064014	163.206790	-87.527311	-151.866976	-0.038046	-0.020343	0.999069	-0.196865	0.980351	0.012465	-0.979692	-0.196207	-0.041303	0	0	0
14165	0	0	0	0	0	9.836189	0.086688	-0.408382	0.003128	-0.019157	0.004214	-0.805420	-0.161621	-0.402344	0.689307	0.075675	-0.717656	0.064021	163.324127	-87.516178	-151.983653	-0.038259	-0.020357	0.999060	-0.196877	0.980349	0.012436	-0.979681	-0.196216	-0.041515	0	0	0
14166	0	0	0	0	0	9.815317	0.075770	-0.402593	0.003537	-0.009045	0.003148	-0.808838	-0.167236	-0.399902	0.689266	0.075680	-0.717695	0.064030	163.387026	-87.510322	-152.045404	-0.038371	-0.020363	0.999056	-0.196897	0.980346	0.012420	-0.979673	-0.196234	-0.041626	0	0	0
14167	0	0	0	0	0	9.844484	0.109948	-0.434144	0.005652	-0.015165	0.007425	-0.813965	-0.167480	-0.394287	0.689201	0.075677	-0.717755	0.064058	163.529766	-87.501889	-152.186064	-0.038551	-0.020338	0.999050	-0.196932	0.980339	0.012358	-0.979659	-0.196269	-0.041798	0	0	0
14168	0	0	0	0	0	9.856861	0.095650	-0.419367	0.006608	-0.009451	0.005533	-0.810303	-0.156250	-0.398438	0.689155	0.075688	-0.717795	0.064088	163.625021	-87.496090	-152.277938	-0.038673	-0.020323	0.999045	-0.196990	0.980328	0.012317	-0.979642	-0.196326	-0.041915	0	0	0
14169	0	0	0	0	0	9.862334	0.136556	-0.426429	0.007484	-0.007980	0.005232	-0.806396	-0.172363	-0.393555	0.689116	0.075697	-0.717829	0.064118	163.713400	-87.491231	-152.363135	-0.038778	-0.020304	0.999042	-0.197044	0.980318	0.012276	-0.979627	-0.196380	-0.042016	0	0	0
14170	0	0	0	0	0	9.844381	0.108234	-0.436914	0.010386	-0.005766	0.003912	-0.809082	-0.164795	-0.399902	0.689083	0.075723	-0.717854	0.064157	163.776921	-87.487204	-152.421386	-0.038861	-0.020298	0.999038	-0.197135	0.980300	0.012249	-0.979606	-0.196469	-0.042097	0	0	0
14171	0	0	0	0	0	9.834830	0.103881	-0.470348	0.008860	-0.003259	0.009156	-0.801270	-0.165771	-0.394043	0.689059	0.075721	-0.717873	0.064207	163.897564	-87.485559	-152.538089	-0.038928	-0.020232	0.999037	-0.197201	0.980288	0.012168	-0.979590	-0.196537	-0.042150	0	0	0
14172	0	0	0	0	0	9.831945	0.120298	-0.453589	0.011762	-0.001046	0.007836	-0.811279	-0.169922	-0.393066	0.689042	0.075737	-0.717883	0.064266	163.993041	-87.484773	-152.627481	-0.038971	-0.020177	0.999037	-0.197304	0.980268	0.012101	-0.979567	-0.196642	-0.042183	0	0	0
14173	0	0	0	0	0	9.811118	0.108933	-0.446791	0.013979	-0.006747	0.008000	-0.809814	-0.164307	-0.397949	0.689003	0.075758	-0.717911	0.064329	164.114308	-87.481005	-152.741873	-0.039070	-0.020129	0.999034	-0.197421	0.980245	0.012030	-0.979540	-0.196760	-0.042272	0	0	0
14174	0	0	0	0	0	9.852745	0.129098	-0.461649	0.013434	-0.002349	0.008824	-0.811523	-0.157227	-0.391846	0.688980	0.075778	-0.717926	0.064398	164.227564	-87.479587	-152.847856	-0.039129	-0.020068	0.999033	-0.197544	0.980221	0.011953	-0.979513	-0.196885	-0.042320	0	0	0
14175	0	0	0	0	0	9.835953	0.079923	-0.415388	0.016335	-0.000137	0.007505	-0.809082	-0.161377	-0.399902	0.688965	0.075807	-0.717931	0.064471	164.320174	-87.479368	-152.932211	-0.039162	-0.020012	0.999032	-0.197684	0.980194	0.011886	-0.979483	-0.197027	-0.042343	0	0	0
14176	0	0	0	0	0	9.829065	0.134299	-0.437550	0.016689	0.001907	0.005501	-0.809814	-0.161133	-0.398682	0.688957	0.075843	-0.717929	0.064537	164.380595	-87.479804	-152.984299	-0.039173	-0.019973	0.999033	-0.197826	0.980166	0.011839	-0.979454	-0.197171	-0.042348	0	0	0
14177	0	0	0	0	0	9.826211	0.150948	-0.420271	0.015267	0.004834	0.006628	-0.806396	-0.156982	-0.406006	0.688960	0.075870	-0.717917	0.064604	164.444238	-87.482184	-153.040272	-0.039156	-0.019916	0.999035	-0.197956	0.980140	0.011781	-0.979429	-0.197304	-0.042321	0	0	0
14178	0	0	0	0	0	9.805417	0.139880	-0.412589	0.017918	0.005419	0.003196	-0.808350	-0.158691	-0.401367	0.688966	0.075915	-0.717901	0.064667	164.463530	-87.484300	-153.050726	-0.039127	-0.019892	0.999036	-0.198107	0.980110	0.011757	-0.979399	-0.197456	-0.042289	0	0	0
14179	0	0	0	0	0	9.838686	0.136354	-0.403238	0.016769	0.006147	0.003911	-0.807861	-0.160889	-0.394531	0.688974	0.075957	-0.717883	0.064731	164.489455	-87.486986	-153.068083	-0.039091	-0.019859	0.999038	-0.198252	0.980081	0.011725	-0.979371	-0.197603	-0.042249	0	0	0
14180	0	0	0	0	0	9.805472	0.138943	-0.411603	0.017564	0.003374	0.005203	-0.806152	-0.161865	-0.402588	0.688971	0.075996	-0.717875	0.064800	164.541211	-87.488218	-153.111014	-0.039087	-0.019820	0.999039	-0.198402	0.980051	0.011681	-0.979341	-0.197755	-0.042239	0	0	0
14181	0	0	0	0	0	9.823453	0.166209	-0.401263	0.015348	0.009074	0.005038	-0.799805	-0.158447	-0.401855	0.688990	0.076027	-0.717847	0.064864	164.570446	-87.492691	-153.132500	-0.039025	-0.019770	0.999043	-0.198534	0.980025	0.011639	-0.979317	-0.197889	-0.042170	0	0	0
14182	0	0	0	0	0	9.793124	0.151533	-0.426457	0.018190	0.003215	0.002790	-0.804932	-0.163818	-0.397461	0.688988	0.076077	-0.717839	0.064926	164.591925	-87.493549	-153.144878	-0.039015	-0.019755	0.999043	-0.198689	0.979994	0.011619	-0.979286	-0.198046	-0.042160	0	0	0
14183	0	0	0	0	0	9.826388	0.147908	-0.417200	0.016142	0.006300	0.006331	-0.814697	-0.156982	-0.393555	0.688996	0.076107	-0.717821	0.064997	164.647743	-87.496686	-153.192517	-0.038983	-0.019698	0.999046	-0.198828	0.979966	0.011564	-0.979259	-0.198187	-0.042119	0	0	0
14184	0	0	0	0	0	9.816896	0.143505	-0.449508	0.017019	0.007769	0.006029	-0.807373	-0.162598	-0.398926	0.689009	0.076142	-0.717799	0.065069	164.694847	-87.500421	-153.230959	-0.038938	-0.019643	0.999049	-0.198975	0.979937	0.011512	-0.979231	-0.198337	-0.042065	0	0	0
14185	0	0	0	0	0	9.816941	0.142843	-0.448740	0.013322	0.008331	0.006058	-0.814209	-0.163574	-0.405518	0.689026	0.076162	-0.717775	0.065129	164.738819	-87.504635	-153.268357	-0.038885	-0.019584	0.999052	-0.199086	0.979915	0.011460	-0.979210	-0.198451	-0.042003	0	0	0
14186	0	0	0	0	0	9.793284	0.149142	-0.423621	0.014553	0.011842	0.003750	-0.802246	-0.158691	-0.393799	0.689055	0.076196	-0.717738	0.065186	164.740450	-87.510351	-153.262631	-0.038794	-0.019543	0.999056	-0.199210	0.979890	0.011433	-0.979189	-0.198579	-0.041907	0	0	0
14187	0	0	0	0	0	9.822606	0.183160	-0.452885	0.012777	0.012728	0.006880	-0.804199	-0.166260	-0.395996	0.689088	0.076210	-0.717700	0.065249	164.779564	-87.517119	-153.295479	-0.038700	-0.019468	0.999061	-0.199316	0.979869	0.011373	-0.979171	-0.198689	-0.041801	0	0	0
14188	0	0	0	0	0	9.810267	0.196415	-0.467769	0.007537	0.011182	-0.000723	-0.802979	-0.162842	-0.403564	0.689118	0.076236	-0.717666	0.065266	164.722648	-87.521740	-153.235010	-0.038608	-0.019473	0.999065	-0.199377	0.979857	0.011393	-0.979162	-0.198750	-0.041712	0	0	0
14189	0	0	0	0	0	9.825612	0.165346	-0.467356	0.006366	0.015738	0.002513	-0.807373	-0.169434	-0.397949	0.689166	0.076244	-0.717617	0.065292	164.691724	-87.529512	-153.201432	-0.038475	-0.019434	0.999071	-0.199421	0.979848	0.011380	-0.979158	-0.198798	-0.041575	0	0	0
14190	0	0	0	0	0	9.804843	0.154615	-0.458837	0.006910	0.011339	0.001694	-0.804688	-0.155273	-0.392090	0.689197	0.076261	-0.717584	0.065316	164.663082	-87.534634	-153.169424	-0.038385	-0.019415	0.999074	-0.199478	0.979836	0.011377	-0.979150	-0.198857	-0.041484	0	0	0
14191	0	0	0	0	0	9.847634	0.154901	-0.415902	0.000560	0.011320	0.005152	-0.808350	-0.163086	-0.393799	0.689229	0.076240	-0.717553	0.065328	164.678017	-87.540364	-153.185076	-0.038301	-0.019360	0.999079	-0.199464	0.979839	0.011340	-0.979156	-0.198846	-0.041390	0	0	0
14192	0	0	0	0	0	9.835293	0.168052	-0.430951	-0.001716	0.008954	0.004055	-0.807129	-0.166260	-0.395996	0.689254	0.076216	-0.717532	0.065327	164.685858	-87.544434	-153.195016	-0.038241	-0.019321	0.999082	-0.199428	0.979847	0.011316	-0.979166	-0.198812	-0.041323	0	0	0
14193	0	0	0	0	0	9.835344	0.167556	-0.429988	-0.001467	0.010581	0.006168	-0.806396	-0.163818	-0.396240	0.689284	0.076184	-0.717506	0.065335	164.715490	-87.549908	-153.226542	-0.038166	-0.019257	0.999086	-0.199394	0.979855	0.011269	-0.979176	-0.198782	-0.041237	0	0	0
14194	0	0	0	0	0	9.814570	0.156473	-0.421503	0.000015	0.015717	0.005974	-0.806641	-0.163574	-0.397949	0.689332	0.076161	-0.717461	0.065351	164.723418	-87.558026	-153.235036	-0.038043	-0.019188	0.999092	-0.199383	0.979857	0.011226	-0.979183	-0.198775	-0.041102	0	0	0
14195	0	0	0	0	0	9.802256	0.169582	-0.436164	-0.001111	0.012621	0.004164	-0.807861	-0.165283	-0.396484	0.689370	0.076138	-0.717427	0.065355	164.720239	-87.564325	-153.233516	-0.037944	-0.019139	0.999097	-0.199353	0.979864	0.011200	-0.979193	-0.198748	-0.040995	0	0	0
14196	0	0	0	0	0	9.828948	0.144889	-0.475962	0.003984	0.012953	0.005541	-0.817383	-0.167969	-0.395752	0.689406	0.076130	-0.717390	0.065383	164.734801	-87.570861	-153.246466	-0.037847	-0.019079	0.999101	-0.199380	0.979859	0.011159	-0.979191	-0.198778	-0.040888	0	0	0
14197	0	0	0	0	0	9.796816	0.127295	-0.427154	-0.003574	0.016694	0.001882	-0.807129	-0.163574	-0.393555	0.689461	0.076105	-0.717341	0.065371	164.685857	-87.579066	-153.200553	-0.037704	-0.019045	0.999107	-0.199327	0.979870	0.011156	-0.979207	-0.198728	-0.040741	0	0	0
14198	0	0	0	0	0	9.814836	0.154817	-0.415885	0.002313	0.014254	0.004552	-0.809082	-0.166748	-0.397949	0.689502	0.076096	-0.717301	0.065391	164.682097	-87.586103	-153.195875	-0.037593	-0.018993	0.999113	-0.199342	0.979867	0.011126	-0.979209	-0.198746	-0.040622	0	0	0
14199	0	0	0	0	0	9.812212	0.095617	-0.425301	-0.000840	0.010421	0.003756	-0.806885	-0.158447	-0.393555	0.689533	0.076075	-0.717273	0.065393	164.681504	-87.591124	-153.196788	-0.037515	-0.018953	0.999116	-0.199315	0.979873	0.011104	-0.979217	-0.198722	-0.040537	0	0	0
14200	0	0	0	0	0	9.808372	0.132865	-0.463601	-0.000319	0.009848	0.005459	-0.799561	-0.157227	-0.398438	0.689559	0.076053	-0.717249	0.065403	164.704494	-87.595909	-153.220775	-0.037448	-0.018899	0.999120	-0.199297	0.979877	0.011066	-0.979223	-0.198707	-0.040461	0	0	0
14201	0	0	0	0	0	9.820793	0.118651	-0.446530	0.001079	0.010743	0.006861	-0.811279	-0.166260	-0.396973	0.689589	0.076028	-0.717221	0.065423	164.744864	-87.601577	-153.261587	-0.037373	-0.018828	0.999124	-0.199288	0.979879	0.011011	-0.979228	-0.198702	-0.040374	0	0	0
14202	0	0	0	0	0	9.799990	0.107583	-0.438458	-0.000047	0.007649	0.005049	-0.801758	-0.164063	-0.403320	0.689608	0.076008	-0.717204	0.065431	164.770586	-87.605124	-153.288304	-0.037327	-0.018783	0.999127	-0.199270	0.979883	0.010977	-0.979233	-0.198686	-0.040319	0	0	0
14203	0	0	0	0	0	9.841727	0.128271	-0.452132	0.000334	0.005865	0.000520	-0.804199	-0.167725	-0.399902	0.689623	0.076005	-0.717191	0.065424	164.744458	-87.607139	-153.262987	-0.037287	-0.018784	0.999128	-0.199256	0.979886	0.010986	-0.979238	-0.198673	-0.040280	0	0	0
14204	0	0	0	0	0	9.797151	0.124665	-0.420186	0.003238	0.008072	-0.000796	-0.809570	-0.172607	-0.397217	0.689644	0.076019	-0.717169	0.065426	164.691433	-87.610090	-153.208678	-0.037223	-0.018796	0.999130	-0.199278	0.979881	0.011009	-0.979236	-0.198695	-0.040220	0	0	0
14205	0	0	0	0	0	9.830387	0.121264	-0.410833	0.000139	0.001211	0.006233	-0.811768	-0.164551	-0.397949	0.689641	0.075996	-0.717174	0.065436	164.757623	-87.610394	-153.275870	-0.037241	-0.018750	0.999130	-0.199260	0.979885	0.010962	-0.979239	-0.198679	-0.040228	0	0	0
14206	0	0	0	0	0	9.805673	0.148206	-0.442942	0.001149	-0.000730	-0.000712	-0.810791	-0.165771	-0.402100	0.689630	0.076009	-0.717183	0.065430	164.736573	-87.608385	-153.254322	-0.037265	-0.018780	0.999129	-0.199269	0.979883	0.010986	-0.979236	-0.198686	-0.040257	0	0	0
14207	0	0	0	0	0	9.818032	0.134429	-0.426933	-0.000109	-0.000415	0.004119	-0.814209	-0.161133	-0.395752	0.689622	0.075993	-0.717193	0.065432	164.780445	-87.607470	-153.299319	-0.037294	-0.018757	0.999128	-0.199250	0.979888	0.010959	-0.979239	-0.198667	-0.040281	0	0	0
14208	0	0	0	0	0	9.794276	0.140917	-0.402987	0.000163	-0.002614	0.003708	-0.807617	-0.161133	-0.396240	0.689604	0.075983	-0.717211	0.065433	164.825537	-87.605110	-153.345145	-0.037346	-0.018746	0.999127	-0.199237	0.979890	0.010938	-0.979239	-0.198654	-0.040330	0	0	0
14209	0	0	0	0	0	9.815132	0.150933	-0.410300	-0.003286	-0.000423	0.005846	-0.808350	-0.161133	-0.397461	0.689596	0.075950	-0.717223	0.065429	164.890349	-87.604446	-153.412922	-0.037378	-0.018707	0.999126	-0.199186	0.979901	0.010895	-0.979249	-0.198604	-0.040353	0	0	0
14210	0	0	0	0	0	9.815143	0.150438	-0.410200	-0.004077	0.002348	0.004553	-0.805176	-0.162354	-0.405273	0.689597	0.075919	-0.717225	0.065419	164.926806	-87.604958	-153.452728	-0.037383	-0.018677	0.999126	-0.199128	0.979913	0.010867	-0.979260	-0.198548	-0.040351	0	0	0
14211	0	0	0	0	0	9.851271	0.129397	-0.418016	-0.001010	0.001940	0.006946	-0.802490	-0.163818	-0.393555	0.689597	0.075890	-0.717228	0.065428	164.999070	-87.605760	-153.526659	-0.037395	-0.018623	0.999127	-0.199098	0.979920	0.010813	-0.979266	-0.198520	-0.040352	0	0	0
14212	0	0	0	0	0	9.829481	0.138913	-0.466662	-0.003362	0.006430	0.000543	-0.812500	-0.166260	-0.405029	0.689614	0.075875	-0.717215	0.065409	164.967207	-87.607986	-153.497542	-0.037351	-0.018624	0.999129	-0.199051	0.979929	0.010825	-0.979277	-0.198474	-0.040308	0	0	0
14213	0	0	0	0	0	9.815217	0.149303	-0.408854	-0.006290	0.008047	0.004385	-0.802490	-0.162354	-0.393066	0.689638	0.075835	-0.717198	0.065392	164.980897	-87.611787	-153.515875	-0.037297	-0.018583	0.999131	-0.198971	0.979946	0.010798	-0.979295	-0.198396	-0.040247	0	0	0
14214	0	0	0	0	0	9.821040	0.114136	-0.442264	-0.002409	0.001044	0.005544	-0.802979	-0.159912	-0.403564	0.689634	0.075809	-0.717204	0.065393	165.035017	-87.611742	-153.572105	-0.037316	-0.018547	0.999131	-0.198934	0.979954	0.010761	-0.979302	-0.198360	-0.040258	0	0	0
14215	0	0	0	0	0	9.805804	0.144704	-0.441199	-0.004598	0.002920	0.002850	-0.802734	-0.167969	-0.403809	0.689639	0.075781	-0.717204	0.065375	165.047614	-87.612477	-153.588375	-0.037310	-0.018530	0.999132	-0.198871	0.979967	0.010748	-0.979315	-0.198298	-0.040248	0	0	0
14216	0	0	0	0	0	9.854281	0.110218	-0.432860	-0.005227	0.003077	0.005266	-0.804932	-0.167480	-0.401123	0.689644	0.075744	-0.717204	0.065364	165.088532	-87.613604	-153.633203	-0.037307	-0.018492	0.999133	-0.198804	0.979981	0.010715	-0.979329	-0.198232	-0.040236	0	0	0
14217	0	0	0	0	0	9.818196	0.130398	-0.424395	-0.005389	0.005691	0.001558	-0.805908	-0.161865	-0.403564	0.689660	0.075718	-0.717193	0.065340	165.073723	-87.615682	-153.622496	-0.037271	-0.018483	0.999134	-0.198733	0.979995	0.010716	-0.979345	-0.198162	-0.040198	0	0	0
14218	0	0	0	0	0	9.818217	0.130242	-0.423973	-0.007145	0.002755	0.002161	-0.803955	-0.160889	-0.394531	0.689666	0.075686	-0.717194	0.065312	165.073572	-87.616134	-153.627177	-0.037265	-0.018477	0.999135	-0.198651	0.980012	0.010714	-0.979362	-0.198080	-0.040191	0	0	0
14219	0	0	0	0	0	9.841989	0.123220	-0.447820	-0.005995	0.002025	0.001448	-0.806641	-0.165039	-0.405518	0.689669	0.075659	-0.717196	0.065284	165.069938	-87.616166	-153.628002	-0.037265	-0.018476	0.999135	-0.198575	0.980027	0.010716	-0.979377	-0.198003	-0.040190	0	0	0
14220	0	0	0	0	0	9.818238	0.129923	-0.423588	-0.004326	0.000722	0.002439	-0.805908	-0.154297	-0.399902	0.689666	0.075637	-0.717203	0.065266	165.083019	-87.615506	-153.644415	-0.037281	-0.018470	0.999134	-0.198517	0.980039	0.010710	-0.979388	-0.197946	-0.040203	0	0	0
14221	0	0	0	0	0	9.844915	0.105292	-0.464308	-0.002952	0.005439	0.006369	-0.807373	-0.162109	-0.393311	0.689678	0.075601	-0.717195	0.065268	165.134512	-87.618153	-153.698670	-0.037257	-0.018415	0.999136	-0.198469	0.980049	0.010662	-0.979399	-0.197901	-0.040168	0	0	0
14222	0	0	0	0	0	9.830634	0.115360	-0.406609	0.001103	0.006915	0.004341	-0.801025	-0.159180	-0.395996	0.689694	0.075586	-0.717180	0.065276	165.155987	-87.621160	-153.720775	-0.037217	-0.018377	0.999138	-0.198458	0.980052	0.010634	-0.979403	-0.197891	-0.040121	0	0	0
14223	0	0	0	0	0	9.818339	0.128495	-0.421671	0.000288	0.013509	0.005577	-0.805420	-0.163574	-0.405029	0.689735	0.075562	-0.717143	0.065289	165.170469	-87.628158	-153.736128	-0.037112	-0.018313	0.999143	-0.198441	0.980056	0.010592	-0.979410	-0.197878	-0.040006	0	0	0
14224	0	0	0	0	0	9.800443	0.100114	-0.430027	0.000017	0.015706	0.005990	-0.811768	-0.147461	-0.395508	0.689783	0.075535	-0.717098	0.065303	165.180772	-87.636338	-153.747443	-0.036988	-0.018243	0.999149	-0.198423	0.980060	0.010548	-0.979418	-0.197864	-0.039870	0	0	0
14225	0	0	0	0	0	9.821389	0.110059	-0.435494	-0.000774	0.018476	0.004700	-0.807617	-0.161621	-0.405273	0.689842	0.075509	-0.717043	0.065312	165.165300	-87.645959	-153.733426	-0.036833	-0.018177	0.999156	-0.198396	0.980065	0.010516	-0.979430	-0.197842	-0.039705	0	0	0
14226	0	0	0	0	0	9.872644	0.134224	-0.414872	0.002651	0.020108	0.005091	-0.804688	-0.162598	-0.397705	0.689905	0.075489	-0.716983	0.065330	165.151874	-87.656422	-153.720209	-0.036665	-0.018105	0.999164	-0.198391	0.980067	0.010479	-0.979437	-0.197841	-0.039526	0	0	0
14227	0	0	0	0	0	9.867096	0.092307	-0.406652	0.003800	0.019377	0.004380	-0.799561	-0.157715	-0.401367	0.689966	0.075479	-0.716923	0.065354	165.131198	-87.666494	-153.698361	-0.036501	-0.018041	0.999171	-0.198410	0.980063	0.010448	-0.979439	-0.197864	-0.039353	0	0	0
14228	0	0	0	0	0	9.825244	0.147065	-0.363071	0.003193	0.015711	0.004269	-0.802734	-0.166504	-0.406738	0.690013	0.075469	-0.716877	0.065374	165.120259	-87.674411	-153.686656	-0.036373	-0.017987	0.999176	-0.198422	0.980061	0.010420	-0.979442	-0.197879	-0.039217	0	0	0
14229	0	0	0	0	0	9.852009	0.122718	-0.402332	0.004544	0.019635	-0.002154	-0.804932	-0.155518	-0.401855	0.690076	0.075486	-0.716814	0.065378	165.009328	-87.683660	-153.574053	-0.036194	-0.017987	0.999183	-0.198450	0.980055	0.010454	-0.979442	-0.197910	-0.039041	0	0	0
14230	0	0	0	0	0	9.830357	0.132490	-0.449762	0.002314	0.014242	0.004571	-0.805664	-0.167236	-0.399658	0.690119	0.075472	-0.716773	0.065394	165.006358	-87.690857	-153.570879	-0.036080	-0.017933	0.999188	-0.198452	0.980055	0.010424	-0.979446	-0.197915	-0.038920	0	0	0
14231	0	0	0	0	0	9.848416	0.159885	-0.437891	-0.004927	0.027668	0.003961	-0.809570	-0.167725	-0.398682	0.690212	0.075431	-0.716688	0.065389	164.943189	-87.705452	-153.511509	-0.035834	-0.017857	0.999198	-0.198386	0.980069	0.010401	-0.979469	-0.197854	-0.038662	0	0	0
14232	0	0	0	0	0	9.845624	0.176660	-0.418249	-0.005041	0.027249	0.008083	-0.803711	-0.168213	-0.411621	0.690302	0.075382	-0.716605	0.065401	164.934806	-87.720248	-153.506213	-0.035601	-0.017745	0.999209	-0.198331	0.980081	0.010339	-0.979488	-0.197806	-0.038412	0	0	0
14233	0	0	0	0	0	9.840098	0.134496	-0.409254	-0.003013	0.027984	0.007075	-0.808594	-0.157227	-0.402832	0.690395	0.075336	-0.716519	0.065413	164.913872	-87.735480	-153.488014	-0.035358	-0.017638	0.999219	-0.198282	0.980091	0.010284	-0.979507	-0.197763	-0.038151	0	0	0
14234	0	0	0	0	0	9.783221	0.143903	-0.391492	-0.001863	0.027253	0.006366	-0.811279	-0.158691	-0.407715	0.690485	0.075298	-0.716435	0.065426	164.883425	-87.750150	-153.459606	-0.035120	-0.017541	0.999229	-0.198245	0.980099	0.010238	-0.979523	-0.197732	-0.037899	0	0	0
14235	0	0	0	0	0	9.798546	0.112441	-0.390022	-0.002445	0.019768	0.003722	-0.807617	-0.160889	-0.412598	0.690550	0.075270	-0.716376	0.065426	164.846238	-87.760336	-153.424817	-0.034951	-0.017483	0.999236	-0.198202	0.980108	0.010216	-0.979538	-0.197694	-0.037721	0	0	0
14236	0	0	0	0	0	9.798628	0.111878	-0.388133	0.001135	0.018784	0.007825	-0.807617	-0.160400	-0.396729	0.690608	0.075237	-0.716321	0.065449	164.871079	-87.770562	-153.450417	-0.034799	-0.017388	0.999243	-0.198188	0.980112	0.010153	-0.979546	-0.197684	-0.037553	0	0	0
14237	0	0	0	0	0	9.790102	0.087343	-0.363062	-0.001811	0.019610	0.001308	-0.807129	-0.163330	-0.398926	0.690673	0.075219	-0.716261	0.065443	164.800055	-87.780298	-153.381402	-0.034626	-0.017354	0.999250	-0.198152	0.980119	0.010155	-0.979559	-0.197652	-0.037376	0	0	0
14238	0	0	0	0	0	9.777886	0.100622	-0.377435	0.000010	0.015692	0.006008	-0.804199	-0.171631	-0.402588	0.690720	0.075194	-0.716217	0.065459	164.810727	-87.788370	-153.392791	-0.034504	-0.017284	0.999255	-0.198139	0.980122	0.010111	-0.979567	-0.197642	-0.037243	0	0	0
14239	0	0	0	0	0	9.783611	0.141521	-0.382524	-0.003750	0.008203	0.005082	-0.806152	-0.164551	-0.401367	0.690743	0.075160	-0.716199	0.065454	164.836500	-87.792363	-153.421758	-0.034450	-0.017235	0.999258	-0.198083	0.980133	0.010076	-0.979580	-0.197589	-0.037180	0	0	0
14240	0	0	0	0	0	9.777968	0.099708	-0.375538	-0.003995	0.006580	0.002964	-0.802979	-0.165771	-0.399658	0.690760	0.075140	-0.716185	0.065445	164.834155	-87.794988	-153.421852	-0.034409	-0.017215	0.999260	-0.198041	0.980142	0.010066	-0.979590	-0.197548	-0.037135	0	0	0
14241	0	0	0	0	0	9.777991	0.099453	-0.374999	-0.003723	0.004384	0.002550	-0.805908	-0.164307	-0.399658	0.690770	0.075116	-0.716179	0.065430	164.838527	-87.796490	-153.429387	-0.034388	-0.017198	0.999261	-0.197987	0.980153	0.010056	-0.979601	-0.197494	-0.037111	0	0	0
14242	0	0	0	0	0	9.762792	0.130277	-0.373743	-0.000543	0.004392	0.000829	-0.800781	-0.162354	-0.399658	0.690779	0.075114	-0.716172	0.065423	164.817182	-87.797566	-153.408754	-0.034365	-0.017202	0.999261	-0.197975	0.980155	0.010065	-0.979605	-0.197482	-0.037089	0	0	0
14243	0	0	0	0	0	9.819819	0.120194	-0.388335	-0.001938	0.003499	-0.000578	-0.800049	-0.164063	-0.403564	0.690786	0.075107	-0.716167	0.065404	164.781040	-87.798108	-153.374721	-0.034347	-0.017218	0.999262	-0.197939	0.980163	0.010086	-0.979612	-0.197446	-0.037073	0	0	0
14244	0	0	0	0	0	9.813439	0.099158	-0.438017	-0.000272	0.002196	0.000414	-0.797607	-0.156494	-0.401855	0.690787	0.075106	-0.716167	0.065394	164.762478	-87.797964	-153.357002	-0.034343	-0.017230	0.999262	-0.197924	0.980165	0.010098	-0.979615	-0.197432	-0.037073	0	0	0
14245	0	0	0	0	0	9.832110	0.106215	-0.371925	-0.001631	-0.001728	0.006834	-0.799072	-0.160645	-0.399658	0.690774	0.075076	-0.716183	0.065400	164.853481	-87.796729	-153.450032	-0.034391	-0.017184	0.999261	-0.197889	0.980173	0.010045	-0.979621	-0.197397	-0.037109	0	0	0
14246	0	0	0	0	0	9.835057	0.088441	-0.388829	-0.003452	0.002188	0.002136	-0.805176	-0.160889	-0.392578	0.690776	0.075055	-0.716185	0.065382	164.859293	-87.796853	-153.459027	-0.034391	-0.017178	0.999261	-0.197835	0.980184	0.010041	-0.979632	-0.197343	-0.037108	0	0	0
14247	0	0	0	0	0	9.853027	0.115881	-0.378741	-0.001540	0.002507	0.005247	-0.803711	-0.161133	-0.406250	0.690778	0.075029	-0.716186	0.065384	164.911026	-87.797719	-153.512705	-0.034394	-0.017139	0.999261	-0.197801	0.980191	0.010003	-0.979639	-0.197311	-0.037103	0	0	0
14248	0	0	0	0	0	9.843709	0.111616	-0.411593	0.000127	0.001204	0.006239	-0.797607	-0.168945	-0.403320	0.690773	0.075008	-0.716191	0.065394	164.981631	-87.797846	-153.584142	-0.034413	-0.017095	0.999261	-0.197786	0.980195	0.009957	-0.979641	-0.197297	-0.037113	0	0	0
14249	0	0	0	0	0	9.822825	0.100533	-0.404292	-0.000145	0.003400	0.006654	-0.803711	-0.165771	-0.404785	0.690777	0.074982	-0.716189	0.065406	165.051066	-87.799410	-153.654735	-0.034410	-0.017040	0.999263	-0.197765	0.980199	0.009905	-0.979645	-0.197278	-0.037099	0	0	0
14250	0	0	0	0	0	9.799011	0.106724	-0.379810	-0.001567	0.006325	0.007781	-0.807861	-0.154297	-0.395264	0.690791	0.074952	-0.716177	0.065421	165.120471	-87.802659	-153.725382	-0.034380	-0.016973	0.999265	-0.197743	0.980205	0.009846	-0.979651	-0.197259	-0.037056	0	0	0
14251	0	0	0	0	0	9.841538	0.106487	-0.337226	-0.001296	0.004129	0.007367	-0.808838	-0.158447	-0.397461	0.690798	0.074919	-0.716173	0.065432	165.197010	-87.804724	-153.803745	-0.034371	-0.016910	0.999266	-0.197710	0.980212	0.009787	-0.979658	-0.197229	-0.037034	0	0	0
14252	0	0	0	0	0	9.829293	0.119450	-0.352931	-0.003841	0.003966	0.006672	-0.807373	-0.162109	-0.403809	0.690804	0.074879	-0.716172	0.065429	165.263511	-87.806378	-153.873746	-0.034366	-0.016855	0.999267	-0.197650	0.980224	0.009737	-0.979670	-0.197170	-0.037018	0	0	0
14253	0	0	0	0	0	9.832254	0.101636	-0.369399	0.003398	0.005446	0.002931	-0.806641	-0.160645	-0.400391	0.690815	0.074878	-0.716160	0.065441	165.273774	-87.808521	-153.883092	-0.034335	-0.016833	0.999269	-0.197665	0.980221	0.009720	-0.979668	-0.197187	-0.036983	0	0	0
14254	0	0	0	0	0	9.832277	0.101297	-0.368860	0.005944	0.005609	0.003627	-0.804199	-0.166504	-0.404541	0.690825	0.074885	-0.716147	0.065466	165.293252	-87.810713	-153.900039	-0.034306	-0.016806	0.999270	-0.197708	0.980213	0.009698	-0.979661	-0.197231	-0.036949	0	0	0
14255	0	0	0	0	0	9.835913	0.063194	-0.329207	0.005336	0.001947	0.003509	-0.805420	-0.163574	-0.406250	0.690823	0.074889	-0.716147	0.065486	165.326361	-87.811001	-153.931137	-0.034310	-0.016785	0.999270	-0.197742	0.980206	0.009676	-0.979654	-0.197265	-0.036950	0	0	0
14256	0	0	0	0	0	9.832312	0.100554	-0.368129	0.005944	0.005608	0.003627	-0.793457	-0.159424	-0.401123	0.690833	0.074898	-0.716134	0.065512	165.344197	-87.813241	-153.946142	-0.034279	-0.016759	0.999272	-0.197790	0.980197	0.009654	-0.979645	-0.197315	-0.036915	0	0	0
14257	0	0	0	0	0	9.832330	0.100182	-0.367763	0.005336	0.001947	0.003510	-0.802979	-0.154541	-0.398193	0.690831	0.074903	-0.716134	0.065532	165.377354	-87.813527	-153.977288	-0.034284	-0.016738	0.999272	-0.197824	0.980190	0.009632	-0.979638	-0.197349	-0.036916	0	0	0
14258	0	0	0	0	0	9.820085	0.113520	-0.383583	0.008245	0.004149	0.002204	-0.800049	-0.163086	-0.400635	0.690836	0.074920	-0.716125	0.065556	165.384085	-87.814735	-153.980596	-0.034266	-0.016727	0.999273	-0.197882	0.980179	0.009622	-0.979627	-0.197408	-0.036897	0	0	0
14259	0	0	0	0	0	9.832355	0.099512	-0.367272	0.010698	0.000075	0.004487	-0.810791	-0.165039	-0.401123	0.690824	0.074940	-0.716130	0.065598	165.441607	-87.814124	-154.033050	-0.034291	-0.016700	0.999272	-0.197968	0.980162	0.009587	-0.979608	-0.197495	-0.036917	0	0	0
14260	0	0	0	0	0	9.817175	0.130415	-0.366070	0.012153	0.008234	-0.003521	-0.807861	-0.159424	-0.406250	0.690844	0.074996	-0.716104	0.065623	165.350123	-87.816721	-153.935053	-0.034222	-0.016739	0.999274	-0.198080	0.980138	0.009635	-0.979588	-0.197607	-0.036858	0	0	0
14261	0	0	0	0	0	9.823077	0.095697	-0.399307	0.010790	0.004310	0.002900	-0.801025	-0.168457	-0.396484	0.690848	0.075021	-0.716093	0.065661	165.368617	-87.818229	-153.948397	-0.034202	-0.016720	0.999275	-0.198168	0.980121	0.009616	-0.979571	-0.197695	-0.036835	0	0	0
14262	0	0	0	0	0	9.814435	0.071299	-0.375912	0.013878	0.000081	0.002768	-0.805420	-0.161377	-0.406982	0.690835	0.075062	-0.716097	0.065711	165.400395	-87.817228	-153.972810	-0.034225	-0.016713	0.999274	-0.198294	0.980096	0.009600	-0.979545	-0.197821	-0.036858	0	0	0
14263	0	0	0	0	0	9.829480	0.116188	-0.348799	0.018275	0.007408	0.001282	-0.803223	-0.163818	-0.403076	0.690849	0.075117	-0.716073	0.065771	165.387906	-87.820221	-153.950858	-0.034171	-0.016703	0.999276	-0.198455	0.980063	0.009595	-0.979514	-0.197984	-0.036805	0	0	0
14264	0	0	0	0	0	9.817254	0.129675	-0.364195	0.012033	0.007813	0.000602	-0.800049	-0.167236	-0.398438	0.690865	0.075155	-0.716049	0.065808	165.357785	-87.823251	-153.914675	-0.034113	-0.016701	0.999278	-0.198559	0.980042	0.009601	-0.979495	-0.198088	-0.036749	0	0	0
14265	0	0	0	0	0	9.823812	0.074441	-0.341232	0.011940	0.003578	0.002192	-0.801758	-0.161377	-0.401611	0.690867	0.075187	-0.716040	0.065848	165.369425	-87.824252	-153.920501	-0.034099	-0.016690	0.999279	-0.198658	0.980022	0.009589	-0.979476	-0.198188	-0.036734	0	0	0
14266	0	0	0	0	0	9.838204	0.139664	-0.370387	0.011940	0.003578	0.002192	-0.806396	-0.168945	-0.401367	0.690868	0.075223	-0.716032	0.065890	165.378244	-87.825108	-153.922994	-0.034087	-0.016682	0.999280	-0.198766	0.980000	0.009580	-0.979454	-0.198296	-0.036721	0	0	0
14267	0	0	0	0	0	9.844108	0.104682	-0.403790	0.012820	0.005043	0.001895	-0.808105	-0.165527	-0.404053	0.690874	0.075258	-0.716018	0.065932	165.380495	-87.826877	-153.918920	-0.034058	-0.016671	0.999281	-0.198874	0.979978	0.009571	-0.979433	-0.198405	-0.036691	0	0	0
14268	0	0	0	0	0	9.810972	0.107741	-0.412270	0.013184	0.007081	-0.000107	-0.806396	-0.154541	-0.399170	0.690888	0.075307	-0.715996	0.065973	165.342427	-87.829333	-153.873536	-0.034006	-0.016679	0.999282	-0.198999	0.979953	0.009584	-0.979410	-0.198530	-0.036644	0	0	0
14269	0	0	0	0	0	9.828966	0.135481	-0.401833	0.012304	0.005615	0.000191	-0.809570	-0.155518	-0.396729	0.690897	0.075346	-0.715980	0.066008	165.317215	-87.831172	-153.842275	-0.033968	-0.016683	0.999284	-0.199102	0.979932	0.009592	-0.979390	-0.198634	-0.036608	0	0	0
14270	0	0	0	0	0	9.844194	0.104182	-0.401829	0.007946	0.010160	0.005153	-0.804932	-0.156006	-0.395264	0.690922	0.075348	-0.715952	0.066043	165.345966	-87.836063	-153.868009	-0.033899	-0.016631	0.999287	-0.199153	0.979922	0.009552	-0.979382	-0.198687	-0.036531	0	0	0
14271	0	0	0	0	0	9.822700	0.113770	-0.449892	0.010976	0.012774	-0.000273	-0.808838	-0.160400	-0.392090	0.690958	0.075382	-0.715912	0.066074	165.285488	-87.841801	-153.802219	-0.033790	-0.016625	0.999291	-0.199243	0.979903	0.009565	-0.979367	-0.198779	-0.036424	0	0	0
14272	0	0	0	0	0	9.835025	0.100115	-0.431934	0.009105	0.024323	0.000089	-0.810791	-0.158936	-0.406982	0.691034	0.075406	-0.715833	0.066104	165.184444	-87.853736	-153.696890	-0.033573	-0.016595	0.999298	-0.199316	0.979888	0.009576	-0.979360	-0.198855	-0.036206	0	0	0
14273	0	0	0	0	0	9.835139	0.100152	-0.429314	0.005503	0.029123	-0.001485	-0.811523	-0.163330	-0.396240	0.691130	0.075420	-0.715737	0.066118	165.037176	-87.868340	-153.547388	-0.033302	-0.016569	0.999308	-0.199353	0.979881	0.009604	-0.979362	-0.198895	-0.035935	0	0	0
14274	0	0	0	0	0	9.853229	0.128022	-0.416477	0.004080	0.032047	-0.000358	-0.804199	-0.169678	-0.405273	0.691237	0.075425	-0.715632	0.066131	164.891256	-87.884536	-153.399957	-0.033006	-0.016528	0.999318	-0.199378	0.979875	0.009622	-0.979367	-0.198925	-0.035637	0	0	0
14275	0	0	0	0	0	9.841696	0.121481	-0.373337	0.007532	0.029852	-0.002485	-0.810547	-0.161865	-0.399658	0.691335	0.075449	-0.715533	0.066149	164.722868	-87.899364	-153.228160	-0.032726	-0.016511	0.999328	-0.199436	0.979863	0.009658	-0.979364	-0.198985	-0.035360	0	0	0
14276	0	0	0	0	0	9.830119	0.114886	-0.330740	-0.000927	0.021061	0.001011	-0.797607	-0.168213	-0.397705	0.691404	0.075440	-0.715468	0.066148	164.634046	-87.909681	-153.140239	-0.032540	-0.016480	0.999335	-0.199419	0.979867	0.009665	-0.979374	-0.198972	-0.035171	0	0	0
14277	0	0	0	0	0	9.763901	0.121192	-0.346847	-0.000048	0.022524	0.000717	-0.800781	-0.162598	-0.401855	0.691478	0.075429	-0.715397	0.066147	164.537060	-87.920924	-153.044240	-0.032337	-0.016445	0.999342	-0.199402	0.979870	0.009672	-0.979384	-0.198958	-0.034966	0	0	0
14278	0	0	0	0	0	9.790858	0.096393	-0.385644	-0.004600	0.018605	0.008853	-0.804932	-0.170654	-0.400391	0.691536	0.075380	-0.715345	0.066159	164.574243	-87.931083	-153.084480	-0.032191	-0.016342	0.999348	-0.199347	0.979882	0.009603	-0.979400	-0.198908	-0.034801	0	0	0
14279	0	0	0	0	0	9.800162	0.099709	-0.350931	-0.001264	0.015204	0.000483	-0.803467	-0.150879	-0.397705	0.691585	0.075368	-0.715300	0.066150	164.502832	-87.938245	-153.014771	-0.032060	-0.016325	0.999353	-0.199318	0.979888	0.009613	-0.979410	-0.198881	-0.034669	0	0	0
14280	0	0	0	0	0	9.775800	0.126798	-0.381704	-0.001022	0.016826	0.002604	-0.799072	-0.164795	-0.401123	0.691638	0.075350	-0.715251	0.066150	164.455866	-87.946436	-152.969239	-0.031919	-0.016285	0.999358	-0.199293	0.979893	0.009603	-0.979420	-0.198858	-0.034523	0	0	0
14281	0	0	0	0	0	9.791051	0.095439	-0.380939	-0.002269	0.013325	0.004902	-0.807373	-0.158447	-0.406250	0.691679	0.075320	-0.715214	0.066152	164.459274	-87.953235	-152.974974	-0.031815	-0.016228	0.999362	-0.199252	0.979902	0.009569	-0.979432	-0.198820	-0.034409	0	0	0
14282	0	0	0	0	0	9.824243	0.091883	-0.370489	-0.001630	0.013166	0.002487	-0.800781	-0.154053	-0.395264	0.691719	0.075302	-0.715178	0.066148	164.424492	-87.959453	-152.942032	-0.031709	-0.016197	0.999366	-0.199220	0.979908	0.009561	-0.979442	-0.198790	-0.034299	0	0	0
14283	0	0	0	0	0	9.812085	0.105271	-0.385549	-0.002238	0.009507	0.002368	-0.810303	-0.165527	-0.400391	0.691747	0.075282	-0.715153	0.066140	164.405029	-87.963756	-152.924863	-0.031638	-0.016173	0.999369	-0.199180	0.979916	0.009552	-0.979452	-0.198752	-0.034224	0	0	0
14284	0	0	0	0	0	9.824326	0.091479	-0.368373	-0.003903	0.010810	0.001372	-0.799561	-0.159668	-0.402588	0.691779	0.075260	-0.715126	0.066123	164.363131	-87.968406	-152.886097	-0.031555	-0.016157	0.999371	-0.199126	0.979927	0.009555	-0.979466	-0.198699	-0.034139	0	0	0
14285	0	0	0	0	0	9.848287	0.084254	-0.391343	-0.006301	0.008040	0.004378	-0.803955	-0.163818	-0.396240	0.691803	0.075220	-0.715109	0.066106	164.378859	-87.972209	-152.906471	-0.031501	-0.016116	0.999374	-0.199046	0.979944	0.009528	-0.979484	-0.198621	-0.034077	0	0	0
14286	0	0	0	0	0	9.842333	0.118576	-0.357126	-0.004974	0.000885	0.004839	-0.800049	-0.157715	-0.401123	0.691799	0.075187	-0.715117	0.066095	164.432203	-87.971954	-152.963448	-0.031521	-0.016086	0.999374	-0.198983	0.979957	0.009498	-0.979496	-0.198559	-0.034090	0	0	0
14287	0	0	0	0	0	9.854067	0.124932	-0.397155	-0.003183	-0.000003	0.001714	-0.798340	-0.155029	-0.407471	0.691794	0.075169	-0.715126	0.066077	164.443251	-87.970907	-152.977352	-0.031541	-0.016087	0.999373	-0.198934	0.979967	0.009496	-0.979505	-0.198510	-0.034110	0	0	0
14288	0	0	0	0	0	9.845323	0.100755	-0.374070	-0.002911	-0.002197	0.001299	-0.802490	-0.159180	-0.403809	0.691781	0.075152	-0.715142	0.066055	164.456936	-87.968508	-152.994234	-0.031583	-0.016097	0.999371	-0.198880	0.979978	0.009499	-0.979515	-0.198455	-0.034152	0	0	0
14289	0	0	0	0	0	9.842332	0.118027	-0.357324	-0.002032	-0.000734	0.001005	-0.810303	-0.163086	-0.404541	0.691772	0.075141	-0.715153	0.066039	164.460728	-87.966949	-153.000216	-0.031609	-0.016106	0.999371	-0.198843	0.979985	0.009504	-0.979522	-0.198417	-0.034179	0	0	0
14290	0	0	0	0	0	9.800456	0.097020	-0.343395	-0.001519	-0.001306	0.002710	-0.808105	-0.169189	-0.400146	0.691761	0.075127	-0.715166	0.066031	164.492277	-87.965196	-153.033601	-0.031646	-0.016101	0.999369	-0.198811	0.979992	0.009493	-0.979527	-0.198386	-0.034214	0	0	0
14291	0	0	0	0	0	9.812187	0.103496	-0.383421	0.002273	0.002355	0.001116	-0.798828	-0.160400	-0.405029	0.691762	0.075129	-0.715165	0.066032	164.486923	-87.965359	-153.027964	-0.031642	-0.016103	0.999370	-0.198816	0.979991	0.009496	-0.979526	-0.198390	-0.034210	0	0	0
14292	0	0	0	0	0	9.812659	0.083061	-0.327083	0.000513	-0.000573	0.001706	-0.800537	-0.162842	-0.409668	0.691752	0.075129	-0.715175	0.066030	164.499427	-87.963841	-153.040663	-0.031669	-0.016108	0.999369	-0.198813	0.979991	0.009495	-0.979526	-0.198387	-0.034238	0	0	0
14293	0	0	0	0	0	9.809204	0.120507	-0.366568	0.002177	-0.001876	0.002702	-0.805420	-0.163086	-0.402344	0.691738	0.075127	-0.715188	0.066034	164.536832	-87.961910	-153.077868	-0.031710	-0.016103	0.999367	-0.198816	0.979991	0.009482	-0.979524	-0.198390	-0.034277	0	0	0
14294	0	0	0	0	0	9.830140	0.130908	-0.373643	0.005215	0.000737	-0.002719	-0.803467	-0.159424	-0.403564	0.691733	0.075156	-0.715190	0.066033	164.477946	-87.960496	-153.016767	-0.031714	-0.016148	0.999367	-0.198855	0.979983	0.009524	-0.979516	-0.198427	-0.034291	0	0	0
14295	0	0	0	0	0	9.845318	0.099847	-0.374438	0.008416	-0.002284	0.003395	-0.801270	-0.166504	-0.401367	0.691714	0.075173	-0.715203	0.066062	164.531378	-87.958446	-153.066430	-0.031760	-0.016136	0.999365	-0.198919	0.979970	0.009501	-0.979501	-0.198491	-0.034334	0	0	0
14296	0	0	0	0	0	9.830127	0.130661	-0.374086	0.006783	-0.004797	-0.000136	-0.805664	-0.161621	-0.413086	0.691688	0.075201	-0.715225	0.066073	164.537562	-87.954325	-153.069432	-0.031825	-0.016167	0.999363	-0.198974	0.979958	0.009517	-0.979488	-0.198545	-0.034404	0	0	0
14297	0	0	0	0	0	9.806190	0.137630	-0.350593	0.007663	-0.003334	-0.000431	-0.807861	-0.161133	-0.407715	0.691667	0.075229	-0.715241	0.066086	164.535739	-87.951110	-153.064239	-0.031874	-0.016195	0.999361	-0.199032	0.979947	0.009533	-0.979474	-0.198601	-0.034458	0	0	0
14298	0	0	0	0	0	9.815128	0.085468	-0.401542	0.006511	-0.002603	0.000279	-0.804443	-0.162598	-0.404297	0.691649	0.075251	-0.715255	0.066096	164.538858	-87.948355	-153.064777	-0.031917	-0.016217	0.999359	-0.199077	0.979937	0.009544	-0.979464	-0.198645	-0.034505	0	0	0
14299	0	0	0	0	0	9.812137	0.102765	-0.384885	0.005360	-0.001873	0.000989	-0.799072	-0.164795	-0.405029	0.691634	0.075266	-0.715267	0.066106	164.551365	-87.946164	-153.075243	-0.031954	-0.016228	0.999358	-0.199112	0.979930	0.009546	-0.979456	-0.198679	-0.034544	0	0	0
14300	0	0	0	0	0	9.821348	0.106372	-0.352007	0.007904	-0.001713	0.001690	-0.797852	-0.157227	-0.401611	0.691618	0.075290	-0.715278	0.066128	164.572587	-87.944058	-153.092661	-0.031991	-0.016235	0.999356	-0.199177	0.979917	0.009543	-0.979441	-0.198744	-0.034583	0	0	0
14301	0	0	0	0	0	9.809153	0.119705	-0.368214	0.009025	0.001373	0.003516	-0.804932	-0.159424	-0.398926	0.691613	0.075307	-0.715279	0.066161	164.612250	-87.944044	-153.128199	-0.032002	-0.016216	0.999356	-0.199248	0.979903	0.009520	-0.979427	-0.198815	-0.034589	0	0	0
14302	0	0	0	0	0	9.809167	0.119353	-0.367947	0.010785	0.004300	0.002926	-0.809570	-0.156250	-0.404785	0.691616	0.075332	-0.715269	0.066198	164.630974	-87.945406	-153.141934	-0.031984	-0.016197	0.999357	-0.199332	0.979886	0.009502	-0.979410	-0.198900	-0.034570	0	0	0
14303	0	0	0	0	0	9.827130	0.147089	-0.357959	0.008030	-0.001299	-0.002431	-0.803223	-0.157471	-0.404541	0.691603	0.075368	-0.715277	0.066206	164.589878	-87.943011	-153.097231	-0.032009	-0.016241	0.999356	-0.199395	0.979873	0.009538	-0.979396	-0.198961	-0.034603	0	0	0
14304	0	0	0	0	0	9.842300	0.116171	-0.358822	0.002815	-0.002034	0.000288	-0.803467	-0.163574	-0.407715	0.691589	0.075374	-0.715291	0.066202	164.590754	-87.940510	-153.097979	-0.032048	-0.016260	0.999354	-0.199397	0.979872	0.009549	-0.979394	-0.198963	-0.034645	0	0	0
14305	0	0	0	0	0	9.827112	0.147078	-0.358441	-0.000096	-0.004230	0.001588	-0.811768	-0.165527	-0.404053	0.691567	0.075369	-0.715313	0.066193	164.619187	-87.937107	-153.127509	-0.032109	-0.016271	0.999352	-0.199379	0.979876	0.009547	-0.979396	-0.198943	-0.034707	0	0	0
14306	0	0	0	0	0	9.824317	0.088116	-0.369438	-0.004672	-0.005123	0.001891	-0.804688	-0.161621	-0.401611	0.691543	0.075350	-0.715341	0.066171	164.650582	-87.933127	-153.162260	-0.032181	-0.016283	0.999349	-0.199322	0.979888	0.009547	-0.979406	-0.198885	-0.034779	0	0	0
14307	0	0	0	0	0	9.830059	0.129267	-0.376339	-0.008734	-0.006589	0.003900	-0.802246	-0.153809	-0.400635	0.691515	0.075308	-0.715375	0.066139	164.719075	-87.928770	-153.236828	-0.032270	-0.016275	0.999347	-0.199218	0.979909	0.009525	-0.979424	-0.198780	-0.034864	0	0	0
14308	0	0	0	0	0	9.812086	0.101162	-0.386613	-0.006094	-0.002198	0.003014	-0.805664	-0.157471	-0.400879	0.691502	0.075275	-0.715393	0.066113	164.756761	-87.926556	-153.279309	-0.032317	-0.016268	0.999345	-0.199136	0.979926	0.009512	-0.979439	-0.198698	-0.034908	0	0	0
14309	0	0	0	0	0	9.842238	0.115088	-0.360869	-0.009519	-0.003822	0.002609	-0.795166	-0.164307	-0.404785	0.691485	0.075233	-0.715418	0.066074	164.793206	-87.923529	-153.322259	-0.032376	-0.016268	0.999343	-0.199025	0.979948	0.009504	-0.979459	-0.198587	-0.034965	0	0	0
14310	0	0	0	0	0	9.830520	0.108052	-0.320997	-0.011580	-0.000739	0.006149	-0.804688	-0.156982	-0.403320	0.691478	0.075172	-0.715434	0.066042	164.867664	-87.922623	-153.404372	-0.032414	-0.016228	0.999343	-0.198894	0.979975	0.009463	-0.979485	-0.198456	-0.034992	0	0	0
14311	0	0	0	0	0	9.800358	0.093635	-0.347108	-0.007120	-0.001054	-0.000397	-0.801758	-0.158936	-0.406250	0.691471	0.075148	-0.715446	0.066002	164.848061	-87.920675	-153.389861	-0.032440	-0.016252	0.999342	-0.198807	0.979993	0.009484	-0.979502	-0.198368	-0.035022	0	0	0
14312	0	0	0	0	0	9.800357	0.093633	-0.347132	-0.009423	0.000408	0.001022	-0.804443	-0.158691	-0.396973	0.691470	0.075110	-0.715456	0.065958	164.841846	-87.919655	-153.390387	-0.032456	-0.016260	0.999341	-0.198692	0.980016	0.009492	-0.979524	-0.198253	-0.035038	0	0	0
14313	0	0	0	0	0	9.797386	0.110945	-0.330197	-0.009423	0.000407	0.001023	-0.810791	-0.152588	-0.403564	0.691469	0.075073	-0.715465	0.065916	164.836548	-87.918728	-153.391511	-0.032471	-0.016266	0.999340	-0.198582	0.980038	0.009500	-0.979546	-0.198143	-0.035053	0	0	0
14314	0	0	0	0	0	9.797381	0.110752	-0.330389	-0.011551	-0.004557	0.003615	-0.802246	-0.160400	-0.395264	0.691449	0.075019	-0.715494	0.065871	164.890651	-87.915267	-153.453701	-0.032542	-0.016258	0.999338	-0.198444	0.980066	0.009482	-0.979572	-0.198004	-0.035120	0	0	0
14315	0	0	0	0	0	9.812054	0.099722	-0.387795	-0.011551	-0.004558	0.003616	-0.801025	-0.169678	-0.401611	0.691429	0.074967	-0.715522	0.065829	164.943791	-87.911980	-153.514523	-0.032611	-0.016249	0.999336	-0.198312	0.980093	0.009465	-0.979596	-0.197872	-0.035184	0	0	0
14316	0	0	0	0	0	9.784669	0.143905	-0.403847	-0.018526	-0.008223	0.006928	-0.801270	-0.158447	-0.409180	0.691397	0.074886	-0.715567	0.065775	165.054877	-87.906957	-153.636600	-0.032724	-0.016218	0.999333	-0.198124	0.980132	0.009419	-0.979631	-0.197684	-0.035287	0	0	0
14317	0	0	0	0	0	9.842181	0.112716	-0.363156	-0.021709	-0.008227	0.008646	-0.802490	-0.157227	-0.402344	0.691367	0.074782	-0.715612	0.065712	165.192497	-87.902370	-153.787782	-0.032838	-0.016167	0.999330	-0.197892	0.980179	0.009355	-0.979674	-0.197452	-0.035387	0	0	0
14318	0	0	0	0	0	9.878263	0.091301	-0.371698	-0.019165	-0.008069	0.009348	-0.806152	-0.147461	-0.409180	0.691336	0.074682	-0.715658	0.065658	165.339575	-87.897892	-153.947293	-0.032953	-0.016110	0.999327	-0.197678	0.980223	0.009283	-0.979713	-0.197239	-0.035486	0	0	0
14319	0	0	0	0	0	9.896224	0.118363	-0.362459	-0.016766	-0.005298	0.006342	-0.809326	-0.160645	-0.404541	0.691315	0.074603	-0.715691	0.065607	165.432557	-87.894570	-154.050973	-0.033035	-0.016076	0.999325	-0.197495	0.980260	0.009240	-0.979747	-0.197056	-0.035557	0	0	0
14320	0	0	0	0	0	9.881684	0.052337	-0.333662	-0.012800	-0.008063	0.005917	-0.806152	-0.155029	-0.407715	0.691283	0.074535	-0.715733	0.065562	165.532097	-87.889573	-154.159684	-0.033143	-0.016051	0.999322	-0.197338	0.980292	0.009200	-0.979775	-0.196899	-0.035658	0	0	0
14321	0	0	0	0	0	9.866513	0.082814	-0.333441	-0.011309	-0.002941	0.005743	-0.799805	-0.155762	-0.401123	0.691269	0.074476	-0.715756	0.065528	165.609385	-87.887461	-154.244532	-0.033200	-0.016018	0.999320	-0.197208	0.980319	0.009161	-0.979799	-0.196770	-0.035706	0	0	0
14322	0	0	0	0	0	9.848032	0.074799	-0.399618	-0.009306	0.001607	0.007274	-0.805420	-0.156494	-0.403076	0.691270	0.074414	-0.715764	0.065505	165.692755	-87.888003	-154.334803	-0.033217	-0.015961	0.999321	-0.197089	0.980343	0.009107	-0.979823	-0.196653	-0.035710	0	0	0
14323	0	0	0	0	0	9.845097	0.091522	-0.382296	-0.010359	0.006570	0.006401	-0.809570	-0.152344	-0.410889	0.691289	0.074352	-0.715754	0.065481	165.743929	-87.891258	-154.392975	-0.033182	-0.015903	0.999323	-0.196969	0.980368	0.009061	-0.979848	-0.196534	-0.035663	0	0	0
14324	0	0	0	0	0	9.824182	0.080554	-0.374703	-0.013785	0.004945	0.005998	-0.799805	-0.149414	-0.403564	0.691304	0.074277	-0.715751	0.065438	165.793341	-87.893477	-154.451990	-0.033163	-0.015852	0.999324	-0.196803	0.980401	0.009021	-0.979882	-0.196371	-0.035633	0	0	0
14325	0	0	0	0	0	9.832962	0.104070	-0.397227	-0.017751	0.007708	0.006427	-0.807617	-0.159668	-0.402100	0.691330	0.074190	-0.715740	0.065388	165.836632	-87.897364	-154.506512	-0.033117	-0.015792	0.999327	-0.196610	0.980441	0.008978	-0.979922	-0.196181	-0.035574	0	0	0
14326	0	0	0	0	0	9.806136	0.128106	-0.355691	-0.014172	0.005938	0.000171	-0.797607	-0.161621	-0.403564	0.691350	0.074135	-0.715732	0.065325	165.793993	-87.899275	-154.473448	-0.033078	-0.015796	0.999328	-0.196447	0.980473	0.008996	-0.979956	-0.196017	-0.035535	0	0	0
14327	0	0	0	0	0	9.809122	0.110537	-0.371889	-0.015720	0.008441	0.005423	-0.811279	-0.161133	-0.401367	0.691378	0.074058	-0.715716	0.065279	165.820563	-87.903427	-154.510073	-0.033023	-0.015744	0.999331	-0.196274	0.980508	0.008962	-0.979993	-0.195846	-0.035469	0	0	0
14328	0	0	0	0	0	9.809154	0.110161	-0.371153	-0.012266	0.006251	0.003289	-0.799561	-0.159424	-0.407471	0.691397	0.074004	-0.715707	0.065238	165.822745	-87.905917	-154.519950	-0.032986	-0.015720	0.999332	-0.196142	0.980535	0.008950	-0.980021	-0.195715	-0.035428	0	0	0
14329	0	0	0	0	0	9.812146	0.092494	-0.387266	-0.009111	0.010069	0.004112	-0.805176	-0.159668	-0.400146	0.691429	0.073954	-0.715684	0.065212	165.827059	-87.910790	-154.530515	-0.032913	-0.015677	0.999335	-0.196034	0.980556	0.008926	-0.980045	-0.195610	-0.035346	0	0	0
14330	0	0	0	0	0	9.824377	0.078514	-0.369992	-0.009894	0.012837	0.002825	-0.804688	-0.156738	-0.399902	0.691471	0.073906	-0.715651	0.065179	165.798433	-87.916907	-154.508444	-0.032810	-0.015644	0.999339	-0.195921	0.980579	0.008918	-0.980071	-0.195499	-0.035238	0	0	0
14331	0	0	0	0	0	9.821462	0.095550	-0.351931	-0.009111	0.010067	0.004113	-0.808594	-0.156006	-0.398926	0.691503	0.073856	-0.715628	0.065152	165.802773	-87.921780	-154.519034	-0.032736	-0.015601	0.999342	-0.195813	0.980601	0.008894	-0.980095	-0.195393	-0.035156	0	0	0
14332	0	0	0	0	0	9.824461	0.077871	-0.367899	-0.007960	0.009338	0.003402	-0.800049	-0.159180	-0.397705	0.691532	0.073813	-0.715608	0.065126	165.799512	-87.925952	-154.521415	-0.032671	-0.015568	0.999345	-0.195716	0.980620	0.008878	-0.980116	-0.195298	-0.035085	0	0	0
14333	0	0	0	0	0	9.821527	0.094985	-0.350255	-0.001692	0.005116	0.001548	-0.804688	-0.159424	-0.399902	0.691544	0.073799	-0.715598	0.065116	165.787998	-87.927714	-154.511886	-0.032641	-0.015561	0.999346	-0.195682	0.980627	0.008878	-0.980124	-0.195264	-0.035054	0	0	0
14334	0	0	0	0	0	9.812339	0.091050	-0.382679	-0.006297	0.008033	0.004396	-0.801025	-0.151611	-0.405273	0.691566	0.073761	-0.715582	0.065101	165.804633	-87.931309	-154.532861	-0.032590	-0.015522	0.999348	-0.195607	0.980642	0.008852	-0.980141	-0.195191	-0.034995	0	0	0
14335	0	0	0	0	0	9.770457	0.070150	-0.368140	0.001250	0.003504	-0.002293	-0.810547	-0.156982	-0.398193	0.691573	0.073772	-0.715575	0.065087	165.741983	-87.931634	-154.470478	-0.032568	-0.015555	0.999348	-0.195603	0.980643	0.008889	-0.980142	-0.195186	-0.034980	0	0	0
14336	0	0	0	0	0	9.779244	0.094488	-0.390963	0.002402	0.002775	-0.003005	-0.798340	-0.160156	-0.396729	0.691577	0.073788	-0.715572	0.065071	165.672038	-87.931300	-154.400483	-0.032554	-0.015597	0.999348	-0.195605	0.980642	0.008933	-0.980142	-0.195186	-0.034975	0	0	0
14337	0	0	0	0	0	9.824554	0.077808	-0.365420	0.006098	0.002205	-0.003017	-0.801514	-0.163330	-0.402588	0.691577	0.073818	-0.715568	0.065072	165.606146	-87.930796	-154.332076	-0.032544	-0.015640	0.999348	-0.195648	0.980633	0.008976	-0.980134	-0.195229	-0.034973	0	0	0
14338	0	0	0	0	0	9.833332	0.102264	-0.388448	0.009552	0.000017	-0.005152	-0.801758	-0.167969	-0.409180	0.691568	0.073874	-0.715570	0.065079	165.515396	-87.928602	-154.236264	-0.032552	-0.015711	0.999347	-0.195736	0.980615	0.009041	-0.980116	-0.195314	-0.034996	0	0	0
14339	0	0	0	0	0	9.821144	0.116339	-0.404769	0.014030	-0.003321	-0.003876	-0.795410	-0.163330	-0.405762	0.691547	0.073936	-0.715583	0.065102	165.462979	-87.924903	-154.176793	-0.032594	-0.015773	0.999344	-0.195858	0.980590	0.009089	-0.980090	-0.195433	-0.035050	0	0	0
14340	0	0	0	0	0	9.854254	0.113432	-0.395959	0.011485	-0.003481	-0.004575	-0.801758	-0.155273	-0.405029	0.691525	0.073999	-0.715596	0.065117	165.394243	-87.920953	-154.101758	-0.032635	-0.015845	0.999342	-0.195967	0.980568	0.009148	-0.980067	-0.195539	-0.035106	0	0	0
14341	0	0	0	0	0	9.836258	0.086074	-0.406109	0.007519	-0.000719	-0.004146	-0.807861	-0.161865	-0.402100	0.691515	0.074039	-0.715601	0.065118	165.324030	-87.918652	-154.028212	-0.032651	-0.015905	0.999340	-0.196025	0.980556	0.009201	-0.980055	-0.195595	-0.035133	0	0	0
14342	0	0	0	0	0	9.857644	0.076550	-0.356893	0.011583	0.000750	-0.006156	-0.801270	-0.160400	-0.398926	0.691509	0.074101	-0.715600	0.065126	165.218393	-87.916738	-153.916877	-0.032650	-0.015983	0.999339	-0.196124	0.980535	0.009275	-0.980035	-0.195691	-0.035149	0	0	0
14343	0	0	0	0	0	9.806398	0.128474	-0.348250	0.009153	0.001789	-0.000610	-0.800293	-0.160645	-0.398193	0.691506	0.074134	-0.715598	0.065145	165.193154	-87.916337	-153.887398	-0.032648	-0.016003	0.999339	-0.196196	0.980521	0.009292	-0.980021	-0.195763	-0.035151	0	0	0
14344	0	0	0	0	0	9.809380	0.111144	-0.364825	0.009764	0.005446	-0.000487	-0.802490	-0.157471	-0.404053	0.691515	0.074170	-0.715583	0.065170	165.153550	-87.917796	-153.842817	-0.032612	-0.016017	0.999340	-0.196282	0.980503	0.009310	-0.980005	-0.195848	-0.035120	0	0	0
14345	0	0	0	0	0	9.797214	0.124828	-0.380636	0.009153	0.001788	-0.000609	-0.812988	-0.164551	-0.399414	0.691512	0.074202	-0.715581	0.065190	165.128323	-87.917394	-153.813350	-0.032610	-0.016037	0.999339	-0.196355	0.980489	0.009327	-0.979991	-0.195921	-0.035123	0	0	0
14346	0	0	0	0	0	9.827376	0.139110	-0.354368	0.011825	0.002367	-0.004031	-0.804932	-0.156250	-0.401611	0.691510	0.074259	-0.715575	0.065208	165.048559	-87.916626	-153.727456	-0.032598	-0.016092	0.999339	-0.196460	0.980467	0.009379	-0.979970	-0.196025	-0.035123	0	0	0
14347	0	0	0	0	0	9.842528	0.108397	-0.354969	0.013488	0.001063	-0.003036	-0.801025	-0.158203	-0.400879	0.691504	0.074316	-0.715572	0.065234	164.991907	-87.915460	-153.664057	-0.032599	-0.016137	0.999338	-0.196576	0.980443	0.009419	-0.979946	-0.196139	-0.035133	0	0	0
14348	0	0	0	0	0	9.842528	0.108687	-0.354886	0.010944	0.000903	-0.003736	-0.798584	-0.168457	-0.407715	0.691498	0.074366	-0.715572	0.065248	164.923170	-87.913954	-153.590143	-0.032601	-0.016190	0.999337	-0.196666	0.980425	0.009468	-0.979928	-0.196227	-0.035147	0	0	0
14349	0	0	0	0	0	9.842529	0.108898	-0.354801	0.010304	0.001058	-0.001319	-0.799561	-0.165527	-0.403809	0.691492	0.074405	-0.715572	0.065269	164.890926	-87.913037	-153.552994	-0.032605	-0.016219	0.999337	-0.196750	0.980408	0.009492	-0.979911	-0.196310	-0.035157	0	0	0
14350	0	0	0	0	0	9.836142	0.164207	-0.377214	0.007519	-0.000722	-0.004142	-0.809326	-0.168457	-0.401855	0.691481	0.074452	-0.715577	0.065273	164.816680	-87.910625	-153.474603	-0.032621	-0.016282	0.999335	-0.196822	0.980393	0.009549	-0.979896	-0.196380	-0.035186	0	0	0
14351	0	0	0	0	0	9.818162	0.136664	-0.387189	0.009424	-0.000406	-0.001024	-0.803467	-0.161865	-0.406250	0.691471	0.074488	-0.715581	0.065291	164.794530	-87.908940	-153.448059	-0.032639	-0.016310	0.999334	-0.196898	0.980377	0.009570	-0.979881	-0.196454	-0.035210	0	0	0
14352	0	0	0	0	0	9.809392	0.112811	-0.363983	0.007248	0.001471	-0.003725	-0.809326	-0.159180	-0.398926	0.691468	0.074530	-0.715580	0.065296	164.719269	-87.907735	-153.368968	-0.032636	-0.016365	0.999333	-0.196964	0.980364	0.009622	-0.979867	-0.196519	-0.035218	0	0	0
14353	0	0	0	0	0	9.809399	0.113182	-0.363674	0.005314	0.004969	-0.004304	-0.807129	-0.153076	-0.400635	0.691479	0.074562	-0.715566	0.065290	164.622984	-87.908522	-153.270596	-0.032595	-0.016415	0.999334	-0.197000	0.980356	0.009677	-0.979861	-0.196554	-0.035189	0	0	0
14354	0	0	0	0	0	9.830357	0.123846	-0.370326	0.002913	0.002197	-0.001299	-0.804688	-0.160156	-0.397217	0.691479	0.074574	-0.715565	0.065283	164.582848	-87.908038	-153.230035	-0.032591	-0.016442	0.999334	-0.197008	0.980354	0.009704	-0.979860	-0.196561	-0.035190	0	0	0
14355	0	0	0	0	0	9.830370	0.123994	-0.369940	0.000978	0.005695	-0.001878	-0.803467	-0.159668	-0.408203	0.691494	0.074581	-0.715552	0.065270	164.517657	-87.909588	-153.165264	-0.032548	-0.016466	0.999335	-0.197001	0.980355	0.009737	-0.979863	-0.196553	-0.035153	0	0	0
14356	0	0	0	0	0	9.812252	0.172430	-0.351775	0.004034	0.005281	0.000529	-0.803467	-0.156982	-0.401123	0.691504	0.074592	-0.715540	0.065276	164.490794	-87.911140	-153.137023	-0.032516	-0.016470	0.999335	-0.197025	0.980350	0.009746	-0.979859	-0.196577	-0.035122	0	0	0
14357	0	0	0	0	0	9.851361	0.134571	-0.375758	0.003891	0.007892	-0.003177	-0.800293	-0.152588	-0.403564	0.691526	0.074614	-0.715517	0.065270	164.398161	-87.913698	-153.043121	-0.032449	-0.016503	0.999337	-0.197047	0.980345	0.009791	-0.979857	-0.196599	-0.035063	0	0	0
14358	0	0	0	0	0	9.839198	0.148503	-0.391450	-0.002175	0.001877	-0.002702	-0.800293	-0.158936	-0.398926	0.691528	0.074612	-0.715518	0.065239	164.334675	-87.912895	-152.982370	-0.032444	-0.016544	0.999337	-0.197001	0.980354	0.009834	-0.979866	-0.196551	-0.035066	0	0	0
14359	0	0	0	0	0	9.830431	0.124478	-0.368150	-0.004335	0.000726	0.002425	-0.807373	-0.154053	-0.417236	0.691525	0.074587	-0.715525	0.065220	164.352385	-87.912361	-153.003600	-0.032459	-0.016536	0.999336	-0.196941	0.980366	0.009825	-0.979878	-0.196491	-0.035078	0	0	0
14360	0	0	0	0	0	9.851384	0.134863	-0.375047	-0.004208	0.001144	-0.001697	-0.804443	-0.157715	-0.400879	0.691526	0.074575	-0.715529	0.065184	164.305003	-87.911369	-152.960121	-0.032462	-0.016568	0.999336	-0.196874	0.980379	0.009859	-0.979891	-0.196423	-0.035087	0	0	0
14361	0	0	0	0	0	9.800295	0.110479	-0.394007	-0.001663	0.001304	-0.000996	-0.804688	-0.157471	-0.407227	0.691525	0.074572	-0.715532	0.065163	164.270063	-87.910624	-152.927135	-0.032464	-0.016593	0.999335	-0.196841	0.980386	0.009884	-0.979898	-0.196390	-0.035093	0	0	0
14362	0	0	0	0	0	9.809499	0.114123	-0.360695	-0.008302	0.003489	0.002851	-0.804199	-0.157471	-0.401611	0.691533	0.074530	-0.715531	0.065131	164.279312	-87.911563	-152.942398	-0.032453	-0.016577	0.999336	-0.196738	0.980406	0.009874	-0.979919	-0.196287	-0.035079	0	0	0
14363	0	0	0	0	0	9.812505	0.096627	-0.377033	-0.002477	0.007884	0.000254	-0.801270	-0.158936	-0.401611	0.691556	0.074518	-0.715512	0.065114	164.234727	-87.914640	-152.900226	-0.032393	-0.016576	0.999338	-0.196697	0.980415	0.009887	-0.979929	-0.196246	-0.035020	0	0	0
14364	0	0	0	0	0	9.830506	0.124157	-0.366256	-0.002876	0.009659	0.004794	-0.807617	-0.162109	-0.405518	0.691584	0.074487	-0.715489	0.065111	164.250049	-87.919257	-152.918291	-0.032327	-0.016530	0.999341	-0.196649	0.980424	0.009855	-0.979941	-0.196201	-0.034945	0	0	0
14365	0	0	0	0	0	9.812574	0.096022	-0.375370	-0.003997	0.006576	0.002965	-0.801270	-0.151855	-0.398926	0.691602	0.074460	-0.715475	0.065098	164.251203	-87.922034	-152.922761	-0.032285	-0.016505	0.999342	-0.196592	0.980436	0.009842	-0.979954	-0.196145	-0.034898	0	0	0
14366	0	0	0	0	0	9.833550	0.106086	-0.381842	-0.003215	0.003809	0.004254	-0.802002	-0.156738	-0.396973	0.691609	0.074431	-0.715473	0.065089	164.283806	-87.923340	-152.958456	-0.032275	-0.016474	0.999343	-0.196538	0.980447	0.009816	-0.979965	-0.196093	-0.034882	0	0	0
14367	0	0	0	0	0	9.812622	0.095347	-0.374302	0.000579	0.007469	0.002663	-0.799072	-0.159668	-0.402832	0.691628	0.074420	-0.715454	0.065091	164.279212	-87.926563	-152.954551	-0.032224	-0.016451	0.999345	-0.196526	0.980450	0.009803	-0.979969	-0.196082	-0.034827	0	0	0
14368	0	0	0	0	0	9.821435	0.119166	-0.396803	-0.002845	0.005846	0.002255	-0.797607	-0.158936	-0.405518	0.691643	0.074401	-0.715444	0.065078	164.272324	-87.928668	-152.950290	-0.032190	-0.016437	0.999347	-0.196481	0.980459	0.009797	-0.979979	-0.196037	-0.034790	0	0	0
14369	0	0	0	0	0	9.833625	0.105165	-0.380146	-0.000671	0.003968	0.004957	-0.800781	-0.164795	-0.400879	0.691649	0.074379	-0.715439	0.065083	164.317036	-87.930316	-152.996440	-0.032178	-0.016398	0.999348	-0.196456	0.980464	0.009762	-0.979985	-0.196013	-0.034770	0	0	0
14370	0	0	0	0	0	9.803514	0.090787	-0.405760	0.000339	0.005850	0.000541	-0.798584	-0.152832	-0.410400	0.691663	0.074378	-0.715426	0.065077	164.283968	-87.932198	-152.963848	-0.032139	-0.016401	0.999349	-0.196448	0.980466	0.009774	-0.979987	-0.196006	-0.034733	0	0	0
14371	0	0	0	0	0	9.809721	0.111736	-0.355342	0.001121	0.003083	0.001830	-0.801514	-0.163574	-0.400391	0.691667	0.074374	-0.715423	0.065077	164.285801	-87.932872	-152.966063	-0.032129	-0.016395	0.999349	-0.196441	0.980467	0.009769	-0.979989	-0.195999	-0.034722	0	0	0
14372	0	0	0	0	0	9.836660	0.087238	-0.396004	0.000511	-0.000574	0.001706	-0.804199	-0.158691	-0.400146	0.691658	0.074369	-0.715432	0.065071	164.299346	-87.931430	-152.980506	-0.032156	-0.016398	0.999348	-0.196426	0.980470	0.009768	-0.979991	-0.195984	-0.034749	0	0	0
14373	0	0	0	0	0	9.836665	0.087015	-0.395917	-0.000911	0.002349	0.002834	-0.799805	-0.157471	-0.406738	0.691660	0.074354	-0.715433	0.065067	164.318500	-87.931855	-153.001220	-0.032155	-0.016383	0.999349	-0.196399	0.980476	0.009754	-0.979997	-0.195957	-0.034745	0	0	0
14374	0	0	0	0	0	9.845861	0.090197	-0.362441	0.002113	0.005747	0.007783	-0.800293	-0.156494	-0.403076	0.691671	0.074331	-0.715423	0.065090	164.399271	-87.934797	-153.081951	-0.032132	-0.016314	0.999350	-0.196398	0.980476	0.009691	-0.979998	-0.195959	-0.034709	0	0	0
14375	0	0	0	0	0	9.833726	0.103321	-0.378040	-0.000301	0.006005	0.002958	-0.809570	-0.157715	-0.401123	0.691686	0.074317	-0.715410	0.065090	164.405108	-87.937257	-153.088989	-0.032096	-0.016291	0.999352	-0.196377	0.980481	0.009676	-0.980003	-0.195940	-0.034669	0	0	0
14376	0	0	0	0	0	9.833750	0.102979	-0.377514	0.001362	0.004701	0.003954	-0.798096	-0.157471	-0.405273	0.691694	0.074305	-0.715403	0.065097	164.432291	-87.938994	-153.116574	-0.032077	-0.016262	0.999353	-0.196370	0.980482	0.009652	-0.980005	-0.195933	-0.034644	0	0	0
14377	0	0	0	0	0	9.848918	0.071566	-0.377776	0.001361	0.004701	0.003954	-0.805420	-0.154785	-0.395508	0.691703	0.074293	-0.715394	0.065105	164.460001	-87.940888	-153.144545	-0.032055	-0.016231	0.999354	-0.196365	0.980484	0.009626	-0.980007	-0.195930	-0.034617	0	0	0
14378	0	0	0	0	0	9.812841	0.091918	-0.369375	0.003493	0.009665	0.001368	-0.794434	-0.158203	-0.404541	0.691729	0.074296	-0.715368	0.065113	164.427736	-87.944965	-153.111470	-0.031983	-0.016218	0.999357	-0.196379	0.980481	0.009627	-0.980006	-0.195944	-0.034543	0	0	0
14379	0	0	0	0	0	9.836822	0.084849	-0.392476	0.008612	0.006171	0.000234	-0.800293	-0.162109	-0.406006	0.691742	0.074322	-0.715351	0.065135	164.396094	-87.947097	-153.075894	-0.031939	-0.016221	0.999358	-0.196446	0.980467	0.009636	-0.979994	-0.196012	-0.034502	0	0	0
14380	0	0	0	0	0	9.818722	0.133196	-0.373953	0.002712	0.012431	0.000080	-0.800049	-0.159424	-0.406494	0.691779	0.074328	-0.715314	0.065137	164.328827	-87.952582	-153.007958	-0.031835	-0.016215	0.999362	-0.196457	0.980465	0.009650	-0.979996	-0.196024	-0.034399	0	0	0
