// General information: 
//  MT Manager version: 2022.2.0 
//  XDA version: 2022.2.0 build 7381 rev 124627 built on 2023-07-19
// Device information: 
//  DeviceId: 10B426ED
//  ProductCode: MTW2-3A7G6
//  Firmware Version: 4.14.0
//  Hardware Version: 3.0.0
// Device settings: 
//  Filter Profile: human(46.1)
//  Option Flags: Orientation Smoother Disabled, Position/Velocity Smoother Disabled, Continuous Zero Rotation Update Disabled, AHS Disabled, ICC Disabled
// Coordinate system: ENU
PacketCounter	SampleTimeFine	Year	Month	Day	Second	Acc_X	Acc_Y	Acc_Z	Gyr_X	Gyr_Y	Gyr_Z	Mag_X	Mag_Y	Mag_Z	Quat_q0	Quat_q1	Quat_q2	Quat_q3	Roll	Pitch	Yaw	Mat[1][1]	Mat[2][1]	Mat[3][1]	Mat[1][2]	Mat[2][2]	Mat[3][2]	Mat[1][3]	Mat[2][3]	Mat[3][3]	Vel_E	Vel_N	Vel_U
13933	0	0	0	0	0	9.725440	1.291180	-0.140377	0.009187	-0.001485	-0.001958	-0.723145	-0.560547	0.175293	0.401549	0.634206	-0.323903	0.575871	95.974006	-82.124463	22.139844	0.126919	0.051639	0.990568	-0.873324	-0.467690	0.136277	0.470316	-0.882383	-0.014261	0	0	0
13934	0	0	0	0	0	9.749354	1.328581	-0.160710	0.009949	-0.000381	0.004260	-0.714355	-0.565918	0.179199	0.401499	0.634215	-0.323910	0.575892	95.990391	-82.128745	22.127750	0.126861	0.051584	0.990578	-0.873298	-0.467762	0.136200	0.470380	-0.882348	-0.014292	0	0	0
13935	0	0	0	0	0	9.725993	1.293032	-0.195312	0.004490	-0.001324	-0.000034	-0.715332	-0.565186	0.173584	0.401479	0.634222	-0.323919	0.575893	96.004675	-82.130337	22.114574	0.126847	0.051545	0.990582	-0.873291	-0.467782	0.136169	0.470395	-0.882339	-0.014323	0	0	0
13936	0	0	0	0	0	9.746476	1.279935	-0.195863	0.004109	-0.001876	-0.003143	-0.711670	-0.563477	0.170166	0.401466	0.634236	-0.323921	0.575885	96.020697	-82.130272	22.099514	0.126862	0.051512	0.990582	-0.873283	-0.467799	0.136166	0.470408	-0.882332	-0.014361	0	0	0
13937	0	0	0	0	0	9.711171	1.314778	-0.172981	0.015841	0.003773	0.001331	-0.716309	-0.569092	0.185791	0.401414	0.634250	-0.323892	0.575923	96.021071	-82.132948	22.106946	0.126812	0.051511	0.990588	-0.873225	-0.467921	0.136120	0.470529	-0.882268	-0.014357	0	0	0
13938	0	0	0	0	0	9.770384	1.317461	-0.215590	0.005573	0.008024	-0.000480	-0.709717	-0.568848	0.186523	0.401404	0.634235	-0.323877	0.575955	95.998712	-82.134959	22.131805	0.126758	0.051553	0.990593	-0.873210	-0.467957	0.136091	0.470571	-0.882246	-0.014301	0	0	0
13939	0	0	0	0	0	9.719750	1.282753	-0.162111	0.005573	0.008024	-0.000480	-0.719482	-0.564209	0.172119	0.401396	0.634218	-0.323863	0.575987	95.974869	-82.136857	22.157745	0.126704	0.051598	0.990598	-0.873198	-0.467987	0.136064	0.470607	-0.882228	-0.014241	0	0	0
13940	0	0	0	0	0	9.731699	1.301573	-0.171838	0.011671	0.001226	-0.001083	-0.709473	-0.558105	0.178223	0.401356	0.634237	-0.323842	0.576006	95.984070	-82.138109	22.154473	0.126687	0.051583	0.990601	-0.873152	-0.468080	0.136040	0.470698	-0.882179	-0.014260	0	0	0
13941	0	0	0	0	0	9.737923	1.312134	-0.204173	0.015062	0.001782	-0.001440	-0.710205	-0.560059	0.175781	0.401311	0.634259	-0.323810	0.576031	95.990999	-82.139087	22.154838	0.126671	0.051577	0.990603	-0.873094	-0.468193	0.136022	0.470809	-0.882120	-0.014275	0	0	0
13942	0	0	0	0	0	9.713992	1.274856	-0.183834	0.014570	0.006262	-0.003990	-0.717529	-0.562500	0.181152	0.401280	0.634273	-0.323762	0.576065	95.979470	-82.139042	22.173864	0.126654	0.051619	0.990603	-0.873033	-0.468305	0.136025	0.470926	-0.882057	-0.014248	0	0	0
13943	0	0	0	0	0	9.713429	1.272970	-0.129432	0.001020	-0.007189	-0.001788	-0.711182	-0.561035	0.175781	0.401266	0.634293	-0.323788	0.576038	96.015229	-82.139284	22.137003	0.126684	0.051536	0.990603	-0.873041	-0.468295	0.136012	0.470904	-0.882068	-0.014332	0	0	0
13944	0	0	0	0	0	9.752104	1.289051	-0.172548	0.009776	0.000229	-0.000736	-0.711914	-0.561768	0.172852	0.401230	0.634309	-0.323776	0.576052	96.027319	-82.140742	22.129449	0.126667	0.051510	0.990607	-0.873007	-0.468367	0.135984	0.470972	-0.882031	-0.014358	0	0	0
13945	0	0	0	0	0	9.769771	1.316075	-0.160484	0.006575	-0.000050	0.001175	-0.718750	-0.567139	0.176514	0.401202	0.634315	-0.323781	0.576062	96.038096	-82.143099	22.121021	0.126637	0.051476	0.990613	-0.872992	-0.468406	0.135941	0.471007	-0.882012	-0.014379	0	0	0
13946	0	0	0	0	0	9.776002	1.326567	-0.192781	0.003599	0.001717	-0.002247	-0.718750	-0.567871	0.180664	0.401196	0.634314	-0.323782	0.576066	96.038845	-82.143795	22.120671	0.126626	0.051471	0.990614	-0.872990	-0.468413	0.135929	0.471013	-0.882009	-0.014380	0	0	0
13947	0	0	0	0	0	9.720125	1.286008	-0.216758	-0.003963	-0.001386	-0.004305	-0.712646	-0.563232	0.177734	0.401215	0.634312	-0.323803	0.576044	96.046710	-82.142948	22.109086	0.126650	0.051451	0.990612	-0.873019	-0.468357	0.135941	0.470955	-0.882040	-0.014400	0	0	0
13948	0	0	0	0	0	9.733829	1.260492	-0.130461	-0.003072	-0.004427	-0.002091	-0.722900	-0.570557	0.179688	0.401216	0.634319	-0.323833	0.576020	96.070186	-82.143312	22.082718	0.126668	0.051390	0.990613	-0.873042	-0.468317	0.135929	0.470906	-0.882065	-0.014455	0	0	0
13949	0	0	0	0	0	9.754884	1.338255	-0.138331	0.001877	0.000112	0.003098	-0.714600	-0.562988	0.181885	0.401197	0.634312	-0.323856	0.576027	96.078462	-82.146774	22.074096	0.126620	0.051348	0.990621	-0.873052	-0.468316	0.135868	0.470901	-0.882068	-0.014468	0	0	0
13950	0	0	0	0	0	9.734927	1.353430	-0.192418	-0.002405	0.002597	0.001240	-0.716797	-0.564453	0.183838	0.401197	0.634294	-0.323880	0.576033	96.074956	-82.149468	22.075466	0.126576	0.051334	0.990628	-0.873076	-0.468285	0.135822	0.470869	-0.882085	-0.014455	0	0	0
13951	0	0	0	0	0	9.720676	1.376969	-0.224380	0.002786	-0.002044	0.001868	-0.713379	-0.570557	0.179932	0.401175	0.634297	-0.323902	0.576032	96.092134	-82.152099	22.058385	0.126549	0.051279	0.990634	-0.873080	-0.468292	0.135773	0.470868	-0.882085	-0.014491	0	0	0
13952	0	0	0	0	0	9.725904	1.382853	-0.147794	-0.001912	-0.001882	0.003791	-0.717285	-0.560059	0.178223	0.401157	0.634291	-0.323939	0.576030	96.109050	-82.155909	22.039805	0.126505	0.051213	0.990643	-0.873101	-0.468273	0.135703	0.470841	-0.882099	-0.014524	0	0	0
13953	0	0	0	0	0	9.746440	1.369433	-0.147944	-0.011973	0.003530	0.000087	-0.716553	-0.567627	0.167480	0.401196	0.634252	-0.323987	0.576020	96.093952	-82.157863	22.046767	0.126467	0.051216	0.990648	-0.873173	-0.468148	0.135673	0.470718	-0.882165	-0.014485	0	0	0
13954	0	0	0	0	0	9.704869	1.304966	-0.139408	-0.030410	0.002076	-0.001559	-0.719727	-0.570801	0.180664	0.401299	0.634179	-0.324090	0.575970	96.073490	-82.159008	22.047751	0.126448	0.051211	0.990650	-0.873335	-0.467849	0.135659	0.470422	-0.882324	-0.014434	0	0	0
13955	0	0	0	0	0	9.716249	1.321938	-0.094562	-0.028783	-0.002512	-0.005572	-0.714111	-0.570068	0.169434	0.401399	0.634132	-0.324180	0.575902	96.071255	-82.157371	22.032007	0.126488	0.051187	0.990647	-0.873478	-0.467573	0.135687	0.470145	-0.882471	-0.014432	0	0	0
13956	0	0	0	0	0	9.772537	1.276476	-0.172241	-0.021827	-0.002010	-0.001288	-0.715576	-0.573242	0.175049	0.401464	0.634090	-0.324264	0.575855	96.073402	-82.158320	22.015694	0.126487	0.051145	0.990649	-0.873596	-0.467358	0.135670	0.469927	-0.882587	-0.014435	0	0	0
13957	0	0	0	0	0	9.737203	1.222471	-0.196431	-0.026125	-0.000411	0.000301	-0.716553	-0.567139	0.170410	0.401541	0.634033	-0.324361	0.575810	96.066583	-82.160156	22.006115	0.126467	0.051112	0.990653	-0.873734	-0.467109	0.135641	0.469676	-0.882721	-0.014416	0	0	0
13958	0	0	0	0	0	9.731457	1.214485	-0.218446	-0.015026	-0.000010	-0.005445	-0.722656	-0.569824	0.178955	0.401602	0.634005	-0.324410	0.575771	96.062115	-82.158871	22.000121	0.126493	0.051107	0.990650	-0.873817	-0.466947	0.135664	0.469515	-0.882807	-0.014408	0	0	0
13959	0	0	0	0	0	9.734269	1.263478	-0.183563	-0.001877	-0.000110	-0.003097	-0.712402	-0.557861	0.177490	0.401613	0.634001	-0.324426	0.575759	96.066449	-82.158790	21.993307	0.126500	0.051092	0.990650	-0.873836	-0.466910	0.135664	0.469476	-0.882828	-0.014418	0	0	0
13960	0	0	0	0	0	9.739425	1.269823	-0.106765	-0.005268	-0.000667	-0.002740	-0.714355	-0.562256	0.171631	0.401629	0.633992	-0.324453	0.575741	96.072718	-82.159056	21.982885	0.126505	0.051067	0.990651	-0.873871	-0.466848	0.135658	0.469411	-0.882862	-0.014432	0	0	0
13961	0	0	0	0	0	9.728460	1.255953	-0.205752	-0.001860	0.000777	-0.006541	-0.715088	-0.562012	0.174316	0.401651	0.633992	-0.324456	0.575725	96.071876	-82.157066	21.981306	0.126538	0.051077	0.990646	-0.873886	-0.466809	0.135692	0.469373	-0.882882	-0.014434	0	0	0
13962	0	0	0	0	0	9.751768	1.291777	-0.171146	0.000415	0.002326	-0.003778	-0.719482	-0.562744	0.183105	0.401662	0.633985	-0.324461	0.575722	96.067490	-82.156954	21.984176	0.126538	0.051084	0.990646	-0.873898	-0.466785	0.135695	0.469351	-0.882894	-0.014424	0	0	0
13963	0	0	0	0	0	9.756883	1.298425	-0.094076	-0.004645	0.002822	-0.008407	-0.705566	-0.567871	0.173828	0.401701	0.633976	-0.324462	0.575704	96.055779	-82.154025	21.991958	0.126578	0.051120	0.990639	-0.873924	-0.466721	0.135749	0.469291	-0.882926	-0.014401	0	0	0
13964	0	0	0	0	0	9.766414	1.271543	-0.193131	-0.002768	0.002932	-0.005309	-0.714111	-0.571777	0.175537	0.401721	0.633967	-0.324465	0.575698	96.047861	-82.152966	21.997646	0.126589	0.051139	0.990636	-0.873941	-0.466685	0.135769	0.469258	-0.882944	-0.014385	0	0	0
13965	0	0	0	0	0	9.727621	1.256342	-0.150107	-0.003131	0.003268	-0.011861	-0.714600	-0.570068	0.172852	0.401767	0.633966	-0.324450	0.575677	96.033674	-82.148096	22.008803	0.126658	0.051196	0.990624	-0.873955	-0.466632	0.135856	0.469212	-0.882969	-0.014360	0	0	0
13966	0	0	0	0	0	9.766214	1.273149	-0.192655	0.007898	0.000123	-0.003835	-0.713867	-0.565430	0.169434	0.401748	0.633982	-0.324435	0.575680	96.043051	-82.147700	22.002499	0.126670	0.051184	0.990624	-0.873929	-0.466680	0.135861	0.469258	-0.882944	-0.014383	0	0	0
13967	0	0	0	0	0	9.727981	1.259868	-0.204492	0.008313	0.002448	-0.007613	-0.720215	-0.560303	0.177002	0.401744	0.633999	-0.324402	0.575683	96.040670	-82.145201	22.008358	0.126704	0.051213	0.990618	-0.873895	-0.466730	0.135904	0.469312	-0.882916	-0.014382	0	0	0
13968	0	0	0	0	0	9.739302	1.277134	-0.159932	0.007916	0.001010	-0.007278	-0.721191	-0.571777	0.181152	0.401738	0.634016	-0.324378	0.575681	96.044453	-82.143036	22.007273	0.126740	0.051225	0.990612	-0.873868	-0.466770	0.135941	0.469352	-0.882894	-0.014395	0	0	0
13969	0	0	0	0	0	9.756852	1.304905	-0.147608	0.005320	0.003330	-0.007590	-0.721680	-0.570557	0.176514	0.401745	0.634024	-0.324352	0.575683	96.036734	-82.140603	22.016791	0.126770	0.051262	0.990607	-0.873849	-0.466794	0.135984	0.469380	-0.882879	-0.014381	0	0	0
13970	0	0	0	0	0	9.718059	1.289667	-0.104711	0.006627	0.002613	-0.009155	-0.709473	-0.567383	0.181885	0.401747	0.634041	-0.324317	0.575682	96.033444	-82.137371	22.022946	0.126817	0.051296	0.990599	-0.873818	-0.466835	0.136041	0.469424	-0.882856	-0.014379	0	0	0
13971	0	0	0	0	0	9.736630	1.322117	-0.201412	0.008332	0.003335	-0.011055	-0.712646	-0.574707	0.177490	0.401754	0.634060	-0.324271	0.575682	96.025928	-82.132963	22.034000	0.126878	0.051349	0.990588	-0.873780	-0.466883	0.136118	0.469479	-0.882827	-0.014369	0	0	0
13972	0	0	0	0	0	9.715935	1.336638	-0.200865	0.009657	0.003505	-0.016063	-0.717529	-0.575928	0.173828	0.401765	0.634094	-0.324201	0.575676	96.018502	-82.125726	22.046730	0.126982	0.051425	0.990571	-0.873721	-0.466957	0.136245	0.469560	-0.882784	-0.014364	0	0	0
13973	0	0	0	0	0	9.736266	1.324825	-0.201211	0.006760	-0.001533	-0.013158	-0.715820	-0.564453	0.177002	0.401775	0.634128	-0.324163	0.575653	96.029242	-82.119828	22.038446	0.127084	0.051445	0.990557	-0.873688	-0.466991	0.136343	0.469595	-0.882765	-0.014401	0	0	0
13974	0	0	0	0	0	9.739023	1.285600	-0.213710	0.000243	0.002935	-0.008775	-0.717529	-0.568359	0.173828	0.401799	0.634129	-0.324149	0.575643	96.020579	-82.116825	22.045945	0.127125	0.051481	0.990550	-0.873691	-0.466969	0.136397	0.469578	-0.882774	-0.014385	0	0	0
13975	0	0	0	0	0	9.732675	1.276057	-0.181073	0.000451	0.004098	-0.010664	-0.711914	-0.572021	0.177246	0.401831	0.634130	-0.324126	0.575633	96.005620	-82.112686	22.059955	0.127179	0.051539	0.990540	-0.873690	-0.466948	0.136472	0.469564	-0.882781	-0.014357	0	0	0
13976	0	0	0	0	0	9.726849	1.268828	-0.202944	0.008730	0.004775	-0.011388	-0.712402	-0.563232	0.173340	0.401839	0.634148	-0.324075	0.575637	95.993301	-82.108284	22.076174	0.127235	0.051603	0.990529	-0.873649	-0.467002	0.136551	0.469625	-0.882749	-0.014336	0	0	0
13977	0	0	0	0	0	9.732417	1.278124	-0.180371	0.007025	0.004052	-0.009488	-0.718018	-0.565918	0.171143	0.401846	0.634160	-0.324036	0.575640	95.982829	-82.104811	22.089457	0.127279	0.051655	0.990521	-0.873619	-0.467040	0.136613	0.469670	-0.882726	-0.014317	0	0	0
13978	0	0	0	0	0	9.732310	1.278953	-0.180271	0.017694	0.001249	-0.008010	-0.717773	-0.566406	0.178955	0.401813	0.634197	-0.323982	0.575653	95.990788	-82.102225	22.089727	0.127320	0.051673	0.990515	-0.873546	-0.467164	0.136656	0.469795	-0.882659	-0.014341	0	0	0
13979	0	0	0	0	0	9.747443	1.349230	-0.210144	0.028454	0.004641	-0.007860	-0.721436	-0.570557	0.175049	0.401749	0.634248	-0.323885	0.575695	95.990884	-82.099715	22.104736	0.127347	0.051722	0.990509	-0.873417	-0.467392	0.136699	0.470027	-0.882536	-0.014346	0	0	0
13980	0	0	0	0	0	9.753568	1.360516	-0.242133	0.023071	0.009001	-0.010041	-0.708984	-0.565430	0.174561	0.401714	0.634280	-0.323790	0.575739	95.970078	-82.096401	22.137771	0.127370	0.051817	0.990501	-0.873311	-0.467573	0.136761	0.470218	-0.882435	-0.014302	0	0	0
13981	0	0	0	0	0	9.752918	1.359226	-0.186789	0.012782	0.012356	-0.008413	-0.722168	-0.562988	0.184326	0.401713	0.634278	-0.323721	0.575779	95.929320	-82.094032	22.184960	0.127365	0.051938	0.990495	-0.873255	-0.467662	0.136812	0.470323	-0.882380	-0.014209	0	0	0
13982	0	0	0	0	0	9.737978	1.381517	-0.163028	-0.002983	0.013875	-0.007638	-0.718262	-0.569824	0.173340	0.401759	0.634242	-0.323696	0.575802	95.875415	-82.092352	22.236856	0.127345	0.052064	0.990491	-0.873271	-0.467621	0.136854	0.470300	-0.882394	-0.014083	0	0	0
13983	0	0	0	0	0	9.737882	1.382374	-0.161450	-0.005373	0.017354	-0.009842	-0.717773	-0.562256	0.183594	0.401828	0.634191	-0.323665	0.575827	95.803207	-82.089448	22.305296	0.127329	0.052235	0.990484	-0.873298	-0.467550	0.136922	0.470253	-0.882422	-0.013916	0	0	0
13984	0	0	0	0	0	9.726448	1.366599	-0.204102	0.003682	0.020026	-0.007790	-0.719482	-0.565186	0.167480	0.401864	0.634150	-0.323609	0.575879	95.727553	-82.088030	22.382776	0.127281	0.052417	0.990481	-0.873284	-0.467564	0.136964	0.470292	-0.882404	-0.013737	0	0	0
13985	0	0	0	0	0	9.740647	1.343845	-0.170191	0.001808	0.019912	-0.010887	-0.712891	-0.563965	0.182373	0.401918	0.634108	-0.323549	0.575921	95.648638	-82.084651	22.462142	0.127262	0.052615	0.990473	-0.873276	-0.467555	0.137041	0.470311	-0.882397	-0.013554	0	0	0
13986	0	0	0	0	0	9.704778	1.288535	-0.138230	0.004406	0.017594	-0.010571	-0.710205	-0.571777	0.173584	0.401958	0.634077	-0.323490	0.575960	95.581680	-82.081505	22.530789	0.127249	0.052788	0.990465	-0.873259	-0.467568	0.137111	0.470347	-0.882380	-0.013400	0	0	0
13987	0	0	0	0	0	9.730882	1.284531	-0.114918	0.001113	0.011117	-0.007332	-0.719238	-0.566895	0.173828	0.401990	0.634054	-0.323461	0.575980	95.539950	-82.079641	22.572211	0.127241	0.052893	0.990461	-0.873259	-0.467555	0.137153	0.470349	-0.882380	-0.013303	0	0	0
13988	0	0	0	0	0	9.702234	1.332643	-0.177635	-0.007661	0.014914	-0.009162	-0.707031	-0.562500	0.180176	0.402060	0.634005	-0.323445	0.575993	95.477595	-82.077071	22.629224	0.127229	0.053037	0.990454	-0.873300	-0.467461	0.137211	0.470276	-0.882421	-0.013158	0	0	0
13989	0	0	0	0	0	9.775735	1.312457	-0.186890	-0.013294	0.016340	-0.002573	-0.720703	-0.563965	0.180664	0.402132	0.633930	-0.323462	0.576016	95.408105	-82.078193	22.690341	0.127155	0.053165	0.990457	-0.873375	-0.467323	0.137208	0.470158	-0.882487	-0.012990	0	0	0
13990	0	0	0	0	0	9.743274	1.307102	-0.174602	-0.010417	0.020494	-0.002032	-0.718262	-0.571533	0.182129	0.402194	0.633851	-0.323461	0.576060	95.325714	-82.079976	22.767084	0.127055	0.053323	0.990461	-0.873429	-0.467226	0.137196	0.470085	-0.882529	-0.012789	0	0	0
13991	0	0	0	0	0	9.690256	1.315037	-0.161670	-0.006022	0.025093	-0.004942	-0.710449	-0.565430	0.173828	0.402264	0.633770	-0.323432	0.576118	95.223553	-82.080183	22.865392	0.126960	0.053540	0.990462	-0.873466	-0.467151	0.137215	0.470042	-0.882555	-0.012544	0	0	0
13992	0	0	0	0	0	9.716410	1.310602	-0.137764	-0.007889	0.012868	-0.003830	-0.715576	-0.560791	0.181396	0.402312	0.633720	-0.323435	0.576137	95.172697	-82.080475	22.911477	0.126912	0.053640	0.990463	-0.873508	-0.467070	0.137221	0.469976	-0.882592	-0.012422	0	0	0
13993	0	0	0	0	0	9.728311	1.329666	-0.146757	0.000488	0.007633	-0.001662	-0.710449	-0.561523	0.178467	0.402323	0.633696	-0.323432	0.576156	95.147097	-82.081626	22.936252	0.126871	0.053687	0.990465	-0.873518	-0.467055	0.137207	0.469968	-0.882597	-0.012359	0	0	0
13994	0	0	0	0	0	9.733920	1.338214	-0.123842	0.003295	0.006478	-0.003234	-0.716309	-0.563721	0.175293	0.402322	0.633688	-0.323416	0.576176	95.129591	-82.081976	22.955427	0.126847	0.053727	0.990466	-0.873506	-0.467078	0.137204	0.469996	-0.882582	-0.012317	0	0	0
13995	0	0	0	0	0	9.740181	1.348988	-0.155551	-0.000096	0.005917	-0.002882	-0.722656	-0.571533	0.165283	0.402336	0.633670	-0.323415	0.576186	95.110240	-82.082342	22.973556	0.126824	0.053765	0.990467	-0.873518	-0.467056	0.137202	0.469981	-0.882591	-0.012270	0	0	0
13996	0	0	0	0	0	9.712639	1.349804	-0.068027	-0.011252	0.001080	-0.002710	-0.713623	-0.561523	0.178223	0.402381	0.633640	-0.323462	0.576162	95.104164	-82.082785	22.970969	0.126820	0.053756	0.990468	-0.873590	-0.466924	0.137196	0.469848	-0.882662	-0.012254	0	0	0
13997	0	0	0	0	0	9.745063	1.355759	-0.078249	-0.022595	-0.004033	-0.004093	-0.716309	-0.567383	0.177246	0.402454	0.633607	-0.323542	0.576102	95.112306	-82.081951	22.948325	0.126854	0.053711	0.990466	-0.873706	-0.466703	0.137209	0.469623	-0.882782	-0.012275	0	0	0
13998	0	0	0	0	0	9.748689	1.317930	-0.145232	-0.009567	0.000918	-0.001165	-0.718750	-0.558838	0.182861	0.402480	0.633584	-0.323582	0.576086	95.110448	-82.083193	22.943901	0.126838	0.053693	0.990469	-0.873760	-0.466608	0.137188	0.469527	-0.882833	-0.012269	0	0	0
13999	0	0	0	0	0	9.708230	1.346697	-0.199073	-0.003369	0.000325	-0.003090	-0.721924	-0.564453	0.174316	0.402496	0.633576	-0.323601	0.576073	95.112092	-82.083154	22.938939	0.126844	0.053683	0.990469	-0.873787	-0.466558	0.137188	0.469476	-0.882860	-0.012273	0	0	0
14000	0	0	0	0	0	9.742978	1.310186	-0.167890	-0.000534	-0.012056	-0.003897	-0.719238	-0.568604	0.179443	0.402482	0.633612	-0.323634	0.576025	95.167505	-82.082254	22.881745	0.126912	0.053562	0.990467	-0.873796	-0.466539	0.137191	0.469439	-0.882878	-0.012407	0	0	0
14001	0	0	0	0	0	9.713084	1.353459	-0.123776	0.009311	-0.006503	-0.002506	-0.716309	-0.569824	0.180176	0.402445	0.633648	-0.323632	0.576012	95.204642	-82.082194	22.848284	0.126944	0.053488	0.990467	-0.873764	-0.466601	0.137184	0.469490	-0.882849	-0.012496	0	0	0
14002	0	0	0	0	0	9.727303	1.330035	-0.092652	0.000051	-0.010340	-0.002676	-0.714111	-0.563477	0.173096	0.402426	0.633680	-0.323661	0.575974	95.254255	-82.081942	22.797726	0.126995	0.053378	0.990466	-0.873769	-0.466594	0.137178	0.469468	-0.882860	-0.012615	0	0	0
14003	0	0	0	0	0	9.722292	1.324054	-0.170106	0.010877	-0.001633	-0.000400	-0.720703	-0.563477	0.173096	0.402386	0.633702	-0.323652	0.575983	95.273109	-82.083333	22.783630	0.126986	0.053337	0.990469	-0.873733	-0.466671	0.137150	0.469538	-0.882821	-0.012658	0	0	0
14004	0	0	0	0	0	9.701737	1.337259	-0.169876	-0.001100	0.001878	-0.000325	-0.710693	-0.567627	0.173096	0.402390	0.633688	-0.323673	0.575984	95.271193	-82.085177	22.783190	0.126957	0.053324	0.990474	-0.873756	-0.466636	0.137118	0.469503	-0.882840	-0.012651	0	0	0
14005	0	0	0	0	0	9.727908	1.332465	-0.148077	-0.010242	-0.006992	-0.001056	-0.718262	-0.566406	0.174316	0.402410	0.633684	-0.323733	0.575940	95.299701	-82.085909	22.747130	0.126979	0.053239	0.990476	-0.873818	-0.466526	0.137100	0.469382	-0.882904	-0.012718	0	0	0
14006	0	0	0	0	0	9.739779	1.351535	-0.158615	-0.013611	-0.006668	-0.004145	-0.714111	-0.571533	0.169189	0.402449	0.633677	-0.323794	0.575886	95.324605	-82.085040	22.712706	0.127025	0.053169	0.990474	-0.873892	-0.466384	0.137109	0.469231	-0.882983	-0.012779	0	0	0
14007	0	0	0	0	0	9.742098	1.309303	-0.116913	-0.026006	-0.005483	-0.000291	-0.713379	-0.567871	0.174316	0.402520	0.633636	-0.323899	0.575824	95.338185	-82.086286	22.682600	0.127033	0.053094	0.990477	-0.874028	-0.466135	0.137084	0.468974	-0.883119	-0.012809	0	0	0
14008	0	0	0	0	0	9.725170	1.284488	-0.183970	-0.018123	-0.006238	-0.000673	-0.717773	-0.562256	0.172852	0.402565	0.633612	-0.323983	0.575770	95.359719	-82.087394	22.648751	0.127046	0.053011	0.990479	-0.874130	-0.465952	0.137061	0.468781	-0.883221	-0.012859	0	0	0
14009	0	0	0	0	0	9.745696	1.271470	-0.184495	-0.010548	-0.002237	-0.002047	-0.727051	-0.565674	0.173584	0.402597	0.633595	-0.324031	0.575740	95.368167	-82.087809	22.632767	0.127055	0.052973	0.990480	-0.874192	-0.465839	0.137052	0.468664	-0.883283	-0.012878	0	0	0
14010	0	0	0	0	0	9.737030	1.303617	-0.194498	0.006901	-0.003909	-0.001270	-0.716797	-0.567627	0.183594	0.402570	0.633615	-0.324040	0.575733	95.394080	-82.088849	22.608703	0.127060	0.052913	0.990483	-0.874178	-0.465872	0.137028	0.468689	-0.883269	-0.012939	0	0	0
14011	0	0	0	0	0	9.771844	1.266853	-0.162965	0.007178	0.002562	-0.001041	-0.715820	-0.566406	0.175537	0.402550	0.633618	-0.324030	0.575748	95.393378	-82.090096	22.612211	0.127037	0.052912	0.990486	-0.874158	-0.465916	0.137007	0.468732	-0.883246	-0.012935	0	0	0
14012	0	0	0	0	0	9.710189	1.306408	-0.161964	0.013751	0.002523	0.000140	-0.720703	-0.565186	0.180176	0.402500	0.633636	-0.324003	0.575778	95.399238	-82.092130	22.613781	0.127003	0.052902	0.990491	-0.874102	-0.466032	0.136970	0.468846	-0.883185	-0.012946	0	0	0
14013	0	0	0	0	0	9.748288	1.320377	-0.149820	0.006078	0.004440	-0.001365	-0.716064	-0.573730	0.183594	0.402488	0.633633	-0.323992	0.575797	95.390070	-82.093293	22.625201	0.126974	0.052920	0.990493	-0.874086	-0.466066	0.136952	0.468883	-0.883166	-0.012922	0	0	0
14014	0	0	0	0	0	9.722088	1.325347	-0.171697	-0.007366	-0.002838	-0.000513	-0.724365	-0.569092	0.171875	0.402497	0.633626	-0.324032	0.575776	95.405993	-82.094643	22.604696	0.126971	0.052865	0.990497	-0.874126	-0.466000	0.136925	0.468810	-0.883204	-0.012958	0	0	0
14015	0	0	0	0	0	9.766440	1.349971	-0.191908	-0.012352	0.002957	-0.003029	-0.718262	-0.567871	0.176025	0.402545	0.633592	-0.324072	0.575757	95.391708	-82.094777	22.610620	0.126964	0.052878	0.990497	-0.874195	-0.465870	0.136926	0.468683	-0.883272	-0.012923	0	0	0
14016	0	0	0	0	0	9.775081	1.318100	-0.181269	-0.009222	0.012696	0.001184	-0.711670	-0.570313	0.178711	0.402588	0.633529	-0.324099	0.575781	95.341365	-82.098036	22.654449	0.126871	0.052953	0.990505	-0.874257	-0.465766	0.136882	0.468591	-0.883322	-0.012798	0	0	0
14017	0	0	0	0	0	9.725083	1.285485	-0.181620	-0.006513	0.017460	-0.003268	-0.720947	-0.565430	0.174805	0.402642	0.633465	-0.324092	0.575817	95.270712	-82.098801	22.720659	0.126798	0.053094	0.990507	-0.874299	-0.465687	0.136884	0.468534	-0.883355	-0.012628	0	0	0
14018	0	0	0	0	0	9.719470	1.277302	-0.202275	0.007920	0.015780	0.000974	-0.714355	-0.562500	0.176514	0.402632	0.633431	-0.324059	0.575881	95.218395	-82.102014	22.777169	0.126694	0.053198	0.990514	-0.874274	-0.465746	0.136840	0.468608	-0.883318	-0.012498	0	0	0
14019	0	0	0	0	0	9.751312	1.280652	-0.156461	0.012105	0.019219	-0.000045	-0.720215	-0.574463	0.175049	0.402621	0.633394	-0.324005	0.575959	95.152324	-82.104690	22.849521	0.126584	0.053340	0.990521	-0.874232	-0.465834	0.136808	0.468716	-0.883263	-0.012336	0	0	0
14020	0	0	0	0	0	9.737081	1.304384	-0.186668	0.004036	0.019697	-0.001218	-0.715332	-0.564697	0.181396	0.402637	0.633344	-0.323970	0.576024	95.080528	-82.106845	22.923280	0.126481	0.053488	0.990526	-0.874225	-0.465855	0.136787	0.468758	-0.883243	-0.012161	0	0	0
14021	0	0	0	0	0	9.742021	1.310628	-0.108113	0.001558	0.016982	-0.002096	-0.713135	-0.571777	0.175537	0.402661	0.633296	-0.323944	0.576073	95.016797	-82.108214	22.987168	0.126400	0.053620	0.990529	-0.874230	-0.465848	0.136777	0.468770	-0.883239	-0.012007	0	0	0
14022	0	0	0	0	0	9.741304	1.308676	-0.052491	0.004792	0.006041	-0.003239	-0.718262	-0.566895	0.178711	0.402655	0.633292	-0.323924	0.576093	95.001750	-82.108458	23.004712	0.126379	0.053657	0.990530	-0.874211	-0.465884	0.136775	0.468811	-0.883217	-0.011971	0	0	0
14023	0	0	0	0	0	9.753867	1.330121	-0.116588	-0.000867	0.003926	-0.005653	-0.717285	-0.571045	0.167480	0.402676	0.633283	-0.323920	0.576091	94.989094	-82.107137	23.015635	0.126390	0.053690	0.990527	-0.874223	-0.465855	0.136801	0.468786	-0.883231	-0.011942	0	0	0
14024	0	0	0	0	0	9.747494	1.320123	-0.083737	-0.001383	0.007519	-0.004757	-0.720215	-0.569580	0.170898	0.402702	0.633260	-0.323916	0.576100	94.962402	-82.106661	23.040292	0.126375	0.053748	0.990525	-0.874239	-0.465819	0.136815	0.468759	-0.883246	-0.011879	0	0	0
14025	0	0	0	0	0	9.741867	1.312034	-0.104968	-0.000943	0.013380	0.000468	-0.716553	-0.565430	0.174561	0.402722	0.633213	-0.323913	0.576140	94.912962	-82.109299	23.088306	0.126288	0.053836	0.990532	-0.874259	-0.465792	0.136779	0.468745	-0.883255	-0.011757	0	0	0
14026	0	0	0	0	0	9.686257	1.271082	-0.128174	0.007270	0.008757	-0.002360	-0.723145	-0.563232	0.169922	0.402715	0.633200	-0.323889	0.576171	94.886862	-82.110273	23.117273	0.126245	0.053893	0.990534	-0.874240	-0.465832	0.136768	0.468794	-0.883230	-0.011694	0	0	0
14027	0	0	0	0	0	9.692549	1.281796	-0.160259	0.015579	-0.001784	-0.002308	-0.720947	-0.563965	0.173828	0.402666	0.633235	-0.323860	0.576184	94.908345	-82.110580	23.103244	0.126253	0.053860	0.990535	-0.874178	-0.465950	0.136758	0.468905	-0.883170	-0.011744	0	0	0
14028	0	0	0	0	0	9.745545	1.274424	-0.171625	0.011117	-0.011694	-0.001519	-0.715332	-0.562500	0.170898	0.402614	0.633286	-0.323872	0.576158	94.968548	-82.111119	23.046913	0.126297	0.053732	0.990536	-0.874145	-0.466019	0.136737	0.468956	-0.883142	-0.011887	0	0	0
14029	0	0	0	0	0	9.730551	1.296106	-0.150230	0.022085	-0.007131	-0.003239	-0.726318	-0.562744	0.182129	0.402538	0.633351	-0.323832	0.576163	95.015452	-82.110625	23.010983	0.126339	0.053656	0.990535	-0.874052	-0.466193	0.136735	0.469117	-0.883054	-0.012000	0	0	0
14030	0	0	0	0	0	9.748020	1.323535	-0.139036	0.013222	-0.009532	-0.003748	-0.709229	-0.569824	0.171875	0.402484	0.633406	-0.323822	0.576145	95.068271	-82.109948	22.964126	0.126394	0.053558	0.990533	-0.874000	-0.466292	0.136736	0.469201	-0.883008	-0.012127	0	0	0
14031	0	0	0	0	0	9.759929	1.342325	-0.149757	0.001077	-0.002762	0.003767	-0.715820	-0.569824	0.168701	0.402462	0.633405	-0.323856	0.576143	95.087710	-82.113666	22.943772	0.126353	0.053488	0.990542	-0.874014	-0.466284	0.136668	0.469184	-0.883016	-0.012168	0	0	0
14032	0	0	0	0	0	9.771877	1.360931	-0.159549	-0.002718	0.007348	0.000245	-0.712891	-0.571045	0.174805	0.402479	0.633371	-0.323872	0.576159	95.062376	-82.115994	22.966066	0.126296	0.053521	0.990548	-0.874045	-0.466236	0.136633	0.469142	-0.883040	-0.012104	0	0	0
14033	0	0	0	0	0	9.745018	1.363656	-0.126203	-0.009290	0.007386	-0.000941	-0.717285	-0.565430	0.171631	0.402519	0.633327	-0.323901	0.576163	95.032328	-82.117538	22.989674	0.126249	0.053563	0.990551	-0.874103	-0.466135	0.136613	0.469048	-0.883091	-0.012030	0	0	0
14034	0	0	0	0	0	9.765574	1.350558	-0.125654	0.004065	0.008471	-0.000457	-0.716309	-0.567871	0.171387	0.402516	0.633307	-0.323891	0.576193	95.006535	-82.119539	23.016723	0.126192	0.053609	0.990556	-0.874098	-0.466152	0.136584	0.469071	-0.883079	-0.011965	0	0	0
14035	0	0	0	0	0	9.686110	1.272064	-0.129492	0.001124	-0.000992	-0.003117	-0.722900	-0.558594	0.174072	0.402515	0.633311	-0.323900	0.576183	95.016199	-82.119420	23.006264	0.126203	0.053586	0.990556	-0.874104	-0.466141	0.136584	0.469058	-0.883086	-0.011988	0	0	0
14036	0	0	0	0	0	9.724834	1.288650	-0.172249	0.007137	-0.001861	-0.006593	-0.717041	-0.565918	0.166016	0.402505	0.633335	-0.323885	0.576173	95.032117	-82.117513	22.992584	0.126247	0.053569	0.990551	-0.874081	-0.466176	0.136613	0.469089	-0.883069	-0.012029	0	0	0
14037	0	0	0	0	0	9.697890	1.291818	-0.140391	0.013223	-0.009531	-0.003746	-0.718506	-0.567139	0.177246	0.402455	0.633389	-0.323874	0.576154	95.083677	-82.116603	22.946827	0.126304	0.053475	0.990549	-0.874029	-0.466271	0.136618	0.469170	-0.883024	-0.012154	0	0	0
14038	0	0	0	0	0	9.763473	1.305660	-0.216212	0.008821	-0.002022	-0.005047	-0.721680	-0.565186	0.171875	0.402435	0.633414	-0.323860	0.576148	95.101640	-82.115518	22.932013	0.126335	0.053449	0.990547	-0.874000	-0.466321	0.136633	0.469216	-0.882999	-0.012198	0	0	0
14039	0	0	0	0	0	9.733522	1.348904	-0.171833	0.015491	-0.007977	-0.000980	-0.713379	-0.565186	0.174072	0.402372	0.633465	-0.323848	0.576144	95.149101	-82.116258	22.891706	0.126361	0.053355	0.990548	-0.873941	-0.466439	0.136610	0.469319	-0.882943	-0.012310	0	0	0
14040	0	0	0	0	0	9.753358	1.333713	-0.118108	0.006199	-0.000592	-0.001922	-0.715332	-0.569092	0.180908	0.402353	0.633476	-0.323848	0.576145	95.161121	-82.117030	22.881572	0.126358	0.053328	0.990550	-0.873927	-0.466470	0.136594	0.469346	-0.882928	-0.012338	0	0	0
14041	0	0	0	0	0	9.753339	1.333866	-0.117971	0.004581	0.004878	-0.001354	-0.721436	-0.563965	0.171387	0.402346	0.633468	-0.323840	0.576163	95.149220	-82.118216	22.894884	0.126327	0.053349	0.990553	-0.873918	-0.466491	0.136576	0.469370	-0.882916	-0.012307	0	0	0
14042	0	0	0	0	0	9.742102	1.317413	-0.162077	0.004395	0.004601	-0.002907	-0.718262	-0.574463	0.171631	0.402341	0.633464	-0.323829	0.576178	95.139142	-82.118660	22.906537	0.126309	0.053372	0.990554	-0.873907	-0.466514	0.136571	0.469396	-0.882902	-0.012283	0	0	0
14043	0	0	0	0	0	9.744662	1.366092	-0.127334	0.009171	-0.002353	0.001503	-0.724121	-0.571533	0.173828	0.402300	0.633481	-0.323832	0.576186	95.160741	-82.121104	22.888684	0.126286	0.053316	0.990560	-0.873881	-0.466576	0.136524	0.469451	-0.882873	-0.012330	0	0	0
14044	0	0	0	0	0	9.724100	1.379252	-0.127335	0.002808	-0.001154	-0.001571	-0.712402	-0.563232	0.175293	0.402290	0.633486	-0.323843	0.576180	95.173025	-82.121997	22.876216	0.126284	0.053283	0.990562	-0.873884	-0.466576	0.136506	0.469446	-0.882875	-0.012358	0	0	0
14045	0	0	0	0	0	9.715882	1.322583	-0.184486	-0.000957	-0.002271	-0.004327	-0.720459	-0.570557	0.174072	0.402298	0.633492	-0.323857	0.576160	95.186317	-82.121117	22.860891	0.126312	0.053255	0.990560	-0.873898	-0.466547	0.136518	0.469413	-0.882892	-0.012391	0	0	0
14046	0	0	0	0	0	9.706498	1.352645	-0.140171	0.004613	-0.006347	-0.000585	-0.713623	-0.567871	0.178955	0.402269	0.633516	-0.323875	0.576145	95.222151	-82.122302	22.826175	0.126325	0.053170	0.990563	-0.873889	-0.466570	0.136490	0.469424	-0.882885	-0.012475	0	0	0
14047	0	0	0	0	0	9.765104	1.353657	-0.128824	-0.012232	-0.002081	-0.003599	-0.723877	-0.569580	0.181396	0.402310	0.633498	-0.323922	0.576109	95.228469	-82.121846	22.811369	0.126346	0.053141	0.990562	-0.873957	-0.466441	0.136497	0.469293	-0.882954	-0.012491	0	0	0
14048	0	0	0	0	0	9.748227	1.329059	-0.195430	-0.017825	0.001111	-0.003899	-0.721436	-0.571777	0.172852	0.402369	0.633464	-0.323975	0.576075	95.220650	-82.121485	22.808612	0.126355	0.053137	0.990561	-0.874043	-0.466279	0.136504	0.469131	-0.883041	-0.012472	0	0	0
14049	0	0	0	0	0	9.718771	1.283394	-0.197218	-0.018949	0.002104	-0.000782	-0.720947	-0.567383	0.173584	0.402431	0.633416	-0.324043	0.576047	95.206927	-82.122854	22.810153	0.126331	0.053131	0.990564	-0.874146	-0.466092	0.136484	0.468945	-0.883140	-0.012438	0	0	0
14050	0	0	0	0	0	9.768527	1.225275	-0.187725	-0.013542	-0.001365	-0.002036	-0.719727	-0.568115	0.180908	0.402474	0.633389	-0.324101	0.576014	95.210652	-82.123504	22.796896	0.126333	0.053098	0.990566	-0.874224	-0.465948	0.136472	0.468798	-0.883218	-0.012445	0	0	0
14051	0	0	0	0	0	9.721772	1.243549	-0.209026	-0.002696	0.008232	-0.003197	-0.716064	-0.560547	0.171631	0.402501	0.633360	-0.324101	0.576027	95.180054	-82.123814	22.824874	0.126302	0.053157	0.990567	-0.874248	-0.465903	0.136473	0.468762	-0.883238	-0.012372	0	0	0
14052	0	0	0	0	0	9.709858	1.224855	-0.198495	0.003974	0.002278	0.000869	-0.718506	-0.565674	0.181885	0.402482	0.633356	-0.324108	0.576041	95.180855	-82.126309	22.825358	0.126262	0.053142	0.990572	-0.874243	-0.465925	0.136430	0.468783	-0.883227	-0.012370	0	0	0
14053	0	0	0	0	0	9.747237	1.236633	-0.132171	0.001619	-0.005470	-0.000570	-0.711670	-0.568115	0.179932	0.402466	0.633370	-0.324132	0.576023	95.210243	-82.127407	22.795274	0.126273	0.053068	0.990575	-0.874250	-0.465920	0.136405	0.468768	-0.883234	-0.012438	0	0	0
14054	0	0	0	0	0	9.765447	1.265917	-0.174733	0.010360	0.001965	0.000500	-0.720703	-0.568115	0.175537	0.402422	0.633385	-0.324114	0.576048	95.217242	-82.129573	22.794233	0.126239	0.053051	0.990580	-0.874205	-0.466014	0.136366	0.468859	-0.883185	-0.012452	0	0	0
14055	0	0	0	0	0	9.774342	1.324807	-0.172035	0.006638	0.005272	0.003300	-0.707764	-0.565186	0.179688	0.402396	0.633372	-0.324114	0.576079	95.206633	-82.133437	22.807430	0.126165	0.053054	0.990590	-0.874193	-0.466055	0.136302	0.468901	-0.883163	-0.012420	0	0	0
14056	0	0	0	0	0	9.748188	1.329584	-0.193761	0.003601	0.001724	-0.002239	-0.711182	-0.566650	0.176514	0.402384	0.633376	-0.324110	0.576086	95.208917	-82.134050	22.806664	0.126156	0.053048	0.990591	-0.874182	-0.466080	0.136291	0.468924	-0.883151	-0.012425	0	0	0
14057	0	0	0	0	0	9.745117	1.370086	-0.181067	-0.000891	0.003039	-0.002213	-0.720947	-0.572998	0.175537	0.402394	0.633364	-0.324119	0.576087	95.201137	-82.134651	22.812650	0.126141	0.053058	0.990592	-0.874199	-0.466052	0.136282	0.468898	-0.883165	-0.012405	0	0	0
14058	0	0	0	0	0	9.741809	1.319719	-0.160872	0.001026	0.004924	-0.005997	-0.721191	-0.564209	0.165039	0.402409	0.633358	-0.324106	0.576091	95.186831	-82.133281	22.826817	0.126150	0.053098	0.990589	-0.874197	-0.466046	0.136309	0.468898	-0.883166	-0.012373	0	0	0
14059	0	0	0	0	0	9.739178	1.271746	-0.195315	0.004936	0.001894	-0.007242	-0.708740	-0.569824	0.172363	0.402413	0.633369	-0.324084	0.576088	95.185234	-82.130953	22.829932	0.126184	0.053120	0.990584	-0.874180	-0.466067	0.136349	0.468921	-0.883153	-0.012373	0	0	0
14060	0	0	0	0	0	9.744704	1.280646	-0.173096	0.002435	-0.001708	-0.004678	-0.718506	-0.561768	0.186523	0.402415	0.633378	-0.324091	0.576073	95.197815	-82.130078	22.816446	0.126210	0.053097	0.990581	-0.874185	-0.466054	0.136361	0.468905	-0.883162	-0.012405	0	0	0
14061	0	0	0	0	0	9.759609	1.259596	-0.195674	0.011695	0.002135	-0.004502	-0.715820	-0.566406	0.179932	0.402390	0.633397	-0.324059	0.576087	95.200121	-82.129326	22.819531	0.126220	0.053108	0.990580	-0.874139	-0.466136	0.136374	0.468987	-0.883118	-0.012411	0	0	0
14062	0	0	0	0	0	9.756502	1.300337	-0.182688	0.016154	0.012046	-0.005295	-0.721924	-0.565186	0.177490	0.402360	0.633404	-0.323984	0.576142	95.167081	-82.128748	22.862502	0.126189	0.053207	0.990578	-0.874059	-0.466282	0.136391	0.469146	-0.883035	-0.012334	0	0	0
14063	0	0	0	0	0	9.703413	1.308314	-0.171490	0.007600	0.004887	-0.004811	-0.718994	-0.569092	0.172119	0.402353	0.633408	-0.323957	0.576158	95.155571	-82.127962	22.877165	0.126188	0.053245	0.990576	-0.874032	-0.466327	0.136407	0.469196	-0.883008	-0.012307	0	0	0
14064	0	0	0	0	0	9.717810	1.376078	-0.146564	0.003602	0.001724	-0.002238	-0.714844	-0.573730	0.171875	0.402346	0.633408	-0.323957	0.576162	95.156717	-82.128669	22.876677	0.126177	0.053239	0.990578	-0.874028	-0.466338	0.136395	0.469206	-0.883003	-0.012309	0	0	0
14065	0	0	0	0	0	9.726424	1.344455	-0.136748	-0.000559	-0.000833	-0.004661	-0.717041	-0.571777	0.174561	0.402356	0.633412	-0.323966	0.576147	95.164196	-82.127674	22.867451	0.126201	0.053225	0.990576	-0.874040	-0.466312	0.136410	0.469178	-0.883018	-0.012328	0	0	0
14066	0	0	0	0	0	9.764448	1.358762	-0.124725	-0.001287	0.001599	-0.001880	-0.719971	-0.567383	0.179688	0.402363	0.633403	-0.323981	0.576144	95.163154	-82.128470	22.866429	0.126190	0.053218	0.990578	-0.874058	-0.466281	0.136397	0.469146	-0.883035	-0.012325	0	0	0
14067	0	0	0	0	0	9.735028	1.312978	-0.126393	-0.005902	0.007945	-0.001296	-0.715820	-0.564209	0.173096	0.402394	0.633365	-0.323997	0.576154	95.132594	-82.129846	22.892513	0.126144	0.053266	0.990581	-0.874099	-0.466209	0.136380	0.469082	-0.883070	-0.012250	0	0	0
14068	0	0	0	0	0	9.720559	1.245937	-0.150284	0.001820	0.007801	-0.006666	-0.721191	-0.566406	0.182861	0.402413	0.633353	-0.323975	0.576167	95.106581	-82.128308	22.918836	0.126144	0.053334	0.990577	-0.874095	-0.466208	0.136412	0.469091	-0.883066	-0.012190	0	0	0
14069	0	0	0	0	0	9.732434	1.264996	-0.160178	0.015558	-0.002662	0.001140	-0.713379	-0.570313	0.173828	0.402352	0.633384	-0.323959	0.576184	95.132998	-82.130530	22.899814	0.126126	0.053277	0.990583	-0.874038	-0.466327	0.136368	0.469201	-0.883006	-0.012250	0	0	0
14070	0	0	0	0	0	9.767403	1.319424	-0.136008	0.014692	0.001260	-0.004516	-0.719971	-0.566406	0.172607	0.402311	0.633416	-0.323916	0.576202	95.142733	-82.129830	22.897947	0.126139	0.053278	0.990581	-0.873972	-0.466448	0.136378	0.469321	-0.882943	-0.012274	0	0	0
14071	0	0	0	0	0	9.714336	1.327101	-0.125471	0.008863	0.002405	0.000511	-0.719971	-0.573486	0.178467	0.402281	0.633420	-0.323907	0.576223	95.144172	-82.131953	22.900270	0.126103	0.053269	0.990586	-0.873946	-0.466508	0.136341	0.469379	-0.882912	-0.012274	0	0	0
14072	0	0	0	0	0	9.702448	1.308178	-0.115458	0.001287	-0.001599	0.001880	-0.719238	-0.566650	0.175049	0.402263	0.633420	-0.323933	0.576222	95.159475	-82.134793	22.884358	0.126072	0.053214	0.990593	-0.873956	-0.466504	0.136289	0.469368	-0.882917	-0.012306	0	0	0
14073	0	0	0	0	0	9.755512	1.300492	-0.126205	0.004283	-0.002474	0.001864	-0.712891	-0.564941	0.176758	0.402236	0.633427	-0.323951	0.576222	95.178960	-82.137436	22.865813	0.126047	0.053156	0.990599	-0.873954	-0.466523	0.136239	0.469379	-0.882910	-0.012348	0	0	0
14074	0	0	0	0	0	9.702493	1.307809	-0.115864	-0.001708	-0.000723	0.001896	-0.719971	-0.565186	0.178711	0.402228	0.633419	-0.323983	0.576219	95.189257	-82.140330	22.853416	0.126013	0.053109	0.990606	-0.873977	-0.466496	0.136187	0.469346	-0.882928	-0.012368	0	0	0
14075	0	0	0	0	0	9.740538	1.321940	-0.103951	-0.000558	-0.000834	-0.004661	-0.723145	-0.565186	0.174072	0.402238	0.633422	-0.323991	0.576204	95.196751	-82.139334	22.844175	0.126037	0.053096	0.990604	-0.873988	-0.466469	0.136202	0.469318	-0.882942	-0.012388	0	0	0
14076	0	0	0	0	0	9.755467	1.300773	-0.126797	0.002932	-0.006186	-0.002128	-0.721436	-0.564453	0.169922	0.402218	0.633444	-0.324009	0.576183	95.230510	-82.139715	22.810539	0.126062	0.053019	0.990604	-0.873986	-0.466477	0.136188	0.469314	-0.882943	-0.012467	0	0	0
14077	0	0	0	0	0	9.740476	1.322339	-0.104733	-0.002290	-0.002440	0.000677	-0.718750	-0.568115	0.177490	0.402216	0.633440	-0.324043	0.576171	95.245669	-82.141679	22.792559	0.126048	0.052966	0.990609	-0.874013	-0.466438	0.136151	0.469269	-0.882967	-0.012500	0	0	0
14078	0	0	0	0	0	9.720609	1.337687	-0.159273	-0.002663	-0.002996	-0.002431	-0.717041	-0.567871	0.180908	0.402222	0.633441	-0.324071	0.576149	95.262325	-82.142044	22.772547	0.126060	0.052920	0.990610	-0.874040	-0.466390	0.136141	0.469215	-0.882995	-0.012539	0	0	0
14079	0	0	0	0	0	9.729255	1.305855	-0.149689	0.004493	-0.001313	-0.000024	-0.716797	-0.560303	0.177002	0.402202	0.633448	-0.324081	0.576150	95.276459	-82.143667	22.759525	0.126047	0.052880	0.990614	-0.874034	-0.466410	0.136110	0.469230	-0.882986	-0.012570	0	0	0
14080	0	0	0	0	0	9.688086	1.332344	-0.149538	0.001644	-0.004587	-0.004008	-0.716309	-0.567627	0.181641	0.402191	0.633469	-0.324090	0.576129	95.303133	-82.142986	22.733013	0.126082	0.052827	0.990612	-0.874030	-0.466416	0.136116	0.469228	-0.882987	-0.012635	0	0	0
14081	0	0	0	0	0	9.716570	1.285385	-0.086118	-0.001252	-0.009626	-0.001108	-0.720215	-0.574219	0.175537	0.402179	0.633491	-0.324129	0.576092	95.347938	-82.143546	22.685707	0.126116	0.052719	0.990614	-0.874049	-0.466386	0.136097	0.469183	-0.883009	-0.012740	0	0	0
14082	0	0	0	0	0	9.772837	1.328617	-0.117203	-0.006474	-0.005881	0.001697	-0.716797	-0.562988	0.174805	0.402175	0.633490	-0.324182	0.576066	95.377369	-82.145980	22.651695	0.126109	0.052628	0.990619	-0.874090	-0.466323	0.136048	0.469108	-0.883048	-0.012806	0	0	0
14083	0	0	0	0	0	9.738559	1.276281	-0.196585	-0.009469	-0.005005	0.001713	-0.723877	-0.559814	0.179688	0.402188	0.633477	-0.324244	0.576036	95.399483	-82.148391	22.622542	0.126097	0.052547	0.990625	-0.874152	-0.466221	0.136002	0.468997	-0.883106	-0.012855	0	0	0
14084	0	0	0	0	0	9.752788	1.252914	-0.165052	-0.002517	-0.007144	-0.006430	-0.717041	-0.563477	0.173828	0.402196	0.633498	-0.324266	0.575994	95.432627	-82.146275	22.586471	0.126164	0.052482	0.990620	-0.874170	-0.466179	0.136031	0.468946	-0.883132	-0.012937	0	0	0
14085	0	0	0	0	0	9.755265	1.301862	-0.131031	-0.002167	-0.007472	0.000119	-0.725830	-0.566162	0.180176	0.402187	0.633510	-0.324307	0.575965	95.468515	-82.147638	22.547637	0.126178	0.052387	0.990623	-0.874195	-0.466141	0.135999	0.468895	-0.883158	-0.013020	0	0	0
14086	0	0	0	0	0	9.732140	1.266520	-0.165892	0.001125	-0.000993	-0.003115	-0.715576	-0.574707	0.177490	0.402184	0.633515	-0.324317	0.575956	95.479490	-82.147717	22.536008	0.126187	0.052361	0.990624	-0.874200	-0.466133	0.135995	0.468883	-0.883164	-0.013046	0	0	0
14087	0	0	0	0	0	9.732797	1.268921	-0.220420	0.010384	0.002852	-0.002941	-0.716553	-0.564697	0.174805	0.402160	0.633527	-0.324292	0.575973	95.478671	-82.147897	22.541488	0.126179	0.052372	0.990624	-0.874162	-0.466204	0.135992	0.468955	-0.883126	-0.013043	0	0	0
14088	0	0	0	0	0	9.714029	1.328849	-0.130696	0.002499	0.003601	-0.002565	-0.717285	-0.571777	0.174805	0.402158	0.633522	-0.324288	0.575982	95.471851	-82.148421	22.548873	0.126164	0.052385	0.990625	-0.874159	-0.466212	0.135985	0.468965	-0.883121	-0.013026	0	0	0
14089	0	0	0	0	0	9.734565	1.315978	-0.130778	-0.001871	-0.000118	-0.003099	-0.717041	-0.572266	0.179688	0.402169	0.633519	-0.324303	0.575970	95.476230	-82.148349	22.542018	0.126172	0.052370	0.990625	-0.874179	-0.466175	0.135985	0.468926	-0.883141	-0.013037	0	0	0
14090	0	0	0	0	0	9.702749	1.312765	-0.175007	0.004912	0.001009	-0.003801	-0.715332	-0.570068	0.180908	0.402158	0.633529	-0.324293	0.575973	95.481258	-82.148000	22.539035	0.126180	0.052366	0.990624	-0.874161	-0.466207	0.135990	0.468957	-0.883125	-0.013049	0	0	0
14091	0	0	0	0	0	9.723260	1.300006	-0.175752	-0.000126	-0.010620	-0.004223	-0.719971	-0.565430	0.182617	0.402149	0.633561	-0.324321	0.575928	95.529615	-82.146709	22.488795	0.126246	0.052264	0.990621	-0.874171	-0.466185	0.136001	0.468920	-0.883142	-0.013166	0	0	0
14092	0	0	0	0	0	9.746952	1.338228	-0.196417	0.005850	-0.000262	-0.008470	-0.708496	-0.568848	0.180176	0.402142	0.633587	-0.324292	0.575920	95.539672	-82.143647	22.482004	0.126301	0.052269	0.990614	-0.874138	-0.466233	0.136052	0.468968	-0.883116	-0.013195	0	0	0
14093	0	0	0	0	0	9.764250	1.274835	-0.176747	-0.002786	0.002036	-0.001872	-0.716309	-0.563965	0.168945	0.402156	0.633573	-0.324310	0.575916	95.535113	-82.144392	22.483643	0.126288	0.052268	0.990616	-0.874163	-0.466189	0.136040	0.468924	-0.883140	-0.013183	0	0	0
14094	0	0	0	0	0	9.743604	1.288524	-0.176487	0.000379	-0.002105	-0.009329	-0.724854	-0.564453	0.178223	0.402172	0.633591	-0.324303	0.575889	95.547683	-82.140760	22.470007	0.126359	0.052262	0.990607	-0.874163	-0.466171	0.136099	0.468905	-0.883150	-0.013219	0	0	0
14095	0	0	0	0	0	9.728520	1.310796	-0.154228	0.010530	-0.001296	-0.006941	-0.725586	-0.566650	0.168945	0.402152	0.633621	-0.324273	0.575886	95.562484	-82.138430	22.459805	0.126405	0.052255	0.990601	-0.874120	-0.466241	0.136136	0.468973	-0.883113	-0.013258	0	0	0
14096	0	0	0	0	0	9.752088	1.258069	-0.167172	0.002064	-0.002265	-0.007784	-0.713379	-0.567627	0.177734	0.402163	0.633636	-0.324273	0.575862	95.576090	-82.135854	22.445116	0.126460	0.052239	0.990595	-0.874123	-0.466225	0.136177	0.468954	-0.883123	-0.013295	0	0	0
14097	0	0	0	0	0	9.720217	1.255223	-0.211543	0.007931	0.001018	-0.007259	-0.714600	-0.568604	0.176514	0.402156	0.633656	-0.324244	0.575862	95.579707	-82.133471	22.444699	0.126498	0.052254	0.990590	-0.874091	-0.466272	0.136217	0.469002	-0.883097	-0.013308	0	0	0
14098	0	0	0	0	0	9.728924	1.314970	-0.209077	0.011904	0.003299	-0.006391	-0.722900	-0.572021	0.176758	0.402134	0.633678	-0.324201	0.575877	95.578327	-82.131790	22.452248	0.126518	0.052282	0.990586	-0.874037	-0.466364	0.136247	0.469097	-0.883046	-0.013307	0	0	0
14099	0	0	0	0	0	9.722576	1.304985	-0.176713	0.003019	0.000008	-0.003458	-0.726807	-0.576172	0.178711	0.402130	0.633684	-0.324201	0.575873	95.584829	-82.131518	22.446078	0.126528	0.052270	0.990585	-0.874034	-0.466370	0.136250	0.469101	-0.883044	-0.013323	0	0	0
14100	0	0	0	0	0	9.743090	1.292335	-0.176988	0.001148	-0.000111	-0.006556	-0.712646	-0.567871	0.180420	0.402139	0.633693	-0.324197	0.575859	95.590733	-82.129609	22.439645	0.126564	0.052269	0.990580	-0.874034	-0.466361	0.136281	0.469091	-0.883049	-0.013340	0	0	0
14101	0	0	0	0	0	9.721721	1.304120	-0.122194	0.006247	0.001177	-0.008803	-0.707275	-0.561768	0.177002	0.402142	0.633711	-0.324168	0.575853	95.592103	-82.126354	22.440523	0.126616	0.052292	0.990573	-0.874008	-0.466393	0.136337	0.469125	-0.883031	-0.013349	0	0	0
14102	0	0	0	0	0	9.737306	1.285376	-0.199367	0.008824	-0.002019	-0.005043	-0.718018	-0.562256	0.171143	0.402115	0.633742	-0.324147	0.575851	95.612080	-82.125126	22.425176	0.126649	0.052266	0.990570	-0.873967	-0.466465	0.136353	0.469193	-0.882994	-0.013399	0	0	0
14103	0	0	0	0	0	9.768989	1.289636	-0.155258	0.006247	0.001176	-0.008803	-0.722412	-0.566895	0.184814	0.402118	0.633760	-0.324118	0.575845	95.613445	-82.121871	22.426060	0.126700	0.052290	0.990562	-0.873941	-0.466497	0.136409	0.469227	-0.882976	-0.013407	0	0	0
14104	0	0	0	0	0	9.730810	1.276527	-0.167173	0.009452	0.001463	-0.010707	-0.718018	-0.564697	0.180176	0.402114	0.633787	-0.324074	0.575842	95.616149	-82.117752	22.427709	0.126765	0.052320	0.990552	-0.873897	-0.466560	0.136479	0.469293	-0.882941	-0.013421	0	0	0
14105	0	0	0	0	0	9.730676	1.277570	-0.167053	0.008350	0.003338	-0.011034	-0.719238	-0.563965	0.177490	0.402121	0.633807	-0.324028	0.575841	95.608915	-82.113346	22.438490	0.126825	0.052373	0.990541	-0.873858	-0.466609	0.136557	0.469347	-0.882912	-0.013411	0	0	0
14106	0	0	0	0	0	9.736832	1.288990	-0.199190	0.011532	0.002743	-0.009496	-0.723145	-0.564941	0.176025	0.402108	0.633834	-0.323978	0.575848	95.608353	-82.109966	22.444877	0.126874	0.052410	0.990533	-0.873803	-0.466695	0.136615	0.469437	-0.882864	-0.013415	0	0	0
14107	0	0	0	0	0	9.728013	1.321699	-0.209032	0.007537	-0.000421	-0.006922	-0.719727	-0.576172	0.181396	0.402099	0.633856	-0.323955	0.575843	95.617792	-82.107694	22.438356	0.126916	0.052410	0.990528	-0.873774	-0.466739	0.136652	0.469480	-0.882841	-0.013442	0	0	0
14108	0	0	0	0	0	9.750973	1.357907	-0.174701	0.001149	-0.000113	-0.006556	-0.716064	-0.565186	0.179688	0.402107	0.633866	-0.323950	0.575830	95.624032	-82.105788	22.431804	0.126952	0.052408	0.990523	-0.873772	-0.466733	0.136683	0.469473	-0.882844	-0.013460	0	0	0
14109	0	0	0	0	0	9.734100	1.333543	-0.241411	0.013031	0.002307	-0.009503	-0.714600	-0.572754	0.176758	0.402092	0.633896	-0.323897	0.575837	95.624351	-82.102197	22.437668	0.127004	0.052445	0.990515	-0.873714	-0.466824	0.136745	0.469568	-0.882794	-0.013467	0	0	0
14110	0	0	0	0	0	9.748314	1.310715	-0.209267	0.006620	0.001733	-0.005696	-0.722656	-0.565674	0.176758	0.402082	0.633911	-0.323874	0.575841	95.626748	-82.100834	22.438377	0.127025	0.052456	0.990511	-0.873685	-0.466871	0.136768	0.469615	-0.882768	-0.013475	0	0	0
14111	0	0	0	0	0	9.718923	1.356337	-0.218720	0.013798	0.004304	-0.006732	-0.719971	-0.570313	0.173584	0.402061	0.633931	-0.323824	0.575861	95.620426	-82.098936	22.451389	0.127044	0.052497	0.990507	-0.873627	-0.466970	0.136802	0.469719	-0.882714	-0.013463	0	0	0
14112	0	0	0	0	0	9.710085	1.298054	-0.220941	0.014344	0.001591	-0.011063	-0.717041	-0.567139	0.173584	0.402046	0.633967	-0.323768	0.575864	95.624367	-82.094625	22.453995	0.127110	0.052531	0.990497	-0.873564	-0.467066	0.136875	0.469818	-0.882660	-0.013480	0	0	0
14113	0	0	0	0	0	9.797934	1.345796	-0.207027	0.013985	0.004583	-0.005178	-0.721924	-0.565186	0.184082	0.402020	0.633985	-0.323722	0.575888	95.617643	-82.093629	22.467521	0.127114	0.052568	0.990494	-0.873507	-0.467168	0.136894	0.469924	-0.882604	-0.013465	0	0	0
14114	0	0	0	0	0	9.727379	1.326477	-0.208254	0.003102	0.006199	-0.004791	-0.718994	-0.568115	0.177979	0.402026	0.633977	-0.323704	0.575902	95.599859	-82.093118	22.486333	0.127105	0.052613	0.990493	-0.873498	-0.467181	0.136907	0.469942	-0.882595	-0.013424	0	0	0
14115	0	0	0	0	0	9.727326	1.326949	-0.207718	0.007992	0.006329	-0.005148	-0.716553	-0.568115	0.178467	0.402022	0.633978	-0.323672	0.575922	95.582552	-82.092235	22.507077	0.127100	0.052665	0.990491	-0.873469	-0.467229	0.136926	0.469998	-0.882566	-0.013384	0	0	0
14116	0	0	0	0	0	9.744003	1.352635	-0.140527	0.012882	0.006458	-0.005505	-0.718994	-0.570313	0.175293	0.402000	0.633991	-0.323623	0.575951	95.569011	-82.091288	22.527293	0.127096	0.052716	0.990489	-0.873413	-0.467328	0.136946	0.470102	-0.882511	-0.013353	0	0	0
14117	0	0	0	0	0	9.732803	1.336186	-0.184840	0.006203	-0.000586	-0.001917	-0.717041	-0.570557	0.177490	0.401981	0.634003	-0.323620	0.575953	95.580366	-82.091861	22.518065	0.127096	0.052692	0.990490	-0.873396	-0.467363	0.136933	0.470133	-0.882494	-0.013379	0	0	0
14118	0	0	0	0	0	9.764540	1.339967	-0.140624	-0.001498	0.000436	0.000007	-0.719971	-0.574707	0.175537	0.401980	0.633994	-0.323644	0.575950	95.585011	-82.093712	22.511269	0.127072	0.052664	0.990494	-0.873418	-0.467333	0.136900	0.470100	-0.882512	-0.013387	0	0	0
14119	0	0	0	0	0	9.759668	1.333653	-0.217102	0.004971	0.006322	-0.001692	-0.720215	-0.564697	0.177734	0.401976	0.633983	-0.323632	0.575972	95.567388	-82.094799	22.530585	0.127037	0.052700	0.990497	-0.873407	-0.467357	0.136886	0.470129	-0.882497	-0.013343	0	0	0
14120	0	0	0	0	0	9.701048	1.332710	-0.228025	0.005029	0.011634	0.000414	-0.716309	-0.560547	0.175293	0.401972	0.633954	-0.323616	0.576016	95.529853	-82.097536	22.570059	0.126957	0.052769	0.990504	-0.873399	-0.467383	0.136847	0.470165	-0.882479	-0.013249	0	0	0
14121	0	0	0	0	0	9.705924	1.339072	-0.150397	0.000267	0.006471	0.000218	-0.716064	-0.565918	0.177979	0.401977	0.633930	-0.323623	0.576035	95.509659	-82.099717	22.589249	0.126905	0.052797	0.990509	-0.873413	-0.467366	0.136814	0.470154	-0.882486	-0.013197	0	0	0
14122	0	0	0	0	0	9.728952	1.374599	-0.115460	-0.010303	0.003334	0.001602	-0.718018	-0.563477	0.181885	0.402004	0.633892	-0.323671	0.576030	95.498130	-82.102703	22.593704	0.126853	0.052787	0.990516	-0.873478	-0.467259	0.136766	0.470047	-0.882543	-0.013165	0	0	0
14123	0	0	0	0	0	9.729713	1.376390	-0.169563	-0.008619	0.003177	0.003148	-0.717041	-0.568359	0.178467	0.402023	0.633855	-0.323719	0.576030	95.487529	-82.106374	22.598069	0.126790	0.052773	0.990525	-0.873538	-0.467166	0.136705	0.469954	-0.882593	-0.013133	0	0	0
14124	0	0	0	0	0	9.738499	1.344103	-0.159384	-0.002440	0.001711	0.004673	-0.711670	-0.565674	0.175781	0.402010	0.633836	-0.323755	0.576040	95.489349	-82.110965	22.594323	0.126720	0.052734	0.990536	-0.873563	-0.467141	0.136626	0.469925	-0.882609	-0.013130	0	0	0
14125	0	0	0	0	0	9.744128	1.352130	-0.136676	-0.016111	0.005359	0.003183	-0.720459	-0.566895	0.172607	0.402057	0.633777	-0.323820	0.576035	95.465475	-82.114775	22.607755	0.126647	0.052738	0.990545	-0.873658	-0.466981	0.136565	0.469768	-0.882693	-0.013067	0	0	0
14126	0	0	0	0	0	9.738641	1.343205	-0.158301	-0.011455	0.003449	0.008157	-0.725098	-0.570801	0.180420	0.402071	0.633725	-0.323894	0.576041	95.454801	-82.121479	22.610329	0.126538	0.052699	0.990561	-0.873739	-0.466862	0.136452	0.469647	-0.882758	-0.013030	0	0	0
14127	0	0	0	0	0	9.753026	1.319067	-0.125579	-0.015925	0.005639	0.004737	-0.709473	-0.567627	0.180420	0.402113	0.633664	-0.323963	0.576041	95.430456	-82.126189	22.624343	0.126450	0.052699	0.990572	-0.873835	-0.466705	0.136377	0.469492	-0.882841	-0.012965	0	0	0
14128	0	0	0	0	0	9.703940	1.287655	-0.181339	-0.022918	0.003347	0.007324	-0.718506	-0.559082	0.172119	0.402159	0.633595	-0.324061	0.576029	95.415049	-82.132322	22.626379	0.126350	0.052663	0.990587	-0.873958	-0.466505	0.136275	0.469290	-0.882950	-0.012918	0	0	0
14129	0	0	0	0	0	9.723898	1.271784	-0.126388	-0.011059	0.004887	0.007823	-0.719727	-0.568359	0.172607	0.402175	0.633541	-0.324128	0.576040	95.397761	-82.138751	22.636084	0.126239	0.052641	0.990602	-0.874035	-0.466392	0.136168	0.469177	-0.883010	-0.012866	0	0	0
14130	0	0	0	0	0	9.705828	1.332859	-0.091119	-0.012430	0.000291	0.007275	-0.711670	-0.573730	0.170410	0.402193	0.633495	-0.324211	0.576031	95.398540	-82.144864	22.626014	0.126150	0.052579	0.990617	-0.874124	-0.466256	0.136063	0.469035	-0.883086	-0.012858	0	0	0
14131	0	0	0	0	0	9.773978	1.303433	-0.124055	-0.017168	-0.003989	0.003634	-0.711426	-0.565918	0.178955	0.402226	0.633461	-0.324300	0.575996	95.412801	-82.148424	22.600336	0.126117	0.052498	0.990625	-0.874224	-0.466087	0.135998	0.468858	-0.883180	-0.012886	0	0	0
14132	0	0	0	0	0	9.759772	1.326449	-0.156031	-0.005065	0.003140	0.007796	-0.710449	-0.566162	0.177490	0.402218	0.633426	-0.324351	0.576011	95.407605	-82.154779	22.601708	0.126014	0.052459	0.990640	-0.874269	-0.466034	0.135890	0.468801	-0.883210	-0.012864	0	0	0
14133	0	0	0	0	0	9.715502	1.301385	-0.135542	-0.004914	-0.001011	0.003798	-0.716309	-0.568848	0.172363	0.402217	0.633407	-0.324399	0.576005	95.416656	-82.158593	22.588377	0.125966	0.052404	0.990650	-0.874312	-0.465974	0.135822	0.468734	-0.883245	-0.012879	0	0	0
14134	0	0	0	0	0	9.709981	1.292659	-0.157701	-0.010906	0.000736	0.003827	-0.720947	-0.566895	0.164551	0.402235	0.633373	-0.324461	0.575996	95.416451	-82.162605	22.581235	0.125908	0.052362	0.990659	-0.874380	-0.465865	0.135753	0.468622	-0.883305	-0.012872	0	0	0
14135	0	0	0	0	0	9.742508	1.297970	-0.167542	-0.009534	0.005331	0.004377	-0.709961	-0.563477	0.180908	0.402257	0.633326	-0.324511	0.576004	95.396805	-82.167092	22.594199	0.125825	0.052361	0.990670	-0.874445	-0.465764	0.135680	0.468523	-0.883358	-0.012818	0	0	0
14136	0	0	0	0	0	9.710112	1.291787	-0.156776	-0.001859	0.003426	0.005894	-0.718994	-0.566162	0.176025	0.402248	0.633296	-0.324551	0.576020	95.390662	-82.172507	22.597677	0.125735	0.052332	0.990683	-0.874479	-0.465727	0.135589	0.468484	-0.883379	-0.012795	0	0	0
14137	0	0	0	0	0	9.730791	1.278021	-0.156566	-0.004669	0.004578	0.007462	-0.726807	-0.573242	0.170898	0.402244	0.633256	-0.324598	0.576040	95.378108	-82.178713	22.606297	0.125628	0.052310	0.990697	-0.874525	-0.465671	0.135485	0.468426	-0.883411	-0.012755	0	0	0
14138	0	0	0	0	0	9.695287	1.311906	-0.133746	-0.005335	-0.003332	0.007573	-0.724609	-0.570068	0.176025	0.402231	0.633236	-0.324668	0.576033	95.398464	-82.184747	22.580861	0.125555	0.052214	0.990712	-0.874579	-0.465602	0.135376	0.468346	-0.883452	-0.012793	0	0	0
14139	0	0	0	0	0	9.727853	1.316865	-0.144264	-0.005335	-0.003332	0.007573	-0.714844	-0.562744	0.176514	0.402217	0.633217	-0.324733	0.576026	95.418463	-82.190589	22.556238	0.125484	0.052122	0.990726	-0.874628	-0.465540	0.135271	0.468273	-0.883491	-0.012831	0	0	0
14140	0	0	0	0	0	9.751674	1.354110	-0.164703	-0.011547	-0.006290	0.000497	-0.717285	-0.565918	0.170166	0.402235	0.633207	-0.324801	0.575987	95.445868	-82.192394	22.520812	0.125487	0.052032	0.990730	-0.874696	-0.465423	0.135234	0.468145	-0.883557	-0.012893	0	0	0
14141	0	0	0	0	0	9.766696	1.332536	-0.187284	-0.027838	-0.001205	0.002134	-0.722412	-0.568115	0.175781	0.402311	0.633145	-0.324910	0.575940	95.442015	-82.195247	22.507250	0.125454	0.051983	0.990737	-0.874844	-0.465159	0.135186	0.467878	-0.883699	-0.012879	0	0	0
14142	0	0	0	0	0	9.739828	1.335003	-0.154645	-0.028628	-0.004084	0.002803	-0.718262	-0.559326	0.175781	0.402383	0.633088	-0.325032	0.575883	95.450478	-82.198509	22.480424	0.125426	0.051903	0.990744	-0.874999	-0.464883	0.135128	0.467594	-0.883849	-0.012893	0	0	0
14143	0	0	0	0	0	9.736647	1.284160	-0.134775	-0.033492	-0.003328	-0.000279	-0.719971	-0.564209	0.163086	0.402481	0.633026	-0.325154	0.575815	95.451277	-82.199871	22.458896	0.125424	0.051847	0.990748	-0.875171	-0.464568	0.135104	0.467274	-0.884018	-0.012893	0	0	0
14144	0	0	0	0	0	9.715983	1.206302	-0.127260	-0.026002	-0.005514	-0.000317	-0.712891	-0.568115	0.171631	0.402555	0.632980	-0.325266	0.575750	95.465038	-82.201369	22.427500	0.125429	0.051768	0.990751	-0.875316	-0.464302	0.135075	0.467000	-0.884163	-0.012923	0	0	0
14145	0	0	0	0	0	9.757862	1.182388	-0.182316	-0.009753	0.000628	-0.002725	-0.719238	-0.562256	0.169678	0.402591	0.632957	-0.325304	0.575728	95.461995	-82.201551	22.423579	0.125429	0.051759	0.990752	-0.875373	-0.464195	0.135073	0.466894	-0.884219	-0.012916	0	0	0
14146	0	0	0	0	0	9.777676	1.167398	-0.127887	0.000024	0.000885	-0.003441	-0.718262	-0.569580	0.177246	0.402600	0.632953	-0.325315	0.575720	95.463512	-82.201514	22.420192	0.125433	0.051751	0.990751	-0.875388	-0.464167	0.135073	0.466864	-0.884235	-0.012919	0	0	0
14147	0	0	0	0	0	9.763341	1.191506	-0.160103	0.011635	-0.003164	-0.006613	-0.721680	-0.562744	0.174316	0.402573	0.632991	-0.325287	0.575713	95.486963	-82.199271	22.401899	0.125485	0.051726	0.990746	-0.875340	-0.464247	0.135106	0.466940	-0.884194	-0.012978	0	0	0
14148	0	0	0	0	0	9.775897	1.212936	-0.224997	0.019370	0.000237	-0.002985	-0.728760	-0.562744	0.176514	0.402513	0.633030	-0.325241	0.575738	95.503658	-82.199447	22.395221	0.125488	0.051710	0.990747	-0.875259	-0.464403	0.135099	0.467092	-0.884113	-0.013017	0	0	0
14149	0	0	0	0	0	9.737779	1.199467	-0.237182	0.019023	0.000567	-0.009532	-0.721680	-0.567871	0.171631	0.402477	0.633077	-0.325174	0.575749	95.514625	-82.195743	22.393802	0.125549	0.051732	0.990738	-0.875173	-0.464547	0.135161	0.467237	-0.884036	-0.013049	0	0	0
14150	0	0	0	0	0	9.745714	1.257076	-0.180373	0.017687	0.000397	-0.004530	-0.721191	-0.571533	0.166992	0.402432	0.633112	-0.325132	0.575767	95.528113	-82.195150	22.388643	0.125563	0.051724	0.990736	-0.875103	-0.464676	0.135168	0.467363	-0.883969	-0.013082	0	0	0
14151	0	0	0	0	0	9.741777	1.295747	-0.113625	0.008641	-0.002292	-0.006595	-0.717773	-0.569092	0.176025	0.402415	0.633141	-0.325110	0.575758	95.546194	-82.192963	22.374039	0.125611	0.051707	0.990731	-0.875069	-0.464730	0.135201	0.467413	-0.883941	-0.013128	0	0	0
14152	0	0	0	0	0	9.729830	1.277424	-0.103742	0.004913	0.001013	-0.003798	-0.712646	-0.568115	0.172119	0.402410	0.633147	-0.325106	0.575758	95.549808	-82.192702	22.371386	0.125618	0.051703	0.990731	-0.875061	-0.464745	0.135205	0.467428	-0.883934	-0.013137	0	0	0
14153	0	0	0	0	0	9.774142	1.302207	-0.124008	-0.001683	0.000159	-0.001546	-0.714111	-0.564453	0.181152	0.402416	0.633140	-0.325125	0.575751	95.553814	-82.193530	22.365017	0.125610	0.051683	0.990733	-0.875082	-0.464710	0.135190	0.467391	-0.883953	-0.013145	0	0	0
14154	0	0	0	0	0	9.740921	1.294559	-0.058929	-0.005386	0.004347	-0.002190	-0.718750	-0.562500	0.174316	0.402437	0.633119	-0.325141	0.575751	95.540211	-82.194293	22.375132	0.125589	0.051700	0.990734	-0.875112	-0.464656	0.135180	0.467339	-0.883981	-0.013112	0	0	0
14155	0	0	0	0	0	9.794657	1.289691	-0.123749	-0.002240	-0.000674	-0.006206	-0.719971	-0.565186	0.174805	0.402456	0.633121	-0.325149	0.575730	95.545483	-82.192417	22.367163	0.125626	0.051695	0.990730	-0.875130	-0.464614	0.135211	0.467296	-0.884003	-0.013128	0	0	0
14156	0	0	0	0	0	9.724104	1.270281	-0.125636	-0.000976	-0.003156	-0.000886	-0.727539	-0.567871	0.173584	0.402451	0.633124	-0.325177	0.575714	95.565044	-82.193644	22.345489	0.125626	0.051640	0.990733	-0.875149	-0.464586	0.135185	0.467261	-0.884021	-0.013172	0	0	0
14157	0	0	0	0	0	9.724044	1.270683	-0.126158	0.010661	-0.006321	-0.007496	-0.724365	-0.571045	0.167480	0.402425	0.633170	-0.325155	0.575694	95.600654	-82.190717	22.314360	0.125701	0.051591	0.990726	-0.875104	-0.464657	0.135227	0.467324	-0.883987	-0.013261	0	0	0
14158	0	0	0	0	0	9.710417	1.296809	-0.213520	0.014399	-0.006082	-0.001298	-0.721680	-0.574463	0.175537	0.402374	0.633209	-0.325149	0.575691	95.639395	-82.191596	22.281092	0.125717	0.051512	0.990728	-0.875060	-0.464747	0.135203	0.467403	-0.883944	-0.013351	0	0	0
14159	0	0	0	0	0	9.721514	1.313792	-0.169712	0.016316	-0.004197	-0.005080	-0.718506	-0.561279	0.172363	0.402326	0.633257	-0.325114	0.575692	95.670376	-82.190161	22.257905	0.125761	0.051470	0.990725	-0.874992	-0.464870	0.135221	0.467518	-0.883882	-0.013426	0	0	0
14160	0	0	0	0	0	9.750762	1.360225	-0.168304	0.015526	-0.007075	-0.004411	-0.718994	-0.566406	0.173096	0.402273	0.633310	-0.325091	0.575683	95.713998	-82.189110	22.221379	0.125810	0.051397	0.990722	-0.874930	-0.464984	0.135229	0.467620	-0.883826	-0.013531	0	0	0
14161	0	0	0	0	0	9.759426	1.328628	-0.159068	0.000732	-0.002432	-0.002780	-0.718994	-0.559570	0.178955	0.402271	0.633317	-0.325105	0.575668	95.729656	-82.189083	22.204646	0.125826	0.051360	0.990722	-0.874938	-0.464970	0.135225	0.467601	-0.883835	-0.013568	0	0	0
14162	0	0	0	0	0	9.782418	1.364396	-0.124586	-0.004285	0.002470	-0.001864	-0.722656	-0.565186	0.180908	0.402287	0.633300	-0.325126	0.575664	95.723891	-82.190059	22.206858	0.125808	0.051359	0.990724	-0.874969	-0.464916	0.135210	0.467548	-0.883864	-0.013553	0	0	0
14163	0	0	0	0	0	9.737332	1.338031	-0.049399	-0.021217	0.000522	-0.003555	-0.719482	-0.567383	0.180908	0.402361	0.633256	-0.325195	0.575621	95.714375	-82.189760	22.202841	0.125816	0.051352	0.990724	-0.875079	-0.464707	0.135217	0.467340	-0.883974	-0.013531	0	0	0
14164	0	0	0	0	0	9.728573	1.279199	-0.051591	-0.015038	-0.000946	-0.002033	-0.719727	-0.568848	0.169434	0.402401	0.633232	-0.325249	0.575590	95.717900	-82.190373	22.190435	0.125818	0.051321	0.990725	-0.875152	-0.464573	0.135206	0.467203	-0.884047	-0.013538	0	0	0
14165	0	0	0	0	0	9.717384	1.262744	-0.096680	-0.009187	-0.014194	-0.002848	-0.717285	-0.565674	0.170654	0.402411	0.633253	-0.325315	0.575522	95.776737	-82.189632	22.124382	0.125889	0.051181	0.990723	-0.875206	-0.464471	0.135205	0.467082	-0.884108	-0.013678	0	0	0
14166	0	0	0	0	0	9.732362	1.241483	-0.120270	-0.001243	-0.009627	-0.001110	-0.720947	-0.568848	0.172607	0.402402	0.633271	-0.325359	0.575483	95.821650	-82.190333	22.076105	0.125921	0.051070	0.990725	-0.875233	-0.464427	0.135182	0.467023	-0.884138	-0.013783	0	0	0
14167	0	0	0	0	0	9.759891	1.241299	-0.208275	0.011949	-0.007917	-0.005618	-0.727295	-0.572510	0.179688	0.402364	0.633322	-0.325343	0.575464	95.865321	-82.188364	22.037584	0.125986	0.050998	0.990720	-0.875185	-0.464511	0.135205	0.467096	-0.884098	-0.013889	0	0	0
14168	0	0	0	0	0	9.745505	1.265322	-0.241096	0.024782	-0.003220	-0.004240	-0.723389	-0.562256	0.176514	0.402286	0.633383	-0.325285	0.575483	95.898566	-82.187615	22.017117	0.126017	0.050958	0.990718	-0.875078	-0.464711	0.135210	0.467287	-0.883995	-0.013969	0	0	0
14169	0	0	0	0	0	9.751022	1.274079	-0.219365	0.030462	-0.000211	-0.005266	-0.719727	-0.574951	0.178955	0.402200	0.633448	-0.325201	0.575519	95.920961	-82.186296	22.010777	0.126043	0.050952	0.990715	-0.874944	-0.464958	0.135227	0.467531	-0.883865	-0.014024	0	0	0
14170	0	0	0	0	0	9.738371	1.344650	-0.162590	0.025573	-0.000342	-0.004906	-0.721924	-0.567627	0.175537	0.402125	0.633505	-0.325131	0.575549	95.942974	-82.185315	22.002488	0.126067	0.050941	0.990713	-0.874830	-0.465170	0.135239	0.467739	-0.883754	-0.014078	0	0	0
14171	0	0	0	0	0	9.765177	1.342429	-0.195668	0.014425	-0.005198	-0.004738	-0.716064	-0.571045	0.178223	0.402080	0.633551	-0.325105	0.575544	95.977105	-82.183999	21.975028	0.126112	0.050889	0.990710	-0.874771	-0.465276	0.135253	0.467837	-0.883701	-0.014161	0	0	0
14172	0	0	0	0	0	9.737537	1.343458	-0.109156	0.008432	-0.003454	-0.004706	-0.723633	-0.575684	0.178955	0.402054	0.633582	-0.325091	0.575536	96.002154	-82.182911	21.953699	0.126148	0.050849	0.990707	-0.874737	-0.465336	0.135265	0.467890	-0.883672	-0.014222	0	0	0
14173	0	0	0	0	0	9.714431	1.308442	-0.144066	-0.002113	-0.005711	-0.006760	-0.725586	-0.568848	0.177490	0.402067	0.633600	-0.325107	0.575498	96.028033	-82.180408	21.925003	0.126214	0.050802	0.990701	-0.874754	-0.465295	0.135302	0.467842	-0.883697	-0.014288	0	0	0
14174	0	0	0	0	0	9.720593	1.319634	-0.176999	0.005587	-0.006732	-0.008687	-0.725098	-0.563477	0.182617	0.402056	0.633641	-0.325096	0.575467	96.063218	-82.176875	21.891752	0.126300	0.050751	0.990693	-0.874729	-0.465327	0.135354	0.467865	-0.883683	-0.014377	0	0	0
14175	0	0	0	0	0	9.755404	1.283744	-0.146234	0.003614	-0.013927	-0.007012	-0.720459	-0.566162	0.171387	0.402038	0.633694	-0.325111	0.575412	96.126281	-82.173723	21.828834	0.126406	0.050633	0.990685	-0.874718	-0.465336	0.135392	0.467857	-0.883685	-0.014532	0	0	0
14176	0	0	0	0	0	9.761558	1.294898	-0.179554	0.011057	-0.004883	-0.007828	-0.720459	-0.564697	0.177490	0.402012	0.633738	-0.325086	0.575397	96.156890	-82.170882	21.803004	0.126475	0.050594	0.990679	-0.874671	-0.465411	0.135433	0.467925	-0.883647	-0.014610	0	0	0
14177	0	0	0	0	0	9.700388	1.245933	-0.226607	0.012161	-0.006758	-0.007501	-0.718506	-0.562012	0.171875	0.401980	0.633789	-0.325061	0.575378	96.194856	-82.167882	21.770362	0.126552	0.050541	0.990672	-0.874620	-0.465496	0.135475	0.468001	-0.883606	-0.014705	0	0	0
14178	0	0	0	0	0	9.738319	1.260736	-0.215415	0.027805	-0.003207	-0.007695	-0.722168	-0.563232	0.172607	0.401905	0.633860	-0.324986	0.575394	96.227630	-82.165220	21.751676	0.126611	0.050517	0.990665	-0.874498	-0.465714	0.135513	0.468212	-0.883492	-0.014787	0	0	0
14179	0	0	0	0	0	9.766822	1.305442	-0.159421	0.029699	-0.002204	-0.008037	-0.719482	-0.563477	0.180420	0.401826	0.633933	-0.324899	0.575417	96.256507	-82.162193	21.738351	0.126671	0.050507	0.990658	-0.874364	-0.465953	0.135557	0.468447	-0.883367	-0.014861	0	0	0
14180	0	0	0	0	0	9.723081	1.283678	-0.194476	0.032827	-0.008109	-0.008604	-0.719482	-0.565186	0.172363	0.401729	0.634031	-0.324815	0.575425	96.312331	-82.158704	21.699538	0.126762	0.050443	0.990650	-0.874215	-0.466218	0.135602	0.468699	-0.883230	-0.015000	0	0	0
14181	0	0	0	0	0	9.778451	1.325612	-0.171382	0.029679	-0.003084	-0.004594	-0.712158	-0.563965	0.174561	0.401639	0.634101	-0.324741	0.575452	96.346372	-82.157579	21.680989	0.126796	0.050410	0.990647	-0.874085	-0.466459	0.135613	0.468932	-0.883105	-0.015083	0	0	0
14182	0	0	0	0	0	9.764019	1.349628	-0.203768	0.020185	0.004003	-0.007101	-0.719727	-0.569092	0.176514	0.401599	0.634135	-0.324676	0.575480	96.344900	-82.155659	21.692321	0.126817	0.050447	0.990643	-0.874001	-0.466608	0.135646	0.469084	-0.883025	-0.015083	0	0	0
14183	0	0	0	0	0	9.714066	1.317256	-0.205598	0.009223	-0.000577	-0.005375	-0.727783	-0.561279	0.183350	0.401580	0.634158	-0.324654	0.575480	96.356489	-82.154248	21.684605	0.126846	0.050439	0.990639	-0.873966	-0.466667	0.135667	0.469142	-0.882994	-0.015113	0	0	0
14184	0	0	0	0	0	9.701497	1.296935	-0.141199	0.002045	-0.003151	-0.004336	-0.718506	-0.567139	0.177002	0.401573	0.634174	-0.324660	0.575463	96.376733	-82.153478	21.664361	0.126877	0.050399	0.990637	-0.873963	-0.466670	0.135675	0.469138	-0.882995	-0.015163	0	0	0
14185	0	0	0	0	0	9.723373	1.288117	-0.251061	0.012723	-0.005921	-0.002835	-0.727051	-0.565430	0.170410	0.401527	0.634216	-0.324646	0.575457	96.413572	-82.153171	21.633181	0.126909	0.050332	0.990637	-0.873915	-0.466762	0.135671	0.469220	-0.882950	-0.015250	0	0	0
14186	0	0	0	0	0	9.734493	1.305241	-0.207509	0.008357	-0.009647	-0.003363	-0.715576	-0.561768	0.180908	0.401494	0.634257	-0.324657	0.575429	96.462903	-82.152577	21.585967	0.126960	0.050231	0.990635	-0.873894	-0.466801	0.135668	0.469244	-0.882935	-0.015368	0	0	0
14187	0	0	0	0	0	9.740026	1.313963	-0.186147	0.014616	-0.004918	-0.003179	-0.715576	-0.566895	0.177490	0.401445	0.634301	-0.324634	0.575428	96.496514	-82.152133	21.559141	0.126991	0.050174	0.990634	-0.873836	-0.466909	0.135666	0.469343	-0.882881	-0.015449	0	0	0
14188	0	0	0	0	0	9.731220	1.346041	-0.196327	0.008676	0.002138	-0.001047	-0.716309	-0.567139	0.173340	0.401415	0.634311	-0.324619	0.575446	96.500573	-82.153479	21.559371	0.126969	0.050166	0.990637	-0.873804	-0.466977	0.135642	0.469409	-0.882845	-0.015456	0	0	0
14189	0	0	0	0	0	9.731186	1.346255	-0.196516	0.016903	-0.002476	-0.003859	-0.719727	-0.573486	0.177490	0.401364	0.634353	-0.324583	0.575455	96.525089	-82.152804	21.543049	0.126994	0.050134	0.990636	-0.873735	-0.467105	0.135647	0.469531	-0.882779	-0.015515	0	0	0
14190	0	0	0	0	0	9.731104	1.346786	-0.196942	0.001673	-0.003714	-0.007440	-0.718506	-0.559570	0.184326	0.401371	0.634373	-0.324584	0.575428	96.544972	-82.150123	21.522394	0.127055	0.050106	0.990629	-0.873735	-0.467094	0.135688	0.469516	-0.882787	-0.015568	0	0	0
14191	0	0	0	0	0	9.777853	1.329490	-0.175399	0.001313	-0.000716	-0.001560	-0.723145	-0.564697	0.180176	0.401366	0.634375	-0.324596	0.575423	96.554372	-82.150870	21.512312	0.127052	0.050079	0.990631	-0.873741	-0.467086	0.135672	0.469504	-0.882793	-0.015588	0	0	0
14192	0	0	0	0	0	9.736720	1.265011	-0.167355	-0.000745	-0.001123	-0.006210	-0.719482	-0.569824	0.177002	0.401374	0.634385	-0.324598	0.575405	96.564477	-82.149137	21.501198	0.127089	0.050065	0.990627	-0.873745	-0.467070	0.135699	0.469486	-0.882802	-0.015616	0	0	0
14193	0	0	0	0	0	9.748509	1.284141	-0.177363	-0.004103	0.002745	-0.000315	-0.717773	-0.564941	0.180664	0.401388	0.634364	-0.324623	0.575404	96.557074	-82.150820	21.504946	0.127059	0.050063	0.990631	-0.873779	-0.467015	0.135673	0.469432	-0.882831	-0.015595	0	0	0
14194	0	0	0	0	0	9.710480	1.269986	-0.189029	-0.006390	0.000303	0.000366	-0.717285	-0.568604	0.179932	0.401400	0.634346	-0.324661	0.575394	96.560360	-82.152856	21.496977	0.127033	0.050032	0.990636	-0.873822	-0.466946	0.135637	0.469359	-0.882869	-0.015599	0	0	0
14195	0	0	0	0	0	9.719268	1.238053	-0.179152	-0.003785	-0.002007	0.000688	-0.722168	-0.567383	0.178955	0.401403	0.634337	-0.324698	0.575381	96.573245	-82.154798	21.480429	0.127016	0.049983	0.990640	-0.873855	-0.466894	0.135600	0.469302	-0.882900	-0.015625	0	0	0
14196	0	0	0	0	0	9.737337	1.267154	-0.222032	0.006313	-0.006494	0.000973	-0.730225	-0.570801	0.180664	0.401362	0.634364	-0.324715	0.575371	96.612320	-82.156732	21.443768	0.127017	0.049889	0.990645	-0.873838	-0.466938	0.135556	0.469333	-0.882881	-0.015714	0	0	0
14197	0	0	0	0	0	9.737987	1.268937	-0.277181	0.008786	-0.003771	0.001845	-0.718750	-0.567627	0.183350	0.401318	0.634384	-0.324722	0.575375	96.640278	-82.159213	21.419276	0.126999	0.049820	0.990651	-0.873814	-0.466998	0.135506	0.469383	-0.882854	-0.015775	0	0	0
14198	0	0	0	0	0	9.722981	1.290219	-0.255418	0.010996	-0.007520	0.002504	-0.721436	-0.568359	0.181152	0.401255	0.634421	-0.324731	0.575373	96.687446	-82.161965	21.377399	0.126991	0.049709	0.990658	-0.873775	-0.467088	0.135445	0.469457	-0.882812	-0.015881	0	0	0
14199	0	0	0	0	0	9.734154	1.307069	-0.211863	0.012331	-0.007360	-0.002497	-0.720215	-0.560059	0.181396	0.401207	0.634466	-0.324723	0.575362	96.730195	-82.161731	21.340026	0.127027	0.049628	0.990657	-0.873729	-0.467177	0.135438	0.469533	-0.882770	-0.015983	0	0	0
14200	0	0	0	0	0	9.701671	1.301536	-0.202402	0.005547	-0.008495	-0.001793	-0.713623	-0.561279	0.180176	0.401171	0.634501	-0.324736	0.575340	96.776160	-82.161991	21.296128	0.127061	0.049529	0.990658	-0.873711	-0.467216	0.135420	0.469558	-0.882755	-0.016091	0	0	0
14201	0	0	0	0	0	9.754677	1.294385	-0.213732	0.009727	-0.005050	-0.002819	-0.722168	-0.569336	0.177979	0.401136	0.634534	-0.324729	0.575332	96.807711	-82.161723	21.268553	0.127089	0.049470	0.990657	-0.873677	-0.467281	0.135416	0.469614	-0.882724	-0.016166	0	0	0
14202	0	0	0	0	0	9.760240	1.303029	-0.191966	0.005810	-0.002023	-0.001582	-0.714355	-0.567627	0.176758	0.401112	0.634551	-0.324731	0.575330	96.826693	-82.162507	21.251741	0.127091	0.049427	0.990659	-0.873660	-0.467318	0.135397	0.469645	-0.882707	-0.016209	0	0	0
14203	0	0	0	0	0	9.765792	1.311839	-0.169658	0.001015	0.004912	-0.006006	-0.715332	-0.571777	0.177490	0.401130	0.634543	-0.324719	0.575333	96.810511	-82.161101	21.267312	0.127100	0.049471	0.990655	-0.873662	-0.467305	0.135426	0.469638	-0.882711	-0.016174	0	0	0
14204	0	0	0	0	0	9.736499	1.266153	-0.171522	-0.012834	-0.004708	-0.001367	-0.721680	-0.574707	0.179688	0.401161	0.634529	-0.324780	0.575292	96.829676	-82.161740	21.239402	0.127114	0.049405	0.990657	-0.873734	-0.467175	0.135409	0.469500	-0.882783	-0.016218	0	0	0
14205	0	0	0	0	0	9.733286	1.306658	-0.159123	-0.008787	0.003770	-0.001845	-0.725342	-0.566895	0.179932	0.401196	0.634498	-0.324812	0.575284	96.814649	-82.162624	21.248136	0.127092	0.049419	0.990659	-0.873788	-0.467078	0.135398	0.469406	-0.882834	-0.016180	0	0	0
14206	0	0	0	0	0	9.737076	1.268463	-0.225998	0.003337	-0.004746	-0.002453	-0.722900	-0.571045	0.175781	0.401178	0.634518	-0.324824	0.575267	96.842877	-82.162721	21.220484	0.127114	0.049357	0.990659	-0.873783	-0.467091	0.135389	0.469410	-0.882831	-0.016247	0	0	0
14207	0	0	0	0	0	9.727627	1.298636	-0.181545	0.000207	0.001158	-0.001889	-0.724609	-0.565674	0.181152	0.401181	0.634513	-0.324835	0.575265	96.843782	-82.163402	21.218339	0.127105	0.049348	0.990661	-0.873794	-0.467073	0.135377	0.469391	-0.882841	-0.016248	0	0	0
14208	0	0	0	0	0	9.733800	1.309329	-0.214182	-0.000821	-0.007315	-0.004868	-0.719727	-0.566895	0.177490	0.401181	0.634534	-0.324858	0.575228	96.878589	-82.162002	21.181270	0.127160	0.049274	0.990658	-0.873808	-0.467042	0.135391	0.469350	-0.882861	-0.016333	0	0	0
14209	0	0	0	0	0	9.733729	1.309724	-0.214995	0.005362	-0.008776	-0.003345	-0.718506	-0.562744	0.178467	0.401155	0.634570	-0.324869	0.575200	96.922766	-82.161171	21.138425	0.127210	0.049184	0.990656	-0.873794	-0.467069	0.135393	0.469364	-0.882852	-0.016439	0	0	0
14210	0	0	0	0	0	9.716244	1.282815	-0.227895	0.007648	-0.006333	-0.004027	-0.717773	-0.567139	0.173584	0.401127	0.634605	-0.324868	0.575182	96.958934	-82.160301	21.104980	0.127252	0.049115	0.990654	-0.873768	-0.467116	0.135397	0.469400	-0.882831	-0.016526	0	0	0
14211	0	0	0	0	0	9.733607	1.310384	-0.216453	0.008228	-0.004613	-0.002812	-0.713867	-0.567871	0.180908	0.401097	0.634634	-0.324865	0.575173	96.987815	-82.160055	21.079234	0.127278	0.049060	0.990653	-0.873741	-0.467168	0.135393	0.469443	-0.882807	-0.016595	0	0	0
14212	0	0	0	0	0	9.727364	1.300166	-0.184668	-0.001760	-0.006037	-0.000202	-0.724609	-0.572021	0.174805	0.401088	0.634643	-0.324902	0.575148	97.019320	-82.161298	21.045148	0.127288	0.048976	0.990656	-0.873763	-0.467134	0.135363	0.469399	-0.882829	-0.016667	0	0	0
14213	0	0	0	0	0	9.765397	1.314330	-0.173085	-0.008282	-0.000701	0.000713	-0.716797	-0.568115	0.182861	0.401107	0.634622	-0.324949	0.575131	97.024380	-82.163328	21.033899	0.127264	0.048939	0.990661	-0.873818	-0.467043	0.135326	0.469303	-0.882880	-0.016674	0	0	0
14214	0	0	0	0	0	9.722381	1.293509	-0.261545	-0.009201	0.001454	0.001935	-0.715332	-0.564209	0.171387	0.401127	0.634592	-0.324999	0.575123	97.021888	-82.166325	21.029902	0.127219	0.048911	0.990668	-0.873878	-0.466946	0.135276	0.469205	-0.882932	-0.016662	0	0	0
14215	0	0	0	0	0	9.716139	1.283392	-0.229110	0.006037	0.000012	-0.006914	-0.717041	-0.571533	0.175537	0.401124	0.634610	-0.324979	0.575116	97.028325	-82.164068	21.025544	0.127260	0.048916	0.990663	-0.873856	-0.466977	0.135312	0.469235	-0.882916	-0.016682	0	0	0
14216	0	0	0	0	0	9.744685	1.328123	-0.172739	0.009222	-0.000577	-0.005377	-0.716064	-0.572021	0.176758	0.401108	0.634631	-0.324961	0.575114	97.039765	-82.162794	21.017226	0.127287	0.048905	0.990660	-0.873827	-0.467025	0.135331	0.469281	-0.882891	-0.016712	0	0	0
14217	0	0	0	0	0	9.733422	1.311598	-0.217439	0.000339	-0.003876	-0.002437	-0.720215	-0.564941	0.171387	0.401104	0.634641	-0.324980	0.575095	97.061276	-82.162809	20.994357	0.127307	0.048854	0.990660	-0.873837	-0.467008	0.135324	0.469257	-0.882903	-0.016763	0	0	0
14218	0	0	0	0	0	9.727778	1.303439	-0.239704	-0.004477	0.002182	-0.003419	-0.717529	-0.564453	0.181885	0.401130	0.634623	-0.325003	0.575084	97.054493	-82.162856	20.996519	0.127304	0.048859	0.990660	-0.873875	-0.466936	0.135326	0.469187	-0.882940	-0.016747	0	0	0
14219	0	0	0	0	0	9.738921	1.320858	-0.194996	0.000434	0.003192	-0.007221	-0.716309	-0.572510	0.170898	0.401151	0.634621	-0.324992	0.575078	97.044419	-82.160648	21.005587	0.127332	0.048892	0.990654	-0.873879	-0.466917	0.135366	0.469172	-0.882948	-0.016727	0	0	0
14220	0	0	0	0	0	9.747644	1.289652	-0.184766	-0.007849	0.002490	-0.006508	-0.717529	-0.561279	0.179932	0.401194	0.634603	-0.325010	0.575057	97.033721	-82.158913	21.010371	0.127356	0.048914	0.990650	-0.873924	-0.466824	0.135399	0.469082	-0.882997	-0.016706	0	0	0
14221	0	0	0	0	0	9.762618	1.268495	-0.207066	-0.010361	-0.001988	-0.000494	-0.720703	-0.566162	0.185547	0.401221	0.634584	-0.325062	0.575031	97.042285	-82.160165	20.994382	0.127349	0.048870	0.990653	-0.873987	-0.466713	0.135375	0.468967	-0.883058	-0.016723	0	0	0
14222	0	0	0	0	0	9.723938	1.252694	-0.164363	-0.012026	-0.000957	-0.005480	-0.713623	-0.563721	0.180420	0.401262	0.634570	-0.325097	0.574997	97.045758	-82.158800	20.983615	0.127380	0.048855	0.990650	-0.874043	-0.466601	0.135398	0.468853	-0.883117	-0.016735	0	0	0
14223	0	0	0	0	0	9.735694	1.271941	-0.174366	-0.006369	0.001178	-0.003073	-0.719971	-0.568115	0.172852	0.401289	0.634553	-0.325123	0.574982	97.042223	-82.158808	20.982148	0.127382	0.048852	0.990650	-0.874084	-0.466524	0.135399	0.468777	-0.883158	-0.016726	0	0	0
14224	0	0	0	0	0	9.698231	1.260021	-0.240595	0.001912	0.001881	-0.003786	-0.725342	-0.553223	0.179199	0.401292	0.634552	-0.325123	0.574981	97.041124	-82.158613	20.982917	0.127384	0.048855	0.990650	-0.874086	-0.466519	0.135402	0.468772	-0.883161	-0.016724	0	0	0
14225	0	0	0	0	0	9.726797	1.304443	-0.184355	0.004445	-0.006619	-0.002124	-0.721436	-0.565186	0.173584	0.401269	0.634578	-0.325137	0.574960	97.076463	-82.158612	20.948464	0.127413	0.048778	0.990650	-0.874077	-0.466538	0.135392	0.468780	-0.883155	-0.016807	0	0	0
14226	0	0	0	0	0	9.727377	1.306443	-0.239606	0.013100	-0.005354	0.000267	-0.719482	-0.566406	0.182129	0.401216	0.634611	-0.325137	0.574961	97.113052	-82.160415	20.916986	0.127411	0.048697	0.990654	-0.874038	-0.466623	0.135350	0.468853	-0.883115	-0.016890	0	0	0
14227	0	0	0	0	0	9.742359	1.285092	-0.262691	0.004651	-0.005461	-0.004013	-0.712158	-0.561523	0.174072	0.401200	0.634637	-0.325141	0.574941	97.142759	-82.159417	20.888337	0.127452	0.048639	0.990651	-0.874026	-0.466643	0.135359	0.468865	-0.883107	-0.016962	0	0	0
14228	0	0	0	0	0	9.770930	1.329476	-0.206763	0.005024	-0.004899	-0.000908	-0.714844	-0.571289	0.174805	0.401172	0.634659	-0.325154	0.574930	97.173433	-82.160369	20.859165	0.127461	0.048569	0.990654	-0.874015	-0.466672	0.135333	0.468883	-0.883096	-0.017033	0	0	0
14229	0	0	0	0	0	9.723447	1.345493	-0.174072	0.005696	0.003889	-0.004477	-0.715088	-0.560303	0.178955	0.401169	0.634661	-0.325135	0.574940	97.164890	-82.159773	20.869731	0.127462	0.048596	0.990652	-0.873998	-0.466701	0.135346	0.468916	-0.883079	-0.017014	0	0	0
14230	0	0	0	0	0	9.717761	1.337680	-0.196054	0.003245	0.002041	-0.008788	-0.718018	-0.570801	0.178223	0.401182	0.634671	-0.325115	0.574932	97.161473	-82.156715	20.873750	0.127508	0.048623	0.990645	-0.873986	-0.466707	0.135399	0.468925	-0.883074	-0.017012	0	0	0
14231	0	0	0	0	0	9.682037	1.372797	-0.173525	0.001840	-0.004310	-0.002445	-0.721924	-0.571045	0.181641	0.401172	0.634685	-0.325130	0.574914	97.185617	-82.156688	20.849091	0.127529	0.048569	0.990645	-0.873989	-0.466703	0.135393	0.468913	-0.883080	-0.017070	0	0	0
14232	0	0	0	0	0	9.750069	1.344280	-0.206523	-0.007084	0.004489	-0.003740	-0.715576	-0.573975	0.169189	0.401205	0.634661	-0.325148	0.574908	97.169394	-82.156635	20.860525	0.127520	0.048595	0.990645	-0.874029	-0.466627	0.135398	0.468842	-0.883118	-0.017031	0	0	0
14233	0	0	0	0	0	9.765036	1.323259	-0.228504	-0.016131	0.001784	-0.005793	-0.722900	-0.562012	0.175537	0.401272	0.634628	-0.325192	0.574873	97.156356	-82.155140	20.863005	0.127542	0.048609	0.990641	-0.874112	-0.466463	0.135428	0.468680	-0.883204	-0.017004	0	0	0
14234	0	0	0	0	0	9.700096	1.312426	-0.207517	-0.006929	0.000333	-0.007729	-0.723633	-0.561768	0.172119	0.401318	0.634615	-0.325214	0.574842	97.152959	-82.152651	20.859871	0.127585	0.048618	0.990635	-0.874160	-0.466361	0.135472	0.468580	-0.883258	-0.017001	0	0	0
14235	0	0	0	0	0	9.741241	1.287101	-0.208109	-0.006794	-0.004700	-0.008277	-0.722168	-0.566650	0.167725	0.401351	0.634623	-0.325236	0.574797	97.170722	-82.149281	20.836658	0.127659	0.048587	0.990627	-0.874196	-0.466277	0.135524	0.468492	-0.883303	-0.017050	0	0	0
14236	0	0	0	0	0	9.723123	1.258817	-0.165800	-0.014084	-0.001369	-0.010126	-0.720215	-0.566162	0.184082	0.401428	0.634602	-0.325279	0.574743	97.167941	-82.145452	20.827908	0.127728	0.048591	0.990618	-0.874281	-0.466098	0.135591	0.468313	-0.883398	-0.017052	0	0	0
14237	0	0	0	0	0	9.773706	1.203584	-0.211021	-0.017887	-0.004256	-0.005995	-0.722900	-0.567871	0.181152	0.401491	0.634583	-0.325340	0.574686	97.178674	-82.143411	20.805375	0.127781	0.048553	0.990613	-0.874372	-0.465918	0.135623	0.468129	-0.883495	-0.017082	0	0	0
14238	0	0	0	0	0	9.747380	1.208973	-0.233018	-0.008614	0.000487	-0.009272	-0.719482	-0.575439	0.178223	0.401535	0.634578	-0.325350	0.574655	97.176084	-82.139976	20.802682	0.127838	0.048568	0.990605	-0.874408	-0.465834	0.135682	0.468047	-0.883538	-0.017083	0	0	0
14239	0	0	0	0	0	9.699810	1.225614	-0.200156	0.000774	-0.000680	-0.009657	-0.719971	-0.569824	0.178223	0.401555	0.634591	-0.325338	0.574632	97.180872	-82.136109	20.796944	0.127906	0.048579	0.990596	-0.874407	-0.465817	0.135747	0.468031	-0.883547	-0.017103	0	0	0
14240	0	0	0	0	0	9.717080	1.253771	-0.188312	-0.001903	-0.004564	-0.008638	-0.716309	-0.569824	0.179932	0.401572	0.634611	-0.325345	0.574595	97.202035	-82.132616	20.773421	0.127982	0.048548	0.990588	-0.874418	-0.465781	0.135801	0.467990	-0.883567	-0.017161	0	0	0
14241	0	0	0	0	0	9.743806	1.251827	-0.221160	-0.004136	-0.001694	-0.005854	-0.718018	-0.569824	0.181641	0.401595	0.634612	-0.325361	0.574569	97.210140	-82.130837	20.761494	0.128021	0.048532	0.990583	-0.874444	-0.465723	0.135829	0.467929	-0.883599	-0.017184	0	0	0
14242	0	0	0	0	0	9.734899	1.284182	-0.230923	-0.002587	0.003185	-0.003761	-0.715332	-0.568115	0.181641	0.401609	0.634602	-0.325366	0.574567	97.202553	-82.130649	20.767275	0.128019	0.048546	0.990583	-0.874459	-0.465694	0.135834	0.467903	-0.883613	-0.017166	0	0	0
14243	0	0	0	0	0	9.778492	1.307075	-0.196546	0.004175	0.003450	-0.001027	-0.715576	-0.570801	0.175781	0.401600	0.634597	-0.325364	0.574580	97.196774	-82.131983	20.774173	0.127992	0.048553	0.990586	-0.874453	-0.465711	0.135813	0.467921	-0.883604	-0.017149	0	0	0
14244	0	0	0	0	0	9.778485	1.307166	-0.196294	0.005675	0.003015	-0.001035	-0.711914	-0.562988	0.174561	0.401582	0.634598	-0.325356	0.574596	97.195513	-82.133340	20.777986	0.127967	0.048554	0.990589	-0.874435	-0.465751	0.135790	0.467961	-0.883583	-0.017143	0	0	0
14245	0	0	0	0	0	9.746033	1.301601	-0.185925	0.010907	-0.000722	-0.003834	-0.713135	-0.566406	0.181152	0.401553	0.634623	-0.325334	0.574601	97.209294	-82.132779	20.769031	0.127983	0.048537	0.990588	-0.874394	-0.465826	0.135796	0.468033	-0.883544	-0.017177	0	0	0
14246	0	0	0	0	0	9.769556	1.339623	-0.206202	0.001911	0.001883	-0.003786	-0.718018	-0.564453	0.189453	0.401553	0.634625	-0.325331	0.574601	97.209013	-82.132531	20.769558	0.127987	0.048540	0.990587	-0.874392	-0.465830	0.135800	0.468037	-0.883542	-0.017177	0	0	0
14247	0	0	0	0	0	9.725314	1.315278	-0.185608	0.001705	0.000724	-0.001897	-0.717773	-0.566406	0.173828	0.401550	0.634624	-0.325338	0.574600	97.212579	-82.133175	20.765592	0.127980	0.048527	0.990589	-0.874396	-0.465825	0.135788	0.468030	-0.883545	-0.017184	0	0	0
14248	0	0	0	0	0	9.699029	1.320270	-0.207608	-0.000745	-0.001124	-0.006207	-0.711670	-0.575928	0.178223	0.401558	0.634634	-0.325339	0.574583	97.222637	-82.131358	20.754634	0.128018	0.048514	0.990585	-0.874399	-0.465811	0.135816	0.468014	-0.883553	-0.017212	0	0	0
14249	0	0	0	0	0	9.713394	1.297408	-0.175835	0.002969	-0.005305	-0.005557	-0.715820	-0.570801	0.172607	0.401552	0.634659	-0.325343	0.574557	97.249810	-82.129486	20.727568	0.128072	0.048465	0.990580	-0.874393	-0.465816	0.135840	0.468011	-0.883554	-0.017281	0	0	0
14250	0	0	0	0	0	9.768696	1.339501	-0.152606	0.001999	-0.008465	-0.006435	-0.724121	-0.558594	0.182861	0.401545	0.634693	-0.325354	0.574518	97.289874	-82.126901	20.686962	0.128148	0.048390	0.990574	-0.874390	-0.465812	0.135872	0.467996	-0.883560	-0.017381	0	0	0
14251	0	0	0	0	0	9.754146	1.363578	-0.185047	0.000039	0.001754	-0.006881	-0.721191	-0.562988	0.183350	0.401564	0.634694	-0.325349	0.574507	97.285636	-82.124786	20.689911	0.128179	0.048409	0.990569	-0.874396	-0.465789	0.135910	0.467976	-0.883570	-0.017376	0	0	0
14252	0	0	0	0	0	9.713684	1.301438	-0.231431	-0.001303	-0.001968	-0.010862	-0.722168	-0.566895	0.175781	0.401585	0.634712	-0.325340	0.574477	97.296328	-82.120392	20.677826	0.128261	0.048409	0.990558	-0.874397	-0.465766	0.135982	0.467951	-0.883583	-0.017411	0	0	0
14253	0	0	0	0	0	9.761081	1.286282	-0.264116	0.008144	0.005743	-0.000166	-0.720703	-0.566895	0.181152	0.401565	0.634707	-0.325324	0.574506	97.283885	-82.122384	20.693746	0.128215	0.048432	0.990563	-0.874374	-0.465819	0.135952	0.468008	-0.883554	-0.017377	0	0	0
14254	0	0	0	0	0	9.719191	1.310625	-0.208640	0.002695	0.004761	-0.004460	-0.718750	-0.572510	0.174805	0.401572	0.634700	-0.325314	0.574514	97.271258	-82.122064	20.706691	0.128209	0.048463	0.990562	-0.874371	-0.465822	0.135961	0.468014	-0.883551	-0.017348	0	0	0
14255	0	0	0	0	0	9.743048	1.257759	-0.220884	0.003616	0.002607	-0.005682	-0.720703	-0.569092	0.172852	0.401577	0.634704	-0.325300	0.574514	97.266204	-82.120692	20.712533	0.128226	0.048485	0.990559	-0.874362	-0.465832	0.135986	0.468027	-0.883544	-0.017339	0	0	0
14256	0	0	0	0	0	9.731226	1.239333	-0.210453	0.004381	0.004609	-0.002916	-0.709229	-0.566650	0.178711	0.401578	0.634696	-0.325294	0.574526	97.254695	-82.121209	20.724504	0.128208	0.048508	0.990560	-0.874360	-0.465837	0.135981	0.468036	-0.883540	-0.017310	0	0	0
14257	0	0	0	0	0	9.736771	1.248144	-0.188203	0.005440	-0.002579	-0.004687	-0.716309	-0.559326	0.182129	0.401566	0.634716	-0.325288	0.574515	97.272504	-82.120028	20.708320	0.128241	0.048479	0.990557	-0.874343	-0.465864	0.135995	0.468058	-0.883527	-0.017355	0	0	0
14258	0	0	0	0	0	9.756415	1.324424	-0.141877	0.005998	-0.001735	-0.000031	-0.712646	-0.568359	0.182617	0.401534	0.634732	-0.325291	0.574518	97.292116	-82.121654	20.691601	0.128229	0.048432	0.990561	-0.874323	-0.465913	0.135962	0.468100	-0.883504	-0.017398	0	0	0
14259	0	0	0	0	0	9.707231	1.293212	-0.198212	0.005468	0.001859	0.000854	-0.724854	-0.571045	0.179443	0.401513	0.634731	-0.325294	0.574533	97.294627	-82.123943	20.690877	0.128192	0.048416	0.990567	-0.874313	-0.465942	0.135922	0.468128	-0.883490	-0.017399	0	0	0
14260	0	0	0	0	0	9.757022	1.326201	-0.196806	0.006322	-0.006487	0.000973	-0.724121	-0.566406	0.175293	0.401470	0.634759	-0.325309	0.574524	97.334208	-82.125774	20.654047	0.128194	0.048323	0.990571	-0.874293	-0.465992	0.135878	0.468164	-0.883468	-0.017489	0	0	0
14261	0	0	0	0	0	9.741945	1.347779	-0.175025	0.013124	-0.004467	-0.003174	-0.714355	-0.572510	0.183594	0.401426	0.634798	-0.325290	0.574522	97.364977	-82.125311	20.629224	0.128222	0.048270	0.990570	-0.874243	-0.466087	0.135877	0.468251	-0.883421	-0.017563	0	0	0
14262	0	0	0	0	0	9.731286	1.333180	-0.274387	0.012614	0.000003	-0.005729	-0.716797	-0.565430	0.173828	0.401395	0.634829	-0.325254	0.574529	97.377343	-82.123838	20.623069	0.128251	0.048265	0.990567	-0.874188	-0.466183	0.135898	0.468344	-0.883371	-0.017595	0	0	0
14263	0	0	0	0	0	9.745696	1.310189	-0.242185	0.009271	0.004746	-0.003278	-0.717041	-0.567627	0.177002	0.401379	0.634833	-0.325227	0.574551	97.368001	-82.123992	20.636511	0.128237	0.048295	0.990567	-0.874156	-0.466244	0.135898	0.468409	-0.883337	-0.017573	0	0	0
14264	0	0	0	0	0	9.725019	1.323515	-0.241645	0.010771	0.004313	-0.003285	-0.712891	-0.570801	0.182373	0.401359	0.634841	-0.325201	0.574572	97.361752	-82.124287	20.647229	0.128223	0.048317	0.990568	-0.874120	-0.466311	0.135895	0.468479	-0.883300	-0.017557	0	0	0
14265	0	0	0	0	0	9.745034	1.308917	-0.186936	0.013054	0.006757	-0.003968	-0.716553	-0.565430	0.178711	0.401335	0.634849	-0.325157	0.574604	97.345949	-82.124196	20.669381	0.128206	0.048367	0.990567	-0.874069	-0.466406	0.135902	0.468579	-0.883248	-0.017520	0	0	0
14266	0	0	0	0	0	9.739410	1.300792	-0.208690	0.011163	0.005752	-0.003622	-0.718506	-0.573242	0.179199	0.401310	0.634859	-0.325118	0.574633	97.335670	-82.124279	20.685746	0.128191	0.048403	0.990568	-0.874020	-0.466497	0.135903	0.468675	-0.883197	-0.017496	0	0	0
14267	0	0	0	0	0	9.700764	1.284981	-0.165746	0.004911	0.001014	-0.003801	-0.718750	-0.572510	0.176758	0.401303	0.634867	-0.325110	0.574634	97.338886	-82.123861	20.683989	0.128199	0.048402	0.990567	-0.874007	-0.466519	0.135909	0.468697	-0.883186	-0.017504	0	0	0
14268	0	0	0	0	0	9.724264	1.322919	-0.186342	0.002952	-0.006182	-0.002112	-0.719482	-0.560059	0.179199	0.401284	0.634889	-0.325127	0.574612	97.372603	-82.123950	20.650442	0.128226	0.048326	0.990567	-0.874005	-0.466527	0.135898	0.468694	-0.883186	-0.017584	0	0	0
14269	0	0	0	0	0	9.709735	1.346695	-0.218997	0.006755	-0.003296	-0.006243	-0.722656	-0.562988	0.182129	0.401271	0.634917	-0.325114	0.574598	97.393273	-82.121826	20.632131	0.128276	0.048298	0.990562	-0.873980	-0.466565	0.135928	0.468726	-0.883167	-0.017638	0	0	0
14270	0	0	0	0	0	9.762724	1.339913	-0.230235	0.000483	-0.008910	-0.002980	-0.717529	-0.562744	0.186035	0.401256	0.634944	-0.325142	0.574563	97.436822	-82.121396	20.587357	0.128321	0.048200	0.990561	-0.873987	-0.466553	0.135922	0.468700	-0.883179	-0.017742	0	0	0
14271	0	0	0	0	0	9.764938	1.389263	-0.195934	0.006105	0.006206	-0.008255	-0.723389	-0.565430	0.189209	0.401266	0.634946	-0.325105	0.574574	97.417018	-82.118832	20.609530	0.128344	0.048266	0.990555	-0.873963	-0.466584	0.135972	0.468739	-0.883159	-0.017701	0	0	0
14272	0	0	0	0	0	9.733440	1.295027	-0.231866	0.010791	0.005188	-0.006726	-0.724365	-0.561768	0.175293	0.401244	0.634966	-0.325054	0.574596	97.408853	-82.117176	20.624578	0.128358	0.048309	0.990551	-0.873904	-0.466686	0.136003	0.468846	-0.883103	-0.017685	0	0	0
14273	0	0	0	0	0	9.744534	1.312609	-0.187104	0.007400	0.004616	-0.006373	-0.724854	-0.567871	0.187012	0.401242	0.634973	-0.325023	0.574608	97.397341	-82.115562	20.639129	0.128371	0.048352	0.990547	-0.873876	-0.466729	0.136034	0.468894	-0.883078	-0.017661	0	0	0
14274	0	0	0	0	0	9.723817	1.326174	-0.186517	0.010977	0.005470	-0.005174	-0.715332	-0.574707	0.178467	0.401224	0.634983	-0.324985	0.574631	97.386508	-82.114946	20.655211	0.128368	0.048392	0.990545	-0.873832	-0.466807	0.136048	0.468977	-0.883034	-0.017637	0	0	0
14275	0	0	0	0	0	9.758862	1.290400	-0.154239	0.003823	0.003760	-0.007572	-0.724609	-0.566895	0.181641	0.401236	0.634986	-0.324963	0.574631	97.375827	-82.112587	20.666854	0.128396	0.048432	0.990540	-0.873819	-0.466818	0.136091	0.468993	-0.883026	-0.017617	0	0	0
14276	0	0	0	0	0	9.688364	1.270979	-0.155373	-0.007851	0.002476	-0.006508	-0.710205	-0.573730	0.184082	0.401277	0.634970	-0.324979	0.574612	97.365863	-82.110841	20.671392	0.128421	0.048453	0.990535	-0.873860	-0.466732	0.136124	0.468910	-0.883070	-0.017597	0	0	0
14277	0	0	0	0	0	9.726872	1.287853	-0.197921	-0.000537	0.000027	-0.008095	-0.713867	-0.570313	0.178467	0.401298	0.634977	-0.324974	0.574592	97.367724	-82.107910	20.667851	0.128471	0.048463	0.990528	-0.873867	-0.466704	0.136174	0.468883	-0.883085	-0.017608	0	0	0
14278	0	0	0	0	0	9.765379	1.304685	-0.240732	-0.006025	-0.002709	-0.005508	-0.717041	-0.577637	0.179932	0.401317	0.634982	-0.324993	0.574563	97.381647	-82.106195	20.650191	0.128514	0.048434	0.990524	-0.873893	-0.466648	0.136199	0.468823	-0.883116	-0.017645	0	0	0
14279	0	0	0	0	0	9.732327	1.297255	-0.175820	-0.011282	0.000153	0.000726	-0.717285	-0.558105	0.182129	0.401347	0.634952	-0.325048	0.574544	97.381513	-82.108286	20.642449	0.128486	0.048404	0.990529	-0.873962	-0.466530	0.136163	0.468702	-0.883180	-0.017640	0	0	0
14280	0	0	0	0	0	9.747992	1.277720	-0.252876	-0.001154	-0.003443	-0.002427	-0.712646	-0.568359	0.178223	0.401343	0.634961	-0.325068	0.574525	97.402328	-82.108418	20.620119	0.128503	0.048353	0.990530	-0.873974	-0.466510	0.136155	0.468675	-0.883193	-0.017689	0	0	0
14281	0	0	0	0	0	9.733492	1.301224	-0.285253	0.011282	-0.000153	-0.000726	-0.720459	-0.562988	0.176514	0.401305	0.634980	-0.325053	0.574539	97.415613	-82.109660	20.611881	0.128490	0.048327	0.990533	-0.873935	-0.466590	0.136129	0.468752	-0.883152	-0.017718	0	0	0
14282	0	0	0	0	0	9.759107	1.294976	-0.208632	0.002488	0.003602	-0.002572	-0.714844	-0.560303	0.188232	0.401305	0.634973	-0.325052	0.574547	97.408418	-82.110302	20.619087	0.128473	0.048339	0.990534	-0.873937	-0.466590	0.136121	0.468753	-0.883152	-0.017699	0	0	0
14283	0	0	0	0	0	9.717153	1.319494	-0.153204	0.003085	0.006198	-0.004799	-0.723877	-0.568848	0.180908	0.401316	0.634964	-0.325036	0.574560	97.388797	-82.109699	20.639329	0.128466	0.048388	0.990533	-0.873931	-0.466596	0.136137	0.468766	-0.883146	-0.017654	0	0	0
14284	0	0	0	0	0	9.746667	1.274974	-0.143137	0.003597	0.001730	-0.002241	-0.714844	-0.565674	0.178711	0.401301	0.634969	-0.325030	0.574567	97.392132	-82.110358	20.637941	0.128457	0.048381	0.990534	-0.873916	-0.466626	0.136125	0.468795	-0.883130	-0.017660	0	0	0
14285	0	0	0	0	0	9.738336	1.308933	-0.207886	-0.005513	-0.007178	-0.002950	-0.716797	-0.570313	0.183105	0.401311	0.634978	-0.325070	0.574527	97.423412	-82.109818	20.601822	0.128496	0.048303	0.990533	-0.873953	-0.466557	0.136124	0.468715	-0.883171	-0.017736	0	0	0
14286	0	0	0	0	0	9.732082	1.299105	-0.175728	-0.013319	0.000612	-0.007361	-0.713135	-0.561768	0.182373	0.401366	0.634959	-0.325101	0.574492	97.418027	-82.107425	20.598942	0.128537	0.048311	0.990527	-0.874016	-0.466428	0.136167	0.468588	-0.883239	-0.017729	0	0	0
14287	0	0	0	0	0	9.785700	1.294289	-0.240468	-0.003512	0.005334	-0.002543	-0.711670	-0.560059	0.172852	0.401390	0.634936	-0.325112	0.574495	97.399377	-82.108041	20.614388	0.128514	0.048342	0.990529	-0.874044	-0.466377	0.136162	0.468542	-0.883264	-0.017683	0	0	0
14288	0	0	0	0	0	9.715267	1.274447	-0.241554	-0.002980	0.001741	-0.003426	-0.717041	-0.565186	0.180420	0.401406	0.634925	-0.325128	0.574487	97.396573	-82.108068	20.614197	0.128514	0.048341	0.990529	-0.874068	-0.466331	0.136163	0.468496	-0.883289	-0.017676	0	0	0
14289	0	0	0	0	0	9.756530	1.248849	-0.242029	0.012226	-0.001431	-0.005387	-0.723389	-0.568604	0.177002	0.401376	0.634957	-0.325098	0.574489	97.413155	-82.106567	20.603177	0.128547	0.048326	0.990525	-0.874019	-0.466417	0.136183	0.468579	-0.883244	-0.017719	0	0	0
14290	0	0	0	0	0	9.735807	1.262338	-0.241855	0.015476	0.004176	-0.005194	-0.723877	-0.573486	0.183838	0.401344	0.634979	-0.325050	0.574515	97.409805	-82.105783	20.614101	0.128551	0.048355	0.990523	-0.873956	-0.466531	0.136198	0.468696	-0.883182	-0.017713	0	0	0
14291	0	0	0	0	0	9.729558	1.252569	-0.209196	0.017573	0.006339	-0.007427	-0.714600	-0.565674	0.177979	0.401315	0.635003	-0.324983	0.574546	97.396527	-82.103697	20.636321	0.128566	0.048418	0.990518	-0.873879	-0.466664	0.136237	0.468835	-0.883108	-0.017686	0	0	0
14292	0	0	0	0	0	9.726768	1.295284	-0.251278	0.008303	0.001589	-0.004151	-0.715820	-0.566895	0.176270	0.401295	0.635019	-0.324961	0.574555	97.400988	-82.103232	20.635811	0.128574	0.048419	0.990517	-0.873845	-0.466724	0.136244	0.468895	-0.883076	-0.017697	0	0	0
14293	0	0	0	0	0	9.720524	1.285404	-0.218917	0.009618	0.000873	-0.005709	-0.719971	-0.567383	0.178955	0.401279	0.635039	-0.324933	0.574559	97.406459	-82.101720	20.634499	0.128599	0.048426	0.990514	-0.873808	-0.466787	0.136268	0.468958	-0.883043	-0.017714	0	0	0
14294	0	0	0	0	0	9.717115	1.326215	-0.206857	0.002053	-0.003153	-0.004329	-0.719482	-0.565918	0.177246	0.401275	0.635054	-0.324942	0.574541	97.425690	-82.100863	20.614738	0.128630	0.048387	0.990512	-0.873810	-0.466782	0.136277	0.468947	-0.883048	-0.017761	0	0	0
14295	0	0	0	0	0	9.758353	1.300827	-0.207487	0.005856	-0.000266	-0.008460	-0.716064	-0.572754	0.180176	0.401276	0.635075	-0.324919	0.574531	97.432198	-82.097703	20.610205	0.128685	0.048396	0.990504	-0.873786	-0.466810	0.136329	0.468975	-0.883032	-0.017784	0	0	0
14296	0	0	0	0	0	9.738206	1.316341	-0.261967	0.016010	0.000582	-0.006074	-0.721191	-0.567139	0.169678	0.401238	0.635110	-0.324873	0.574544	97.443553	-82.096083	20.606767	0.128714	0.048398	0.990500	-0.873718	-0.466931	0.136353	0.469095	-0.882968	-0.017815	0	0	0
14297	0	0	0	0	0	9.737508	1.315135	-0.207520	0.009433	0.000590	-0.007260	-0.722412	-0.567383	0.176514	0.401226	0.635134	-0.324841	0.574544	97.449237	-82.093668	20.605133	0.128754	0.048409	0.990494	-0.873679	-0.466992	0.136393	0.469156	-0.882935	-0.017834	0	0	0
14298	0	0	0	0	0	9.740749	1.275621	-0.219848	0.005671	-0.000550	-0.010010	-0.718506	-0.568115	0.177490	0.401238	0.635152	-0.324823	0.574526	97.455087	-82.089893	20.599697	0.128820	0.048420	0.990485	-0.873667	-0.466996	0.136456	0.469160	-0.882933	-0.017856	0	0	0
14299	0	0	0	0	0	9.746225	1.284820	-0.197685	0.011695	0.002164	-0.004502	-0.714600	-0.570801	0.178711	0.401213	0.635171	-0.324790	0.574540	97.457104	-82.089162	20.603074	0.128829	0.048432	0.990483	-0.873621	-0.467078	0.136468	0.469243	-0.882889	-0.017862	0	0	0
14300	0	0	0	0	0	9.708186	1.270960	-0.209373	0.007009	0.003177	-0.006033	-0.714600	-0.563477	0.179932	0.401208	0.635181	-0.324765	0.574547	97.452607	-82.087748	20.610372	0.128846	0.048457	0.990480	-0.873596	-0.467119	0.136493	0.469286	-0.882866	-0.017855	0	0	0
14301	0	0	0	0	0	9.731618	1.309094	-0.229327	0.011552	0.007197	-0.003959	-0.719971	-0.566406	0.180908	0.401190	0.635185	-0.324725	0.574579	97.434258	-82.087699	20.634228	0.128826	0.048511	0.990480	-0.873551	-0.467200	0.136500	0.469374	-0.882820	-0.017811	0	0	0
14302	0	0	0	0	0	9.737754	1.319794	-0.261389	0.011695	0.002164	-0.004501	-0.722656	-0.562012	0.178223	0.401162	0.635205	-0.324692	0.574594	97.438022	-82.087132	20.636232	0.128834	0.048518	0.990479	-0.873503	-0.467288	0.136509	0.469462	-0.882773	-0.017821	0	0	0
14303	0	0	0	0	0	9.737047	1.318650	-0.206868	0.017533	0.001023	-0.009518	-0.715820	-0.564209	0.176758	0.401131	0.635248	-0.324629	0.574604	97.445372	-82.083467	20.637601	0.128892	0.048544	0.990470	-0.873423	-0.467419	0.136569	0.469594	-0.882702	-0.017847	0	0	0
14304	0	0	0	0	0	9.792200	1.361227	-0.183177	0.007358	-0.000701	-0.008464	-0.718262	-0.569824	0.175781	0.401128	0.635271	-0.324606	0.574594	97.455134	-82.080530	20.630204	0.128946	0.048545	0.990463	-0.873397	-0.467454	0.136616	0.469628	-0.882683	-0.017877	0	0	0
14305	0	0	0	0	0	9.727880	1.352144	-0.217104	0.007749	0.000738	-0.008802	-0.726318	-0.571533	0.179443	0.401126	0.635293	-0.324574	0.574589	97.458418	-82.077250	20.630018	0.128999	0.048565	0.990455	-0.873364	-0.467499	0.136672	0.469674	-0.882658	-0.017892	0	0	0
14306	0	0	0	0	0	9.727138	1.351241	-0.162668	0.000390	-0.002135	-0.009312	-0.722656	-0.569824	0.182373	0.401145	0.635308	-0.324571	0.574560	97.469417	-82.073655	20.617339	0.129068	0.048558	0.990446	-0.873370	-0.467472	0.136730	0.469646	-0.882673	-0.017927	0	0	0
14307	0	0	0	0	0	9.727028	1.352028	-0.162690	0.000041	0.001743	-0.006881	-0.715820	-0.560059	0.185059	0.401163	0.635309	-0.324566	0.574550	97.465207	-82.071541	20.620263	0.129100	0.048577	0.990441	-0.873376	-0.467450	0.136767	0.469626	-0.882684	-0.017921	0	0	0
14308	0	0	0	0	0	9.738707	1.371313	-0.172411	-0.011408	0.006051	-0.002178	-0.721191	-0.565186	0.182617	0.401205	0.635271	-0.324596	0.574546	97.441917	-82.072574	20.636763	0.129069	0.048608	0.990444	-0.873434	-0.467344	0.136757	0.469525	-0.882738	-0.017863	0	0	0
14309	0	0	0	0	0	9.698543	1.308335	-0.218070	-0.010873	0.002457	-0.003058	-0.707520	-0.570068	0.177002	0.401248	0.635242	-0.324632	0.574527	97.430588	-82.072685	20.640560	0.129064	0.048616	0.990444	-0.873496	-0.467227	0.136759	0.469411	-0.882800	-0.017836	0	0	0
14310	0	0	0	0	0	9.750968	1.299772	-0.173610	-0.007091	0.004471	-0.003747	-0.718262	-0.563232	0.180908	0.401281	0.635217	-0.324650	0.574521	97.414612	-82.072640	20.651736	0.129055	0.048642	0.990444	-0.873536	-0.467151	0.136764	0.469340	-0.882838	-0.017798	0	0	0
14311	0	0	0	0	0	9.728117	1.264003	-0.207456	-0.004317	0.001579	0.001570	-0.714844	-0.566650	0.174561	0.401289	0.635196	-0.324684	0.574520	97.413076	-82.075315	20.649438	0.129014	0.048620	0.990450	-0.873573	-0.467095	0.136719	0.469282	-0.882869	-0.017788	0	0	0
14312	0	0	0	0	0	9.713601	1.287437	-0.239663	0.000556	-0.002722	-0.004321	-0.717041	-0.566650	0.186035	0.401290	0.635206	-0.324696	0.574501	97.429731	-82.074511	20.631452	0.129042	0.048585	0.990448	-0.873582	-0.467077	0.136728	0.469258	-0.882881	-0.017830	0	0	0
14313	0	0	0	0	0	9.785481	1.354954	-0.149614	0.012004	-0.003455	-0.000050	-0.725342	-0.557861	0.177979	0.401243	0.635235	-0.324688	0.574507	97.457240	-82.075892	20.609270	0.129039	0.048526	0.990452	-0.873540	-0.467164	0.136695	0.469336	-0.882838	-0.017893	0	0	0
14314	0	0	0	0	0	9.759837	1.361383	-0.226630	0.000165	-0.004162	-0.003982	-0.717285	-0.567139	0.187988	0.401239	0.635250	-0.324703	0.574485	97.480641	-82.075228	20.584797	0.129070	0.048475	0.990450	-0.873547	-0.467151	0.136699	0.469316	-0.882848	-0.017950	0	0	0
14315	0	0	0	0	0	9.703896	1.318299	-0.196219	-0.009413	-0.003293	-0.005156	-0.715820	-0.576904	0.181152	0.401274	0.635244	-0.324740	0.574446	97.492487	-82.073718	20.566041	0.129110	0.048442	0.990446	-0.873599	-0.467046	0.136721	0.469207	-0.882905	-0.017981	0	0	0
14316	0	0	0	0	0	9.752944	1.349951	-0.139893	-0.002035	0.004026	0.000887	-0.716797	-0.566162	0.175781	0.401271	0.635227	-0.324754	0.574458	97.485036	-82.076179	20.572534	0.129065	0.048442	0.990452	-0.873613	-0.467032	0.136682	0.469194	-0.882912	-0.017958	0	0	0
14317	0	0	0	0	0	9.758514	1.358407	-0.117281	-0.017286	0.001872	0.000747	-0.719971	-0.563965	0.181641	0.401323	0.635181	-0.324822	0.574435	97.474459	-82.078409	20.571862	0.129029	0.048427	0.990458	-0.873710	-0.466861	0.136647	0.469023	-0.883004	-0.017928	0	0	0
14318	0	0	0	0	0	9.750798	1.301072	-0.173392	-0.018581	0.003459	-0.001135	-0.720947	-0.555176	0.173584	0.401386	0.635130	-0.324887	0.574411	97.456732	-82.079885	20.577591	0.129001	0.048431	0.990461	-0.873811	-0.466676	0.136627	0.468841	-0.883101	-0.017882	0	0	0
14319	0	0	0	0	0	9.689387	1.341848	-0.227153	-0.007173	-0.002591	0.001041	-0.722412	-0.565918	0.178467	0.401397	0.635116	-0.324936	0.574391	97.470328	-82.081949	20.558363	0.128984	0.048375	0.990466	-0.873861	-0.466594	0.136587	0.468753	-0.883148	-0.017910	0	0	0
14320	0	0	0	0	0	9.742460	1.334802	-0.237921	-0.006042	-0.003589	-0.002068	-0.719971	-0.562256	0.174561	0.401416	0.635108	-0.324980	0.574362	97.487023	-82.082517	20.535730	0.128993	0.048320	0.990467	-0.873910	-0.466507	0.136572	0.468659	-0.883197	-0.017949	0	0	0
14321	0	0	0	0	0	9.745816	1.294681	-0.250454	-0.004541	-0.004021	-0.002074	-0.714355	-0.562744	0.181641	0.401425	0.635108	-0.325014	0.574335	97.506307	-82.082703	20.512282	0.129010	0.048266	0.990468	-0.873944	-0.466447	0.136563	0.468592	-0.883232	-0.017994	0	0	0
14322	0	0	0	0	0	9.701642	1.270177	-0.230293	-0.003041	-0.004453	-0.002081	-0.720215	-0.563721	0.177246	0.401429	0.635113	-0.325047	0.574309	97.529303	-82.083069	20.485856	0.129027	0.048205	0.990469	-0.873972	-0.466398	0.136550	0.468535	-0.883260	-0.018048	0	0	0
14323	0	0	0	0	0	9.751320	1.303487	-0.228782	0.013749	0.002587	0.000145	-0.722656	-0.560547	0.170410	0.401385	0.635127	-0.325023	0.574338	97.533276	-82.085010	20.488446	0.128993	0.048199	0.990473	-0.873923	-0.466501	0.136515	0.468636	-0.883207	-0.018053	0	0	0
14324	0	0	0	0	0	9.727251	1.356758	-0.216478	0.004111	-0.002735	0.000318	-0.712891	-0.557373	0.178223	0.401368	0.635132	-0.325046	0.574331	97.553016	-82.086987	20.468235	0.128978	0.048141	0.990478	-0.873930	-0.466498	0.136475	0.468626	-0.883211	-0.018096	0	0	0
14325	0	0	0	0	0	9.738347	1.373856	-0.172510	-0.003431	-0.005893	-0.001742	-0.721191	-0.565674	0.179443	0.401370	0.635140	-0.325082	0.574301	97.580778	-82.087217	20.436870	0.129001	0.048069	0.990479	-0.873959	-0.466448	0.136462	0.468566	-0.883242	-0.018161	0	0	0
14326	0	0	0	0	0	9.723177	1.395649	-0.150485	-0.019586	-0.005020	-0.004101	-0.712891	-0.569336	0.176514	0.401430	0.635116	-0.325156	0.574243	97.595777	-82.086385	20.409113	0.129037	0.048012	0.990477	-0.874060	-0.466255	0.136472	0.468367	-0.883346	-0.018199	0	0	0
14327	0	0	0	0	0	9.738842	1.376430	-0.227566	-0.024087	-0.003725	-0.004079	-0.726563	-0.567383	0.181885	0.401508	0.635080	-0.325240	0.574181	97.601572	-82.085449	20.387978	0.129070	0.047970	0.990475	-0.874183	-0.466021	0.136486	0.468129	-0.883472	-0.018215	0	0	0
14328	0	0	0	0	0	9.730450	1.317722	-0.229503	-0.029697	-0.000559	-0.004389	-0.714111	-0.568115	0.172852	0.401608	0.635024	-0.325333	0.574120	97.592383	-82.084720	20.378886	0.129090	0.047954	0.990473	-0.874330	-0.465740	0.136501	0.467849	-0.883621	-0.018195	0	0	0
14329	0	0	0	0	0	9.733794	1.277855	-0.241400	-0.019339	0.001452	-0.003893	-0.719238	-0.567383	0.180664	0.401678	0.634982	-0.325392	0.574083	97.579848	-82.084283	20.379003	0.129097	0.047957	0.990472	-0.874431	-0.465548	0.136513	0.467659	-0.883722	-0.018166	0	0	0
14330	0	0	0	0	0	9.737124	1.238116	-0.253392	-0.011817	0.000169	-0.007367	-0.718750	-0.565918	0.182617	0.401733	0.634965	-0.325424	0.574047	97.575896	-82.081910	20.374690	0.129139	0.047961	0.990466	-0.874493	-0.465420	0.136555	0.467532	-0.883790	-0.018162	0	0	0
14331	0	0	0	0	0	9.743240	1.156228	-0.223494	-0.004910	-0.004586	-0.005177	-0.720703	-0.564453	0.183350	0.401752	0.634971	-0.325451	0.574012	97.595586	-82.080286	20.350619	0.129185	0.047917	0.990462	-0.874524	-0.465355	0.136576	0.467460	-0.883826	-0.018212	0	0	0
14332	0	0	0	0	0	9.743185	1.156617	-0.223872	0.003741	-0.003299	-0.002786	-0.715332	-0.568359	0.184570	0.401732	0.634991	-0.325454	0.574001	97.618876	-82.080261	20.328899	0.129204	0.047868	0.990462	-0.874510	-0.465382	0.136569	0.467481	-0.883814	-0.018268	0	0	0
14333	0	0	0	0	0	9.725232	1.220389	-0.244308	0.019505	-0.005610	-0.000094	-0.717773	-0.567383	0.182617	0.401657	0.635041	-0.325429	0.574013	97.659505	-82.081443	20.297811	0.129210	0.047791	0.990465	-0.874434	-0.465535	0.136536	0.467622	-0.883738	-0.018362	0	0	0
14334	0	0	0	0	0	9.721802	1.260778	-0.232820	0.002572	-0.007619	-0.001772	-0.714111	-0.560303	0.179199	0.401629	0.635071	-0.325446	0.573990	97.700713	-82.081567	20.257681	0.129242	0.047700	0.990465	-0.874424	-0.465559	0.136521	0.467632	-0.883731	-0.018460	0	0	0
14335	0	0	0	0	0	9.712813	1.292661	-0.243456	0.011613	-0.004892	0.000280	-0.723877	-0.562012	0.182617	0.401579	0.635102	-0.325443	0.573991	97.734115	-82.083011	20.229324	0.129242	0.047627	0.990469	-0.874385	-0.465642	0.136485	0.467704	-0.883691	-0.018536	0	0	0
14336	0	0	0	0	0	9.768052	1.334358	-0.220059	0.004111	-0.002734	0.000316	-0.712646	-0.566406	0.184326	0.401553	0.635114	-0.325457	0.573989	97.756293	-82.084866	20.208340	0.129229	0.047569	0.990473	-0.874379	-0.465666	0.136446	0.467720	-0.883681	-0.018585	0	0	0
14337	0	0	0	0	0	9.762479	1.325966	-0.242105	-0.005017	0.005762	-0.002536	-0.712646	-0.572021	0.181885	0.401581	0.635086	-0.325472	0.573991	97.735112	-82.085531	20.225472	0.129204	0.047603	0.990475	-0.874414	-0.465601	0.136442	0.467661	-0.883714	-0.018533	0	0	0
14338	0	0	0	0	0	9.718304	1.301749	-0.220908	0.001599	0.007507	-0.008231	-0.715088	-0.574463	0.174805	0.401599	0.635082	-0.325439	0.574002	97.710497	-82.083078	20.251343	0.129223	0.047676	0.990469	-0.874399	-0.465614	0.136492	0.467684	-0.883703	-0.018480	0	0	0
14339	0	0	0	0	0	9.744439	1.298151	-0.198606	0.000781	-0.000689	-0.009650	-0.709961	-0.571289	0.176025	0.401620	0.635096	-0.325428	0.573979	97.715043	-82.079207	20.245853	0.129290	0.047687	0.990460	-0.874398	-0.465597	0.136557	0.467667	-0.883711	-0.018500	0	0	0
14340	0	0	0	0	0	9.727705	1.273093	-0.265147	0.010747	0.003453	0.000157	-0.717285	-0.564941	0.177734	0.401587	0.635102	-0.325411	0.574005	97.714577	-82.081247	20.251094	0.129253	0.047687	0.990464	-0.874364	-0.465672	0.136522	0.467742	-0.883672	-0.018494	0	0	0
14341	0	0	0	0	0	9.715943	1.254569	-0.255142	0.004688	-0.004580	-0.007444	-0.719482	-0.568359	0.179688	0.401581	0.635131	-0.325403	0.573980	97.738455	-82.078329	20.228347	0.129319	0.047653	0.990457	-0.874347	-0.465690	0.136564	0.467754	-0.883664	-0.018558	0	0	0
14342	0	0	0	0	0	9.726979	1.272103	-0.211282	0.019916	-0.003294	-0.003869	-0.714355	-0.566406	0.184326	0.401518	0.635182	-0.325361	0.573992	97.769037	-82.077705	20.207700	0.129346	0.047610	0.990456	-0.874264	-0.465847	0.136565	0.467902	-0.883584	-0.018632	0	0	0
14343	0	0	0	0	0	9.723514	1.312704	-0.199658	0.026494	-0.003296	-0.002684	-0.714355	-0.567627	0.180664	0.401432	0.635244	-0.325303	0.574017	97.802801	-82.077586	20.187586	0.129365	0.047565	0.990456	-0.874151	-0.466060	0.136556	0.468107	-0.883474	-0.018713	0	0	0
14344	0	0	0	0	0	9.740742	1.340337	-0.187977	0.021661	0.002747	-0.003670	-0.717529	-0.564209	0.178711	0.401368	0.635284	-0.325239	0.574054	97.811221	-82.077433	20.191342	0.129364	0.047575	0.990455	-0.874052	-0.466247	0.136556	0.468294	-0.883374	-0.018733	0	0	0
14345	0	0	0	0	0	9.715050	1.346918	-0.264356	0.016049	0.005912	-0.003981	-0.724609	-0.571045	0.184570	0.401334	0.635301	-0.325188	0.574088	97.800715	-82.077293	20.209883	0.129351	0.047617	0.990455	-0.873986	-0.466368	0.136562	0.468419	-0.883308	-0.018708	0	0	0
14346	0	0	0	0	0	9.728939	1.322229	-0.177296	0.009082	0.004474	-0.004827	-0.718994	-0.563232	0.180908	0.401318	0.635310	-0.325157	0.574106	97.793389	-82.076722	20.221602	0.129350	0.047647	0.990454	-0.873949	-0.466433	0.136574	0.468488	-0.883272	-0.018692	0	0	0
14347	0	0	0	0	0	9.744035	1.301071	-0.199302	0.014733	0.006627	-0.002423	-0.714111	-0.564209	0.181885	0.401285	0.635319	-0.325113	0.574144	97.780083	-82.077521	20.242208	0.129320	0.047689	0.990455	-0.873892	-0.466543	0.136564	0.468603	-0.883212	-0.018659	0	0	0
14348	0	0	0	0	0	9.723310	1.314325	-0.198918	0.011304	0.000732	-0.004163	-0.711182	-0.575195	0.176758	0.401254	0.635343	-0.325085	0.574155	97.789876	-82.077031	20.238056	0.129332	0.047682	0.990454	-0.873845	-0.466630	0.136570	0.468688	-0.883166	-0.018683	0	0	0
14349	0	0	0	0	0	9.743950	1.301703	-0.199330	0.007134	-0.002724	-0.003134	-0.713135	-0.571533	0.179688	0.401232	0.635365	-0.325080	0.574149	97.809961	-82.076699	20.220553	0.129352	0.047645	0.990453	-0.873822	-0.466673	0.136569	0.468724	-0.883146	-0.018732	0	0	0
14350	0	0	0	0	0	9.712105	1.297909	-0.243798	0.010915	-0.000707	-0.003824	-0.723389	-0.574951	0.181152	0.401200	0.635392	-0.325056	0.574155	97.825010	-82.076120	20.210697	0.129369	0.047626	0.990452	-0.873778	-0.466754	0.136574	0.468802	-0.883104	-0.018769	0	0	0
14351	0	0	0	0	0	9.729345	1.325376	-0.232226	0.016694	-0.004458	0.001480	-0.717529	-0.566406	0.177490	0.401132	0.635431	-0.325042	0.574169	97.860239	-82.078270	20.183435	0.129357	0.047552	0.990457	-0.873717	-0.466883	0.136525	0.468920	-0.883040	-0.018848	0	0	0
14352	0	0	0	0	0	9.741074	1.344031	-0.242694	0.013935	0.002877	0.001695	-0.722900	-0.566406	0.185059	0.401082	0.635442	-0.325022	0.574201	97.865139	-82.081256	20.185168	0.129307	0.047538	0.990464	-0.873669	-0.466987	0.136473	0.469022	-0.882985	-0.018853	0	0	0
14353	0	0	0	0	0	9.714248	1.346590	-0.209860	0.008136	0.005757	-0.000170	-0.718750	-0.560303	0.181152	0.401062	0.635437	-0.325007	0.574230	97.852868	-82.083269	20.200912	0.129261	0.047561	0.990469	-0.873646	-0.467040	0.136442	0.469078	-0.882956	-0.018819	0	0	0
14354	0	0	0	0	0	9.767343	1.339517	-0.220198	-0.000000	-0.000000	0.000000	-0.717773	-0.567139	0.188232	0.401053	0.635434	-0.325026	0.574229	97.861599	-82.085135	20.191295	0.129239	0.047528	0.990474	-0.873657	-0.467029	0.136407	0.469064	-0.882964	-0.018835	0	0	0
14355	0	0	0	0	0	9.723242	1.314761	-0.199386	-0.000147	0.005034	0.000540	-0.716309	-0.565430	0.175293	0.401056	0.635413	-0.325037	0.574243	97.847925	-82.087493	20.203664	0.129191	0.047542	0.990479	-0.873673	-0.467009	0.136371	0.469046	-0.882973	-0.018797	0	0	0
14356	0	0	0	0	0	9.723299	1.314422	-0.198807	0.002482	0.007179	0.006397	-0.718018	-0.564941	0.182861	0.401033	0.635384	-0.325054	0.574282	97.832257	-82.093464	20.220152	0.129080	0.047544	0.990494	-0.873681	-0.467024	0.136274	0.469063	-0.882966	-0.018745	0	0	0
14357	0	0	0	0	0	9.711654	1.295143	-0.188217	0.005651	0.002154	0.002405	-0.716064	-0.559326	0.180664	0.401008	0.635379	-0.325061	0.574300	97.834708	-82.096656	20.219596	0.129029	0.047523	0.990501	-0.873672	-0.467056	0.136219	0.469093	-0.882950	-0.018744	0	0	0
14358	0	0	0	0	0	9.725480	1.362939	-0.164216	-0.001723	-0.005171	-0.003635	-0.711914	-0.565918	0.183105	0.401007	0.635393	-0.325084	0.574273	97.861441	-82.096027	20.190749	0.129063	0.047462	0.990500	-0.873687	-0.467028	0.136221	0.469056	-0.882968	-0.018809	0	0	0
14359	0	0	0	0	0	9.782561	1.317566	-0.241759	-0.008653	-0.001291	-0.002392	-0.720947	-0.560791	0.166748	0.401035	0.635378	-0.325124	0.574247	97.867086	-82.096226	20.178694	0.129070	0.047434	0.990500	-0.873740	-0.466931	0.136216	0.468956	-0.883021	-0.018822	0	0	0
14360	0	0	0	0	0	9.697663	1.320611	-0.275403	-0.006783	-0.001154	0.000703	-0.717285	-0.564697	0.180420	0.401052	0.635358	-0.325173	0.574229	97.874921	-82.098429	20.164616	0.129046	0.047389	0.990506	-0.873795	-0.466839	0.136175	0.468860	-0.883072	-0.018835	0	0	0
14361	0	0	0	0	0	9.723301	1.314365	-0.199087	0.000332	-0.004749	0.001011	-0.719238	-0.565674	0.173584	0.401037	0.635365	-0.325205	0.574215	97.901788	-82.100287	20.136332	0.129039	0.047314	0.990510	-0.873810	-0.466823	0.136135	0.468834	-0.883084	-0.018895	0	0	0
14362	0	0	0	0	0	9.726721	1.274012	-0.211653	-0.000964	-0.003163	-0.000873	-0.717773	-0.563477	0.182373	0.401034	0.635367	-0.325235	0.574198	97.920849	-82.101406	20.114689	0.129038	0.047259	0.990513	-0.873833	-0.466788	0.136109	0.468791	-0.883106	-0.018937	0	0	0
14363	0	0	0	0	0	9.738442	1.292764	-0.221896	0.000759	0.002008	0.002762	-0.715332	-0.565186	0.182861	0.401023	0.635353	-0.325257	0.574208	97.921333	-82.104789	20.113289	0.128985	0.047236	0.990521	-0.873848	-0.466776	0.136051	0.468778	-0.883113	-0.018930	0	0	0
14364	0	0	0	0	0	9.739089	1.294283	-0.276105	0.000038	0.005318	0.002090	-0.722168	-0.567383	0.177246	0.401016	0.635332	-0.325270	0.574229	97.909799	-82.108174	20.124404	0.128921	0.047241	0.990529	-0.873859	-0.466771	0.135997	0.468775	-0.883116	-0.018895	0	0	0
14365	0	0	0	0	0	9.726779	1.273676	-0.210983	-0.002797	0.002018	-0.001877	-0.716553	-0.557129	0.182617	0.401029	0.635318	-0.325288	0.574225	97.905563	-82.108925	20.125712	0.128907	0.047239	0.990531	-0.873885	-0.466726	0.135985	0.468731	-0.883139	-0.018883	0	0	0
14366	0	0	0	0	0	9.764759	1.287966	-0.198776	-0.014843	0.003726	0.005053	-0.714600	-0.562500	0.187744	0.401062	0.635264	-0.325361	0.574220	97.892658	-82.113971	20.128808	0.128823	0.047216	0.990543	-0.873976	-0.466579	0.135903	0.468583	-0.883219	-0.018840	0	0	0
14367	0	0	0	0	0	9.717880	1.305048	-0.220114	-0.008820	0.002872	0.001588	-0.712646	-0.564941	0.181152	0.401086	0.635230	-0.325405	0.574216	97.883436	-82.116756	20.131666	0.128775	0.047206	0.990550	-0.874035	-0.466482	0.135859	0.468487	-0.883270	-0.018812	0	0	0
14368	0	0	0	0	0	9.753122	1.268668	-0.187733	-0.012211	0.002295	0.001940	-0.713379	-0.565430	0.175049	0.401110	0.635196	-0.325456	0.574208	97.878016	-82.119752	20.130139	0.128728	0.047185	0.990557	-0.874098	-0.466378	0.135809	0.468382	-0.883326	-0.018792	0	0	0
14369	0	0	0	0	0	9.761449	1.327625	-0.185436	-0.002632	0.001431	0.003114	-0.715820	-0.571045	0.178223	0.401108	0.635177	-0.325490	0.574212	97.879112	-82.123289	20.126160	0.128674	0.047155	0.990565	-0.874129	-0.466337	0.135748	0.468338	-0.883349	-0.018786	0	0	0
14370	0	0	0	0	0	9.717968	1.304490	-0.219496	-0.000780	-0.002879	0.000677	-0.713867	-0.559570	0.175537	0.401100	0.635176	-0.325522	0.574200	97.898345	-82.125205	20.104761	0.128660	0.047095	0.990570	-0.874151	-0.466309	0.135709	0.468303	-0.883368	-0.018827	0	0	0
14371	0	0	0	0	0	9.742068	1.251242	-0.232028	0.003207	0.000293	-0.001902	-0.716553	-0.570313	0.183105	0.401092	0.635180	-0.325526	0.574200	97.904610	-82.125806	20.098941	0.128655	0.047078	0.990571	-0.874148	-0.466317	0.135697	0.468309	-0.883364	-0.018841	0	0	0
14372	0	0	0	0	0	9.759331	1.278599	-0.220269	0.005408	-0.004320	0.002203	-0.719482	-0.566406	0.184082	0.401054	0.635195	-0.325546	0.574197	97.934951	-82.128498	20.070365	0.128635	0.046998	0.990578	-0.874139	-0.466351	0.135641	0.468332	-0.883350	-0.018906	0	0	0
14373	0	0	0	0	0	9.712380	1.296114	-0.242356	0.002837	-0.000275	-0.005003	-0.714355	-0.564697	0.177002	0.401055	0.635204	-0.325542	0.574189	97.941566	-82.127294	20.063978	0.128660	0.046991	0.990575	-0.874134	-0.466355	0.135659	0.468334	-0.883349	-0.018925	0	0	0
14374	0	0	0	0	0	9.744749	1.302237	-0.252789	0.001501	-0.000431	-0.000006	-0.715820	-0.564209	0.178711	0.401042	0.635205	-0.325557	0.574188	97.952683	-82.129039	20.052700	0.128641	0.046955	0.990579	-0.874139	-0.466355	0.135625	0.468330	-0.883350	-0.018947	0	0	0
14375	0	0	0	0	0	9.723442	1.313434	-0.198384	-0.000243	-0.006473	-0.000202	-0.722656	-0.564453	0.181396	0.401029	0.635218	-0.325590	0.574164	97.985729	-82.130067	20.017848	0.128653	0.046871	0.990581	-0.874155	-0.466334	0.135597	0.468297	-0.883366	-0.019022	0	0	0
14376	0	0	0	0	0	9.773792	1.255657	-0.189175	-0.010563	-0.003170	0.001393	-0.713379	-0.564209	0.175781	0.401047	0.635199	-0.325652	0.574138	98.001647	-82.132447	19.994450	0.128633	0.046804	0.990587	-0.874220	-0.466224	0.135551	0.468180	-0.883428	-0.019054	0	0	0
14377	0	0	0	0	0	9.732411	1.281651	-0.188536	-0.006519	0.006191	-0.002535	-0.718018	-0.562012	0.184326	0.401081	0.635167	-0.325670	0.574139	97.977769	-82.133158	20.013433	0.128606	0.046843	0.990589	-0.874262	-0.466146	0.135547	0.468109	-0.883467	-0.018996	0	0	0
14378	0	0	0	0	0	9.719159	1.215917	-0.266919	-0.003186	0.000579	-0.001538	-0.709229	-0.563232	0.178467	0.401089	0.635158	-0.325693	0.574131	97.981115	-82.134137	20.007208	0.128595	0.046823	0.990591	-0.874288	-0.466104	0.135529	0.468064	-0.883490	-0.019002	0	0	0
14379	0	0	0	0	0	9.749636	1.309392	-0.176127	0.001316	-0.000715	-0.001557	-0.714355	-0.568848	0.174805	0.401084	0.635159	-0.325705	0.574126	97.990649	-82.134853	19.996993	0.128592	0.046796	0.990593	-0.874295	-0.466095	0.135513	0.468052	-0.883496	-0.019023	0	0	0
14380	0	0	0	0	0	9.763254	1.240869	-0.287223	0.001744	0.006042	0.000196	-0.715820	-0.564697	0.178467	0.401083	0.635140	-0.325710	0.574145	97.974674	-82.137189	20.012736	0.128541	0.046817	0.990598	-0.874302	-0.466091	0.135479	0.468052	-0.883497	-0.018979	0	0	0
14381	0	0	0	0	0	9.710159	1.248077	-0.276175	0.007767	0.005188	-0.003269	-0.714111	-0.564941	0.175537	0.401072	0.635141	-0.325686	0.574165	97.962665	-82.137403	20.028001	0.128525	0.046850	0.990599	-0.874277	-0.466139	0.135479	0.468104	-0.883470	-0.018950	0	0	0
14382	0	0	0	0	0	9.726786	1.273919	-0.209210	0.012844	0.005618	-0.002076	-0.714844	-0.565430	0.183105	0.401042	0.635148	-0.325654	0.574197	97.953361	-82.138479	20.043285	0.128495	0.046878	0.990602	-0.874231	-0.466230	0.135464	0.468198	-0.883421	-0.018926	0	0	0
14383	0	0	0	0	0	9.775802	1.305675	-0.152867	0.004523	-0.000422	-0.003459	-0.721924	-0.568115	0.179688	0.401033	0.635158	-0.325650	0.574194	97.962440	-82.138139	20.035385	0.128507	0.046863	0.990601	-0.874220	-0.466249	0.135466	0.468215	-0.883411	-0.018948	0	0	0
14384	0	0	0	0	0	9.735598	1.335529	-0.261759	0.005839	-0.001138	-0.005015	-0.715820	-0.567627	0.175293	0.401019	0.635178	-0.325638	0.574188	97.976294	-82.136977	20.024006	0.128535	0.046844	0.990598	-0.874197	-0.466288	0.135482	0.468250	-0.883392	-0.018984	0	0	0
14385	0	0	0	0	0	9.705934	1.288047	-0.209357	0.004875	-0.004301	-0.005888	-0.713379	-0.562012	0.186523	0.401009	0.635205	-0.325634	0.574168	98.000104	-82.134949	20.001440	0.128587	0.046805	0.990593	-0.874181	-0.466309	0.135509	0.468265	-0.883383	-0.019045	0	0	0
14386	0	0	0	0	0	9.739756	1.341565	-0.131481	0.000315	-0.009196	-0.004520	-0.717773	-0.566650	0.179688	0.400997	0.635237	-0.325655	0.574130	98.044259	-82.133402	19.956346	0.128649	0.046713	0.990589	-0.874184	-0.466301	0.135520	0.468243	-0.883392	-0.019153	0	0	0
14387	0	0	0	0	0	9.747782	1.264753	-0.265728	0.013138	-0.004448	-0.003157	-0.714111	-0.565918	0.179443	0.400953	0.635275	-0.325635	0.574128	98.074969	-82.132908	19.931592	0.128677	0.046661	0.990588	-0.874134	-0.466396	0.135519	0.468330	-0.883345	-0.019227	0	0	0
14388	0	0	0	0	0	9.720852	1.267913	-0.233713	0.008082	-0.004008	-0.007790	-0.708740	-0.568115	0.178955	0.400937	0.635312	-0.325615	0.574111	98.099772	-82.129936	19.910146	0.128743	0.046630	0.990581	-0.874099	-0.466449	0.135561	0.468377	-0.883318	-0.019293	0	0	0
14389	0	0	0	0	0	9.785589	1.280151	-0.254581	0.015845	0.004758	-0.002090	-0.718506	-0.559082	0.176514	0.400896	0.635328	-0.325573	0.574145	98.094867	-82.130788	19.922913	0.128718	0.046654	0.990583	-0.874037	-0.466569	0.135548	0.468499	-0.883254	-0.019279	0	0	0
