// General information: 
//  MT Manager version: 2022.2.0 
//  XDA version: 2022.2.0 build 7381 rev 124627 built on 2023-07-19
// Device information: 
//  DeviceId: 10B426F2
//  ProductCode: MTW2-3A7G6
//  Firmware Version: 4.14.0
//  Hardware Version: 3.0.0
// Device settings: 
//  Filter Profile: human(46.1)
//  Option Flags: Orientation Smoother Disabled, Position/Velocity Smoother Disabled, Continuous Zero Rotation Update Disabled, AHS Disabled, ICC Disabled
// Coordinate system: ENU
PacketCounter	SampleTimeFine	Year	Month	Day	Second	Acc_X	Acc_Y	Acc_Z	Gyr_X	Gyr_Y	Gyr_Z	Mag_X	Mag_Y	Mag_Z	Quat_q0	Quat_q1	Quat_q2	Quat_q3	Roll	Pitch	Yaw	Mat[1][1]	Mat[2][1]	Mat[3][1]	Mat[1][2]	Mat[2][2]	Mat[3][2]	Mat[1][3]	Mat[2][3]	Mat[3][3]	Vel_E	Vel_N	Vel_U
13933	0	0	0	0	0	9.721705	-1.042516	-0.912351	0.002937	-0.000076	-0.001899	-0.894043	0.595947	-0.009521	0.592513	-0.419043	-0.609272	-0.319560	-131.136797	-81.818564	67.987991	0.053337	0.131935	0.989822	0.889310	0.444568	-0.107178	-0.454184	0.885975	-0.093619	0	0	0
13934	0	0	0	0	0	9.711537	-1.055399	-0.881845	0.003029	0.003397	-0.001157	-0.885986	0.590576	-0.005859	0.592518	-0.419040	-0.609268	-0.319561	-131.132007	-81.818937	67.983389	0.053345	0.131924	0.989823	0.889308	0.444572	-0.107181	-0.454187	0.885975	-0.093606	0	0	0
13935	0	0	0	0	0	9.686309	-1.125615	-0.900604	0.008054	0.001373	-0.004014	-0.888428	0.592529	-0.009521	0.592521	-0.419018	-0.609285	-0.319552	-131.139304	-81.819760	67.993696	0.053316	0.131921	0.989825	0.889286	0.444620	-0.107159	-0.454233	0.885951	-0.093610	0	0	0
13936	0	0	0	0	0	9.721829	-1.042019	-0.911597	0.012094	0.002066	-0.001469	-0.881592	0.595703	-0.015137	0.592541	-0.418991	-0.609300	-0.319523	-131.134298	-81.819780	67.994051	0.053315	0.131921	0.989825	0.889244	0.444703	-0.107166	-0.454316	0.885910	-0.093600	0	0	0
13937	0	0	0	0	0	9.723046	-1.064168	-0.861528	0.010188	0.001161	-0.004600	-0.884277	0.588867	-0.001465	0.592547	-0.418961	-0.609323	-0.319509	-131.142547	-81.820776	68.006555	0.053280	0.131917	0.989828	0.889213	0.444772	-0.107140	-0.454381	0.885876	-0.093604	0	0	0
13938	0	0	0	0	0	9.765014	-1.078739	-0.892929	0.006722	0.001721	-0.004738	-0.880859	0.590576	0.002197	0.592549	-0.418940	-0.609337	-0.319506	-131.150027	-81.822046	68.016328	0.053249	0.131905	0.989831	0.889197	0.444810	-0.107111	-0.454415	0.885859	-0.093604	0	0	0
13939	0	0	0	0	0	9.720712	-1.107882	-0.880966	0.008856	0.001510	-0.005325	-0.888916	0.591797	-0.013428	0.592552	-0.418912	-0.609357	-0.319499	-131.159900	-81.823486	68.029702	0.053209	0.131895	0.989835	0.889173	0.444867	-0.107076	-0.454468	0.885831	-0.093606	0	0	0
13940	0	0	0	0	0	9.689063	-1.079655	-0.879352	0.005162	0.003186	-0.001745	-0.880127	0.599365	-0.006836	0.592557	-0.418907	-0.609355	-0.319499	-131.156421	-81.823996	68.026660	0.053213	0.131884	0.989836	0.889169	0.444875	-0.107075	-0.454474	0.885829	-0.093594	0	0	0
13941	0	0	0	0	0	9.711942	-1.053359	-0.879829	0.010507	0.003519	-0.007578	-0.882813	0.597656	-0.008789	0.592566	-0.418864	-0.609377	-0.319497	-131.165235	-81.827164	68.039920	0.053162	0.131845	0.989844	0.889138	0.444950	-0.107020	-0.454541	0.885797	-0.093574	0	0	0
13942	0	0	0	0	0	9.689252	-1.078593	-0.878572	0.012595	0.001571	-0.008535	-0.887939	0.593018	-0.006104	0.592572	-0.418818	-0.609406	-0.319490	-131.179532	-81.829931	68.059363	0.053099	0.131819	0.989851	0.889102	0.445035	-0.106961	-0.454618	0.885758	-0.093569	0	0	0
13943	0	0	0	0	0	9.691786	-1.033531	-0.858425	0.010187	0.001164	-0.004600	-0.880859	0.595947	-0.012451	0.592578	-0.418788	-0.609429	-0.319476	-131.187791	-81.830926	68.071877	0.053064	0.131815	0.989853	0.889072	0.445103	-0.106934	-0.454682	0.885725	-0.093573	0	0	0
13944	0	0	0	0	0	9.713401	-1.029618	-0.869056	0.005116	0.001450	-0.002115	-0.883301	0.594238	-0.011230	0.592581	-0.418779	-0.609436	-0.319468	-131.189988	-81.830969	68.075680	0.053055	0.131817	0.989853	0.889059	0.445128	-0.106930	-0.454707	0.885711	-0.093577	0	0	0
13945	0	0	0	0	0	9.734998	-1.025864	-0.879710	0.004314	0.001315	-0.000803	-0.890137	0.587891	-0.009766	0.592581	-0.418778	-0.609441	-0.319460	-131.191182	-81.830384	68.077657	0.053054	0.131829	0.989852	0.889053	0.445140	-0.106936	-0.454719	0.885704	-0.093586	0	0	0
13946	0	0	0	0	0	9.744007	-1.035006	-0.919784	0.003785	0.001798	-0.002840	-0.889648	0.589600	-0.004639	0.592583	-0.418766	-0.609449	-0.319456	-131.195099	-81.830947	68.083191	0.053038	0.131825	0.989853	0.889042	0.445166	-0.106922	-0.454744	0.885692	-0.093587	0	0	0
13947	0	0	0	0	0	9.713496	-1.029153	-0.868553	-0.000529	0.000483	-0.002037	-0.885254	0.593506	-0.009033	0.592568	-0.418777	-0.609451	-0.319465	-131.204807	-81.830579	68.090966	0.053023	0.131838	0.989852	0.889058	0.445136	-0.106911	-0.454714	0.885705	-0.093609	0	0	0
13948	0	0	0	0	0	9.722486	-1.038395	-0.908724	0.001377	0.001390	0.001095	-0.893799	0.586426	-0.008057	0.592566	-0.418791	-0.609445	-0.319462	-131.201383	-81.829228	68.086351	0.053042	0.131855	0.989849	0.889066	0.445115	-0.106934	-0.454696	0.885713	-0.093618	0	0	0
13949	0	0	0	0	0	9.709847	-1.095848	-0.898278	0.005025	-0.002023	-0.002854	-0.886719	0.592529	-0.003662	0.592555	-0.418788	-0.609464	-0.319452	-131.217579	-81.828267	68.103894	0.053008	0.131887	0.989846	0.889057	0.445135	-0.106920	-0.454717	0.885698	-0.093659	0	0	0
13950	0	0	0	0	0	9.702098	-1.064182	-0.848151	0.005600	-0.000769	-0.000448	-0.888672	0.591064	-0.001709	0.592552	-0.418788	-0.609474	-0.319437	-131.222525	-81.826793	68.110142	0.053003	0.131916	0.989843	0.889047	0.445153	-0.106931	-0.454737	0.885684	-0.093685	0	0	0
13951	0	0	0	0	0	9.726106	-1.016042	-0.839136	0.006931	-0.001116	0.000277	-0.881836	0.585205	-0.005371	0.592552	-0.418787	-0.609488	-0.319413	-131.226667	-81.824824	68.116611	0.053001	0.131954	0.989838	0.889028	0.445186	-0.106950	-0.454774	0.885662	-0.093715	0	0	0
13952	0	0	0	0	0	9.747669	-1.012493	-0.849927	0.006976	0.000621	0.000647	-0.890381	0.596436	-0.006592	0.592555	-0.418791	-0.609490	-0.319398	-131.223926	-81.823342	68.114878	0.053014	0.131976	0.989834	0.889019	0.445199	-0.106974	-0.454791	0.885652	-0.093727	0	0	0
13953	0	0	0	0	0	9.699695	-1.064383	-0.907728	0.000045	0.001737	0.000370	-0.888428	0.588379	-0.020752	0.592550	-0.418805	-0.609484	-0.319401	-131.223212	-81.822411	68.112457	0.053026	0.131989	0.989832	0.889031	0.445171	-0.106987	-0.454765	0.885665	-0.093737	0	0	0
13954	0	0	0	0	0	9.709898	-1.051448	-0.937972	-0.002134	0.000211	0.000586	-0.891357	0.585693	-0.004395	0.592544	-0.418816	-0.609485	-0.319395	-131.225922	-81.820964	68.114662	0.053030	0.132014	0.989828	0.889035	0.445161	-0.107001	-0.454758	0.885666	-0.093758	0	0	0
13955	0	0	0	0	0	9.697257	-1.108932	-0.927509	-0.001331	0.000347	-0.000725	-0.884521	0.587402	-0.013672	0.592529	-0.418834	-0.609483	-0.319402	-131.233041	-81.819979	68.119357	0.053026	0.132034	0.989826	0.889054	0.445122	-0.107002	-0.454721	0.885683	-0.093783	0	0	0
13956	0	0	0	0	0	9.709879	-1.095765	-0.898039	0.002408	0.000408	-0.003935	-0.884521	0.583496	-0.011230	0.592522	-0.418825	-0.609496	-0.319403	-131.245152	-81.820522	68.132231	0.052992	0.132037	0.989827	0.889051	0.445135	-0.106975	-0.454732	0.885675	-0.093799	0	0	0
13957	0	0	0	0	0	9.745284	-1.056798	-0.869407	-0.000757	0.001601	0.001681	-0.886963	0.588867	-0.011719	0.592516	-0.418846	-0.609486	-0.319404	-131.241857	-81.818975	68.126738	0.053015	0.132057	0.989823	0.889066	0.445098	-0.107001	-0.454699	0.885691	-0.093810	0	0	0
13958	0	0	0	0	0	9.713586	-1.028698	-0.868084	-0.004569	-0.000214	-0.004582	-0.893555	0.587646	-0.007080	0.592494	-0.418852	-0.609494	-0.319424	-131.261217	-81.819590	68.143670	0.052972	0.132063	0.989825	0.889089	0.445063	-0.106961	-0.454660	0.885708	-0.093840	0	0	0
13959	0	0	0	0	0	9.690832	-1.054390	-0.867041	-0.003375	0.004031	0.000601	-0.885254	0.598633	-0.007813	0.592488	-0.418874	-0.609475	-0.319441	-131.254977	-81.819427	68.133686	0.052996	0.132056	0.989825	0.889117	0.445004	-0.106974	-0.454602	0.885739	-0.093830	0	0	0
13960	0	0	0	0	0	9.733994	-1.047053	-0.888517	-0.006931	0.001116	-0.000278	-0.885986	0.595947	-0.013916	0.592467	-0.418908	-0.609460	-0.319465	-131.260615	-81.818575	68.133755	0.053001	0.132070	0.989822	0.889160	0.444916	-0.106975	-0.454516	0.885780	-0.093850	0	0	0
13961	0	0	0	0	0	9.720205	-1.082170	-0.927765	-0.004752	0.002642	-0.000494	-0.885498	0.595459	-0.011475	0.592453	-0.418933	-0.609445	-0.319487	-131.262206	-81.818358	68.130886	0.053009	0.132071	0.989822	0.889195	0.444847	-0.106976	-0.454447	0.885815	-0.093855	0	0	0
13962	0	0	0	0	0	9.720189	-1.126532	-0.887758	0.000274	0.000619	-0.003348	-0.891357	0.595459	-0.001709	0.592445	-0.418928	-0.609455	-0.319490	-131.272510	-81.818681	68.141435	0.052983	0.132075	0.989823	0.889195	0.444852	-0.106955	-0.454450	0.885812	-0.093871	0	0	0
13963	0	0	0	0	0	9.732829	-1.113308	-0.858107	0.011564	0.002556	-0.003503	-0.877441	0.587646	-0.010498	0.592460	-0.418895	-0.609472	-0.319470	-131.272922	-81.819727	68.146818	0.052964	0.132063	0.989825	0.889157	0.444931	-0.106940	-0.454527	0.885774	-0.093860	0	0	0
13964	0	0	0	0	0	9.734126	-1.046497	-0.887718	0.006219	0.002223	0.002329	-0.886475	0.584961	-0.010498	0.592471	-0.418900	-0.609467	-0.319452	-131.260939	-81.818130	68.136023	0.052999	0.132079	0.989821	0.889145	0.444946	-0.106981	-0.454547	0.885764	-0.093856	0	0	0
13965	0	0	0	0	0	9.722777	-1.037275	-0.906888	0.003027	0.003399	-0.001158	-0.887207	0.585693	-0.013428	0.592475	-0.418899	-0.609464	-0.319454	-131.257549	-81.818485	68.132624	0.053005	0.132070	0.989822	0.889145	0.444946	-0.106982	-0.454547	0.885765	-0.093845	0	0	0
13966	0	0	0	0	0	9.710203	-1.050185	-0.936229	0.003420	-0.002295	-0.000231	-0.882813	0.591064	-0.016357	0.592470	-0.418896	-0.609483	-0.319431	-131.267146	-81.816467	68.144604	0.052990	0.132114	0.989817	0.889126	0.444980	-0.106992	-0.454584	0.885742	-0.093886	0	0	0
13967	0	0	0	0	0	9.701225	-1.040953	-0.895816	0.005735	0.004443	0.000662	-0.888184	0.596191	-0.008057	0.592485	-0.418891	-0.609477	-0.319421	-131.254297	-81.816432	68.133216	0.053016	0.132104	0.989817	0.889113	0.445002	-0.107014	-0.454607	0.885732	-0.093863	0	0	0
13968	0	0	0	0	0	9.713896	-0.983442	-0.905933	0.002982	0.001662	-0.001528	-0.892090	0.585449	-0.003418	0.592489	-0.418882	-0.609484	-0.319413	-131.255300	-81.816375	68.135802	0.053011	0.132107	0.989817	0.889101	0.445026	-0.107013	-0.454632	0.885720	-0.093865	0	0	0
13969	0	0	0	0	0	9.734215	-1.046590	-0.886633	-0.002089	0.001948	0.000956	-0.893799	0.587402	-0.007080	0.592480	-0.418905	-0.609472	-0.319421	-131.253634	-81.815271	68.131184	0.053029	0.132120	0.989814	0.889122	0.444979	-0.107030	-0.454587	0.885742	-0.093875	0	0	0
13970	0	0	0	0	0	9.698834	-1.085716	-0.914943	-0.002317	0.003066	0.004674	-0.881104	0.590332	-0.005859	0.592481	-0.418938	-0.609448	-0.319422	-131.238438	-81.813079	68.112554	0.053086	0.132138	0.989809	0.889145	0.444921	-0.107083	-0.454536	0.885768	-0.093871	0	0	0
13971	0	0	0	0	0	9.732912	-1.114008	-0.856259	0.000574	0.001254	0.002407	-0.882080	0.582764	-0.007080	0.592478	-0.418958	-0.609440	-0.319417	-131.233521	-81.811088	68.106191	0.053113	0.132164	0.989804	0.889154	0.444894	-0.107117	-0.454515	0.885777	-0.093885	0	0	0
13972	0	0	0	0	0	9.710197	-1.095428	-0.895001	0.005162	0.003188	-0.001744	-0.888916	0.580078	-0.009766	0.592485	-0.418951	-0.609439	-0.319415	-131.230075	-81.811645	68.103604	0.053116	0.132153	0.989805	0.889147	0.444909	-0.107116	-0.454528	0.885772	-0.093872	0	0	0
13973	0	0	0	0	0	9.734167	-1.091853	-0.845750	0.008353	0.002012	0.001743	-0.888916	0.594482	-0.009521	0.592500	-0.418944	-0.609443	-0.319389	-131.220173	-81.810226	68.096709	0.053141	0.132169	0.989802	0.889121	0.444952	-0.107150	-0.454576	0.885748	-0.093870	0	0	0
13974	0	0	0	0	0	9.720444	-1.082721	-0.924613	0.003601	0.004654	0.001248	-0.889404	0.586670	-0.011230	0.592516	-0.418940	-0.609435	-0.319379	-131.205198	-81.810148	68.083120	0.053172	0.132158	0.989801	0.889108	0.444973	-0.107176	-0.454599	0.885739	-0.093842	0	0	0
13975	0	0	0	0	0	9.713908	-1.029015	-0.864096	0.009155	0.002149	0.000432	-0.882080	0.584717	-0.009521	0.592531	-0.418927	-0.609442	-0.319355	-131.197872	-81.809345	68.079292	0.053186	0.132167	0.989799	0.889079	0.445025	-0.107198	-0.454654	0.885711	-0.093838	0	0	0
13976	0	0	0	0	0	9.691195	-1.010529	-0.902791	0.007021	0.002360	0.001018	-0.882813	0.593994	-0.012451	0.592548	-0.418914	-0.609447	-0.319330	-131.188333	-81.808503	68.073291	0.053206	0.132175	0.989797	0.889049	0.445078	-0.107225	-0.454710	0.885684	-0.093830	0	0	0
13977	0	0	0	0	0	9.689934	-1.077461	-0.872414	0.002270	0.005001	0.000522	-0.888672	0.591309	-0.013672	0.592558	-0.418918	-0.609434	-0.319333	-131.176174	-81.808737	68.060595	0.053233	0.132160	0.989798	0.889051	0.445069	-0.107242	-0.454702	0.885690	-0.093804	0	0	0
13978	0	0	0	0	0	9.721686	-1.105509	-0.873168	0.003601	0.004654	0.001248	-0.887695	0.591797	-0.006836	0.592577	-0.418910	-0.609428	-0.319319	-131.160551	-81.808634	68.047061	0.053265	0.132149	0.989798	0.889033	0.445101	-0.107268	-0.454735	0.885676	-0.093776	0	0	0
13979	0	0	0	0	0	9.712778	-1.051810	-0.872419	0.007021	0.002360	0.001019	-0.893799	0.586914	-0.009521	0.592589	-0.418904	-0.609430	-0.319300	-131.152283	-81.807658	68.041046	0.053286	0.132159	0.989795	0.889013	0.445133	-0.107295	-0.454771	0.885658	-0.093772	0	0	0
13980	0	0	0	0	0	9.745711	-1.057734	-0.863454	0.001950	0.002646	0.003501	-0.881836	0.591553	-0.009033	0.592598	-0.418919	-0.609418	-0.319287	-131.138535	-81.805808	68.027058	0.053330	0.132175	0.989791	0.889011	0.445126	-0.107341	-0.454769	0.885659	-0.093767	0	0	0
13981	0	0	0	0	0	9.711559	-1.074522	-0.881836	0.007779	0.000758	-0.000662	-0.894531	0.593018	-0.000244	0.592604	-0.418909	-0.609430	-0.319268	-131.139035	-81.804953	68.030340	0.053328	0.132192	0.989789	0.888989	0.445167	-0.107352	-0.454813	0.885636	-0.093778	0	0	0
13982	0	0	0	0	0	9.731989	-1.048779	-0.942363	0.001905	0.000909	0.003132	-0.888184	0.587402	-0.015381	0.592602	-0.418933	-0.609418	-0.319260	-131.131670	-81.802499	68.021206	0.053365	0.132223	0.989782	0.889000	0.445135	-0.107396	-0.454787	0.885648	-0.093792	0	0	0
13983	0	0	0	0	0	9.700176	-1.065577	-0.901161	0.001331	-0.000346	0.000726	-0.889404	0.595703	-0.003174	0.592593	-0.418949	-0.609419	-0.319254	-131.135543	-81.800628	68.024163	0.053370	0.132256	0.989778	0.889006	0.445118	-0.107414	-0.454774	0.885651	-0.093820	0	0	0
13984	0	0	0	0	0	9.710324	-1.097159	-0.891494	0.000848	0.001873	-0.000942	-0.891113	0.593262	-0.017090	0.592591	-0.418953	-0.609418	-0.319255	-131.136109	-81.800390	68.024237	0.053371	0.132260	0.989777	0.889010	0.445110	-0.107416	-0.454767	0.885655	-0.093824	0	0	0
13985	0	0	0	0	0	9.743267	-1.102943	-0.882580	0.004084	0.002436	0.002916	-0.882324	0.593994	-0.000977	0.592600	-0.418962	-0.609411	-0.319239	-131.124346	-81.798624	68.012991	0.053409	0.132277	0.989773	0.889003	0.445114	-0.107458	-0.454776	0.885650	-0.093822	0	0	0
13986	0	0	0	0	0	9.711550	-1.075183	-0.881119	0.005644	0.000969	-0.000076	-0.882568	0.586670	-0.008545	0.592606	-0.418958	-0.609417	-0.319223	-131.122487	-81.797631	68.013088	0.053415	0.132293	0.989770	0.888987	0.445143	-0.107474	-0.454807	0.885633	-0.093830	0	0	0
13987	0	0	0	0	0	9.714001	-1.030694	-0.861042	0.005690	0.002707	0.000293	-0.890137	0.591309	-0.012695	0.592615	-0.418954	-0.609417	-0.319211	-131.115852	-81.797098	68.007952	0.053430	0.132297	0.989769	0.888973	0.445165	-0.107492	-0.454831	0.885622	-0.093823	0	0	0
13988	0	0	0	0	0	9.723015	-1.040121	-0.901056	0.001376	0.001391	0.001095	-0.880859	0.596191	-0.004883	0.592617	-0.418960	-0.609416	-0.319201	-131.112146	-81.795832	68.004490	0.053446	0.132314	0.989766	0.888970	0.445166	-0.107514	-0.454836	0.885618	-0.093831	0	0	0
13989	0	0	0	0	0	9.692514	-0.990123	-0.889688	0.004084	0.002436	0.002916	-0.890137	0.593994	-0.004395	0.592627	-0.418970	-0.609409	-0.319185	-131.100392	-81.794065	67.993253	0.053484	0.132332	0.989761	0.888963	0.445170	-0.107557	-0.454846	0.885614	-0.093829	0	0	0
13990	0	0	0	0	0	9.724213	-1.018460	-0.890648	-0.004452	0.003280	0.005257	-0.888672	0.586426	-0.002441	0.592621	-0.419018	-0.609375	-0.319197	-131.083872	-81.791540	67.970928	0.053552	0.132352	0.989755	0.889003	0.445075	-0.107616	-0.454758	0.885659	-0.093827	0	0	0
13991	0	0	0	0	0	9.700149	-1.067226	-0.899501	-0.000505	0.000503	0.007066	-0.879883	0.592529	-0.010498	0.592622	-0.419056	-0.609357	-0.319179	-131.069718	-81.787252	67.954609	0.053617	0.132405	0.989744	0.889015	0.445033	-0.107696	-0.454728	0.885672	-0.093849	0	0	0
13992	0	0	0	0	0	9.710225	-1.099370	-0.889847	0.001101	0.000774	0.004444	-0.886475	0.595215	-0.003906	0.592622	-0.419084	-0.609345	-0.319167	-131.059675	-81.784221	67.942989	0.053664	0.132443	0.989737	0.889023	0.445003	-0.107751	-0.454707	0.885681	-0.093864	0	0	0
13993	0	0	0	0	0	9.733000	-1.073839	-0.890569	0.004084	0.002436	0.002916	-0.882080	0.595947	-0.002686	0.592631	-0.419093	-0.609337	-0.319151	-131.047949	-81.782452	67.931779	0.053701	0.132460	0.989733	0.889016	0.445007	-0.107794	-0.454716	0.885677	-0.093862	0	0	0
13994	0	0	0	0	0	9.731753	-1.096437	-0.900377	-0.000275	-0.000617	0.003349	-0.888672	0.593994	-0.006836	0.592618	-0.419132	-0.609324	-0.319150	-131.045796	-81.779255	67.925898	0.053735	0.132506	0.989725	0.889042	0.444943	-0.107839	-0.454661	0.885702	-0.093894	0	0	0
13995	0	0	0	0	0	9.708910	-1.122651	-0.899532	0.001859	-0.000828	0.002763	-0.889160	0.587158	-0.018066	0.592612	-0.419153	-0.609323	-0.319135	-131.045511	-81.776324	67.924960	0.053757	0.132552	0.989717	0.889045	0.444928	-0.107878	-0.454652	0.885702	-0.093927	0	0	0
13996	0	0	0	0	0	9.711338	-1.078419	-0.879504	0.004129	0.004173	0.003285	-0.885742	0.595703	-0.006592	0.592635	-0.419148	-0.609316	-0.319111	-131.026027	-81.775207	67.908093	0.053803	0.132554	0.989714	0.889021	0.444966	-0.107924	-0.454695	0.885683	-0.093903	0	0	0
13997	0	0	0	0	0	9.722797	-1.043340	-0.899685	-0.001331	0.000346	-0.000726	-0.889404	0.589600	-0.006836	0.592621	-0.419166	-0.609314	-0.319119	-131.033144	-81.774226	67.912786	0.053798	0.132574	0.989712	0.889040	0.444927	-0.107925	-0.454657	0.885700	-0.093928	0	0	0
13998	0	0	0	0	0	9.722721	-1.087779	-0.859569	0.003028	0.003399	-0.001159	-0.890869	0.598389	0.001709	0.592625	-0.419165	-0.609309	-0.319122	-131.028675	-81.774606	67.908120	0.053807	0.132564	0.989713	0.889041	0.444924	-0.107928	-0.454654	0.885703	-0.093915	0	0	0
13999	0	0	0	0	0	9.701263	-1.046983	-0.888342	0.000619	0.002994	0.002775	-0.891846	0.592041	-0.010254	0.592628	-0.419183	-0.609295	-0.319118	-131.017651	-81.773106	67.895613	0.053845	0.132576	0.989709	0.889050	0.444898	-0.107965	-0.454633	0.885714	-0.093911	0	0	0
14000	0	0	0	0	0	9.711389	-1.078760	-0.878517	-0.004223	0.002160	0.001540	-0.889648	0.588867	-0.007324	0.592615	-0.419219	-0.609274	-0.319136	-131.014272	-81.771813	67.887052	0.053874	0.132589	0.989706	0.889088	0.444815	-0.107988	-0.454554	0.885754	-0.093919	0	0	0
14001	0	0	0	0	0	9.722845	-1.043619	-0.898850	-0.002134	0.000211	0.000585	-0.885254	0.589600	-0.003174	0.592600	-0.419243	-0.609269	-0.319142	-131.018843	-81.770214	67.888708	0.053880	0.132616	0.989702	0.889111	0.444767	-0.108001	-0.454510	0.885774	-0.093946	0	0	0
14002	0	0	0	0	0	9.711395	-1.078910	-0.878270	-0.002043	0.003686	0.001323	-0.882080	0.594727	-0.010010	0.592598	-0.419266	-0.609249	-0.319155	-131.010251	-81.769644	67.876676	0.053912	0.132614	0.989701	0.889136	0.444712	-0.108022	-0.454457	0.885802	-0.093936	0	0	0
14003	0	0	0	0	0	9.700068	-1.069633	-0.897517	-0.001285	0.002084	-0.000357	-0.890137	0.594971	-0.010010	0.592589	-0.419282	-0.609241	-0.319165	-131.011187	-81.769156	67.875152	0.053918	0.132620	0.989699	0.889154	0.444673	-0.108027	-0.454419	0.885820	-0.093944	0	0	0
14004	0	0	0	0	0	9.701275	-1.047552	-0.887539	-0.006678	0.000017	0.005104	-0.881592	0.588379	-0.013184	0.592576	-0.419328	-0.609221	-0.319166	-131.005593	-81.765588	67.864863	0.053965	0.132667	0.989690	0.889187	0.444594	-0.108083	-0.454349	0.885853	-0.093974	0	0	0
14005	0	0	0	0	0	9.708935	-1.123938	-0.897647	-0.005508	0.004244	0.001183	-0.888184	0.591064	-0.006836	0.592568	-0.419358	-0.609197	-0.319188	-130.998496	-81.765247	67.852776	0.053996	0.132662	0.989690	0.889225	0.444516	-0.108099	-0.454273	0.885893	-0.093964	0	0	0
14006	0	0	0	0	0	9.741890	-1.129609	-0.888685	0.000849	0.001873	-0.000942	-0.885498	0.587402	-0.015381	0.592567	-0.419359	-0.609197	-0.319187	-130.998942	-81.765039	67.853213	0.053996	0.132665	0.989689	0.889225	0.444515	-0.108101	-0.454273	0.885893	-0.093967	0	0	0
14007	0	0	0	0	0	9.711430	-1.079338	-0.877354	0.002180	0.001526	-0.000216	-0.883057	0.590088	-0.006836	0.592565	-0.419366	-0.609196	-0.319185	-130.999194	-81.764281	67.853004	0.054001	0.132677	0.989687	0.889228	0.444507	-0.108110	-0.454266	0.885895	-0.093976	0	0	0
14008	0	0	0	0	0	9.711452	-1.079295	-0.877172	0.000849	0.001873	-0.000942	-0.888184	0.596191	-0.007813	0.592565	-0.419365	-0.609198	-0.319182	-130.999544	-81.764098	67.853770	0.054001	0.132681	0.989687	0.889224	0.444513	-0.108112	-0.454273	0.885892	-0.093979	0	0	0
14009	0	0	0	0	0	9.677314	-1.095907	-0.895614	0.001376	0.001391	0.001095	-0.897461	0.592041	-0.010986	0.592563	-0.419378	-0.609194	-0.319177	-130.997256	-81.762722	67.850528	0.054017	0.132700	0.989683	0.889231	0.444495	-0.108134	-0.454259	0.885898	-0.093990	0	0	0
14010	0	0	0	0	0	9.733053	-1.075701	-0.887742	0.004268	-0.000423	-0.001170	-0.888184	0.592041	-0.001465	0.592562	-0.419372	-0.609207	-0.319162	-131.003279	-81.761750	67.858558	0.054005	0.132723	0.989681	0.889215	0.444525	-0.108137	-0.454290	0.885879	-0.094013	0	0	0
14011	0	0	0	0	0	9.700116	-1.070145	-0.896378	0.001904	0.000910	0.003133	-0.887207	0.591553	-0.007568	0.592562	-0.419391	-0.609200	-0.319149	-130.996839	-81.759312	67.851426	0.054037	0.132755	0.989675	0.889218	0.444510	-0.108179	-0.454281	0.885882	-0.094028	0	0	0
14012	0	0	0	0	0	9.703700	-1.047780	-0.826428	-0.000161	0.004574	-0.004648	-0.889160	0.593018	-0.005615	0.592555	-0.419391	-0.609192	-0.319178	-131.000006	-81.761621	67.851982	0.054021	0.132719	0.989680	0.889240	0.444473	-0.108144	-0.454239	0.885906	-0.094008	0	0	0
14013	0	0	0	0	0	9.710311	-1.101479	-0.886298	0.001331	-0.000346	0.000726	-0.885742	0.584961	-0.002197	0.592547	-0.419406	-0.609193	-0.319171	-131.003891	-81.759751	67.854951	0.054026	0.132752	0.989676	0.889247	0.444456	-0.108162	-0.454226	0.885910	-0.094036	0	0	0
14014	0	0	0	0	0	9.701404	-1.047738	-0.885910	-0.000758	0.001603	0.001680	-0.895264	0.590088	-0.012451	0.592539	-0.419432	-0.609180	-0.319177	-131.000017	-81.758226	67.847994	0.054052	0.132769	0.989672	0.889269	0.444406	-0.108188	-0.454180	0.885932	-0.094046	0	0	0
14015	0	0	0	0	0	9.720552	-1.088717	-0.916400	0.004314	0.001315	-0.000801	-0.889648	0.590088	-0.006592	0.592540	-0.419431	-0.609184	-0.319169	-131.001195	-81.757641	67.849956	0.054052	0.132781	0.989671	0.889263	0.444417	-0.108194	-0.454192	0.885925	-0.094055	0	0	0
14016	0	0	0	0	0	9.742147	-1.085127	-0.927054	0.001376	0.001391	0.001095	-0.883545	0.585693	-0.004883	0.592543	-0.419436	-0.609184	-0.319158	-130.997699	-81.756420	67.847048	0.054066	0.132797	0.989667	0.889257	0.444423	-0.108215	-0.454202	0.885919	-0.094063	0	0	0
14017	0	0	0	0	0	9.719473	-1.066545	-0.965909	-0.001285	0.002084	-0.000357	-0.889893	0.593750	-0.007324	0.592534	-0.419452	-0.609176	-0.319168	-130.998638	-81.755933	67.845526	0.054073	0.132804	0.989666	0.889275	0.444384	-0.108220	-0.454164	0.885938	-0.094070	0	0	0
14018	0	0	0	0	0	9.721827	-1.066352	-0.906027	-0.001858	0.000828	-0.002764	-0.885498	0.595947	-0.005615	0.592518	-0.419464	-0.609175	-0.319185	-131.008935	-81.756064	67.853031	0.054055	0.132809	0.989667	0.889299	0.444342	-0.108202	-0.454121	0.885958	-0.094088	0	0	0
14019	0	0	0	0	0	9.709158	-1.123720	-0.895506	-0.002134	0.000211	0.000585	-0.891113	0.583984	-0.004639	0.592503	-0.419488	-0.609169	-0.319190	-131.013503	-81.754466	67.854685	0.054061	0.132836	0.989663	0.889321	0.444294	-0.108215	-0.454076	0.885978	-0.094115	0	0	0
14020	0	0	0	0	0	9.733229	-1.075329	-0.886265	-0.000161	0.004574	-0.004648	-0.885254	0.592285	-0.001465	0.592498	-0.419486	-0.609162	-0.319217	-131.016668	-81.756813	67.855712	0.054044	0.132799	0.989668	0.889340	0.444265	-0.108179	-0.454041	0.885998	-0.094094	0	0	0
14021	0	0	0	0	0	9.710486	-1.101005	-0.884969	-0.001240	0.003822	0.000012	-0.883057	0.587891	-0.004639	0.592496	-0.419500	-0.609149	-0.319229	-131.011436	-81.756819	67.847981	0.054062	0.132792	0.989668	0.889358	0.444226	-0.108188	-0.454003	0.886019	-0.094084	0	0	0
14022	0	0	0	0	0	9.735630	-1.075028	-0.825918	-0.001331	0.000346	-0.000726	-0.889648	0.592773	-0.003906	0.592478	-0.419525	-0.609141	-0.319243	-131.017810	-81.755810	67.850531	0.054062	0.132810	0.989666	0.889388	0.444165	-0.108190	-0.453944	0.886047	-0.094107	0	0	0
14023	0	0	0	0	0	9.747261	-0.995113	-0.885939	-0.003053	0.006388	-0.002382	-0.888916	0.586426	-0.014160	0.592476	-0.419533	-0.609122	-0.319273	-131.012174	-81.757817	67.841342	0.054071	0.132770	0.989671	0.889416	0.444114	-0.108173	-0.453888	0.886079	-0.094074	0	0	0
14024	0	0	0	0	0	9.702919	-1.024416	-0.873978	-0.019505	0.001263	-0.000492	-0.890381	0.589355	-0.011230	0.592431	-0.419596	-0.609091	-0.319331	-131.025086	-81.757211	67.842717	0.054071	0.132781	0.989669	0.889508	0.443934	-0.108160	-0.453710	0.886167	-0.094105	0	0	0
14025	0	0	0	0	0	9.686749	-1.103906	-0.933080	-0.019942	0.005222	-0.001790	-0.886963	0.592529	-0.004639	0.592391	-0.419657	-0.609047	-0.319408	-131.031071	-81.758524	67.835493	0.054080	0.132753	0.989673	0.889612	0.443732	-0.108133	-0.453504	0.886272	-0.094102	0	0	0
14026	0	0	0	0	0	9.707180	-1.122104	-0.953698	-0.015764	0.001324	-0.003698	-0.892578	0.594727	-0.011719	0.592348	-0.419702	-0.609027	-0.319467	-131.050013	-81.759289	67.844631	0.054053	0.132749	0.989675	0.889692	0.443582	-0.108092	-0.453351	0.886348	-0.094129	0	0	0
14027	0	0	0	0	0	9.732470	-1.051187	-0.934678	-0.012254	0.002504	-0.003187	-0.890869	0.593994	-0.007324	0.592314	-0.419741	-0.609007	-0.319519	-131.063332	-81.760183	67.849270	0.054037	0.132739	0.989677	0.889762	0.443449	-0.108059	-0.453215	0.886416	-0.094144	0	0	0
14028	0	0	0	0	0	9.701784	-1.089723	-0.843546	-0.010878	0.003896	-0.002091	-0.886963	0.596436	-0.011230	0.592294	-0.419769	-0.608986	-0.319560	-131.067355	-81.761239	67.846843	0.054036	0.132720	0.989680	0.889813	0.443351	-0.108038	-0.453115	0.886468	-0.094139	0	0	0
14029	0	0	0	0	0	9.742621	-1.126410	-0.884726	-0.005529	0.004227	-0.007920	-0.895752	0.596436	0.000488	0.592271	-0.419771	-0.608981	-0.319609	-131.083993	-81.764826	67.858728	0.053985	0.132674	0.989688	0.889855	0.443285	-0.107964	-0.453038	0.886508	-0.094130	0	0	0
14030	0	0	0	0	0	9.691821	-1.057246	-0.852391	0.003601	0.004655	0.001251	-0.877686	0.589111	-0.008545	0.592284	-0.419774	-0.608968	-0.319606	-131.069116	-81.764620	67.843823	0.054020	0.132663	0.989688	0.889853	0.443283	-0.107991	-0.453038	0.886510	-0.094104	0	0	0
14031	0	0	0	0	0	9.733949	-1.027528	-0.923523	-0.006654	0.001735	-0.003631	-0.885254	0.590332	-0.014404	0.592258	-0.419797	-0.608959	-0.319641	-131.082682	-81.765416	67.851951	0.053996	0.132658	0.989690	0.889898	0.443201	-0.107959	-0.452953	0.886552	-0.094121	0	0	0
14032	0	0	0	0	0	9.703377	-1.021509	-0.872295	-0.003144	0.002915	-0.003120	-0.886475	0.586914	-0.005371	0.592251	-0.419797	-0.608957	-0.319657	-131.087543	-81.766558	67.855330	0.053981	0.132643	0.989693	0.889911	0.443180	-0.107936	-0.452929	0.886565	-0.094117	0	0	0
14033	0	0	0	0	0	9.711126	-1.097425	-0.882385	0.000849	0.001874	-0.000941	-0.887207	0.590576	-0.006348	0.592245	-0.419805	-0.608955	-0.319661	-131.089399	-81.766244	67.855971	0.053982	0.132649	0.989692	0.889920	0.443161	-0.107937	-0.452910	0.886574	-0.094124	0	0	0
14034	0	0	0	0	0	9.701150	-1.021247	-0.931567	0.002225	0.003264	0.000155	-0.887207	0.589600	-0.010742	0.592250	-0.419809	-0.608947	-0.319661	-131.082482	-81.766050	67.848686	0.054000	0.132645	0.989692	0.889922	0.443154	-0.107951	-0.452905	0.886577	-0.094113	0	0	0
14035	0	0	0	0	0	9.703475	-1.021290	-0.871461	-0.001241	0.003823	0.000014	-0.895020	0.600342	-0.008545	0.592248	-0.419823	-0.608934	-0.319673	-131.077234	-81.766057	67.840939	0.054018	0.132637	0.989692	0.889940	0.443115	-0.107959	-0.452867	0.886598	-0.094103	0	0	0
14036	0	0	0	0	0	9.664657	-1.082391	-0.969476	-0.005555	0.002507	0.000813	-0.885010	0.592041	-0.014648	0.592240	-0.419846	-0.608920	-0.319686	-131.074706	-81.765332	67.835038	0.054036	0.132643	0.989690	0.889965	0.443061	-0.107973	-0.452815	0.886624	-0.094107	0	0	0
14037	0	0	0	0	0	9.699756	-1.132756	-0.860880	0.001421	0.003128	0.001466	-0.887451	0.590332	-0.001465	0.592243	-0.419857	-0.608909	-0.319684	-131.066228	-81.764451	67.825569	0.054064	0.132649	0.989688	0.889971	0.443044	-0.107998	-0.452801	0.886632	-0.094101	0	0	0
14038	0	0	0	0	0	9.711231	-1.097552	-0.881079	-0.001331	0.000347	-0.000726	-0.893799	0.592773	-0.009277	0.592232	-0.419870	-0.608909	-0.319687	-131.071960	-81.763550	67.829727	0.054060	0.132667	0.989685	0.889984	0.443018	-0.108000	-0.452777	0.886642	-0.094122	0	0	0
14039	0	0	0	0	0	9.744169	-1.103243	-0.872190	-0.002045	0.003687	0.001325	-0.882324	0.592529	-0.006104	0.592230	-0.419891	-0.608891	-0.319698	-131.064170	-81.762940	67.818948	0.054089	0.132667	0.989684	0.890005	0.442970	-0.108021	-0.452731	0.886666	-0.094114	0	0	0
14040	0	0	0	0	0	9.701016	-1.110573	-0.850246	0.000894	0.003611	-0.000571	-0.884766	0.588867	0.000244	0.592234	-0.419893	-0.608885	-0.319701	-131.058502	-81.763192	67.812778	0.054102	0.132657	0.989684	0.890008	0.442963	-0.108027	-0.452724	0.886671	-0.094100	0	0	0
14041	0	0	0	0	0	9.699994	-1.088105	-0.899682	0.002501	0.003883	-0.003192	-0.888916	0.594727	-0.009766	0.592234	-0.419886	-0.608883	-0.319712	-131.059267	-81.764607	67.813272	0.054091	0.132635	0.989688	0.890011	0.442961	-0.108008	-0.452719	0.886676	-0.094086	0	0	0
14042	0	0	0	0	0	9.711396	-1.097142	-0.879766	0.002501	0.003883	-0.003192	-0.888916	0.583740	-0.009033	0.592234	-0.419881	-0.608879	-0.319724	-131.059038	-81.766036	67.812284	0.054084	0.132611	0.989692	0.890018	0.442952	-0.107989	-0.452706	0.886684	-0.094069	0	0	0
14043	0	0	0	0	0	9.735454	-1.048713	-0.870373	0.001653	0.002010	-0.002252	-0.895996	0.586426	-0.006348	0.592229	-0.419883	-0.608880	-0.319731	-131.063436	-81.766340	67.815959	0.054074	0.132609	0.989692	0.890025	0.442941	-0.107978	-0.452694	0.886689	-0.094074	0	0	0
14044	0	0	0	0	0	9.711624	-1.052162	-0.919118	-0.008217	0.003202	-0.000640	-0.883545	0.593994	-0.005615	0.592214	-0.419908	-0.608863	-0.319758	-131.064875	-81.766594	67.812436	0.054080	0.132602	0.989693	0.890063	0.442865	-0.107972	-0.452617	0.886729	-0.094074	0	0	0
14045	0	0	0	0	0	9.712746	-1.074263	-0.868973	-0.010834	0.005634	-0.001723	-0.890869	0.589111	-0.007080	0.592195	-0.419942	-0.608833	-0.319809	-131.064230	-81.768034	67.803787	0.054091	0.132571	0.989697	0.890126	0.442743	-0.107955	-0.452493	0.886794	-0.094056	0	0	0
14046	0	0	0	0	0	9.730928	-1.092604	-0.949041	-0.015103	0.006057	-0.000554	-0.882568	0.590332	-0.002197	0.592171	-0.419990	-0.608791	-0.319868	-131.060538	-81.769178	67.789826	0.054116	0.132539	0.989699	0.890206	0.442585	-0.107946	-0.452333	0.886878	-0.094036	0	0	0
14047	0	0	0	0	0	9.671141	-0.969771	-0.916500	-0.010397	0.001676	-0.000426	-0.891846	0.587158	-0.002930	0.592142	-0.420033	-0.608770	-0.319905	-131.068088	-81.768567	67.789710	0.054120	0.132549	0.989698	0.890266	0.442465	-0.107942	-0.452214	0.886936	-0.094058	0	0	0
14048	0	0	0	0	0	9.726756	-0.993988	-0.868512	-0.019373	0.006482	0.000615	-0.889404	0.586670	-0.008301	0.592108	-0.420105	-0.608713	-0.319982	-131.063127	-81.769326	67.770625	0.054159	0.132519	0.989700	0.890374	0.442247	-0.107940	-0.451996	0.887049	-0.094040	0	0	0
14049	0	0	0	0	0	9.714087	-1.051524	-0.858072	-0.018499	-0.001436	0.003207	-0.893311	0.590332	-0.009521	0.592058	-0.420188	-0.608681	-0.320026	-131.075159	-81.765975	67.770346	0.054182	0.132572	0.989691	0.890469	0.442050	-0.107964	-0.451806	0.887139	-0.094100	0	0	0
14050	0	0	0	0	0	9.702600	-1.086889	-0.837799	-0.018892	0.004262	0.002283	-0.890625	0.589844	0.002686	0.592031	-0.420249	-0.608639	-0.320077	-131.071535	-81.765352	67.755999	0.054219	0.132568	0.989690	0.890551	0.441882	-0.107978	-0.451641	0.887223	-0.094101	0	0	0
14051	0	0	0	0	0	9.715278	-1.029435	-0.848036	-0.021072	0.002737	0.002497	-0.886963	0.597168	-0.006104	0.591987	-0.420331	-0.608591	-0.320140	-131.074432	-81.763879	67.745001	0.054254	0.132582	0.989686	0.890657	0.441664	-0.107992	-0.451427	0.887330	-0.094123	0	0	0
14052	0	0	0	0	0	9.701537	-1.064712	-0.887433	-0.027477	0.003374	0.004250	-0.886475	0.593018	0.000244	0.591932	-0.420444	-0.608522	-0.320226	-131.073805	-81.761849	67.725272	0.054313	0.132595	0.989681	0.890803	0.441363	-0.108020	-0.451132	0.887478	-0.094145	0	0	0
14053	0	0	0	0	0	9.700177	-1.131663	-0.857559	-0.016803	0.002317	0.001328	-0.883057	0.590820	0.000732	0.591894	-0.420511	-0.608485	-0.320279	-131.078553	-81.760722	67.718615	0.054336	0.132607	0.989678	0.890891	0.441184	-0.108026	-0.450956	0.887565	-0.094166	0	0	0
14054	0	0	0	0	0	9.677529	-1.112901	-0.896619	-0.003511	-0.001177	-0.000513	-0.892822	0.588867	-0.005615	0.591864	-0.420551	-0.608474	-0.320301	-131.090346	-81.758984	67.724356	0.054334	0.132640	0.989674	0.890938	0.441088	-0.108030	-0.450862	0.887608	-0.094208	0	0	0
14055	0	0	0	0	0	9.722812	-1.150275	-0.818868	-0.002225	-0.003263	-0.000159	-0.878662	0.593262	-0.000977	0.591838	-0.420579	-0.608480	-0.320301	-131.107239	-81.756398	67.738411	0.054318	0.132695	0.989667	0.890961	0.441040	-0.108036	-0.450819	0.887623	-0.094270	0	0	0
14056	0	0	0	0	0	9.734432	-1.070275	-0.879140	0.008540	-0.000848	-0.002338	-0.881592	0.591064	-0.005859	0.591838	-0.420568	-0.608498	-0.320284	-131.115438	-81.755674	67.749368	0.054298	0.132717	0.989666	0.890941	0.441082	-0.108032	-0.450862	0.887599	-0.094293	0	0	0
14057	0	0	0	0	0	9.735631	-1.048053	-0.869188	0.006128	-0.001257	0.001594	-0.891602	0.585205	-0.002930	0.591838	-0.420573	-0.608507	-0.320258	-131.117002	-81.753087	67.752769	0.054307	0.132762	0.989659	0.890925	0.441107	-0.108063	-0.450892	0.887581	-0.094326	0	0	0
14058	0	0	0	0	0	9.688948	-1.077659	-0.917487	0.004752	-0.002646	0.000496	-0.888672	0.596436	-0.012695	0.591831	-0.420579	-0.608521	-0.320236	-131.125376	-81.750531	67.762482	0.054301	0.132812	0.989653	0.890914	0.441123	-0.108082	-0.450914	0.887565	-0.094370	0	0	0
14059	0	0	0	0	0	9.721838	-1.083504	-0.908909	0.011728	-0.002029	0.001151	-0.879150	0.590088	-0.007324	0.591840	-0.420568	-0.608543	-0.320193	-131.127173	-81.747844	67.769362	0.054302	0.132861	0.989646	0.890874	0.441198	-0.108114	-0.450994	0.887520	-0.094404	0	0	0
14060	0	0	0	0	0	9.711694	-1.051995	-0.918566	0.005556	-0.002510	-0.000814	-0.886963	0.596191	0.005371	0.591839	-0.420558	-0.608567	-0.320164	-131.137016	-81.745935	67.782936	0.054283	0.132904	0.989641	0.890845	0.441253	-0.108123	-0.451052	0.887486	-0.094445	0	0	0
14061	0	0	0	0	0	9.690057	-1.055657	-0.908238	0.008083	-0.008419	-0.000476	-0.885742	0.590576	0.002197	0.591818	-0.420562	-0.608605	-0.320123	-131.164115	-81.741539	67.813272	0.054242	0.133003	0.989630	0.890822	0.441297	-0.108135	-0.451104	0.887450	-0.094546	0	0	0
14062	0	0	0	0	0	9.712655	-1.074612	-0.869566	0.004564	0.000209	0.004587	-0.889404	0.593506	-0.002686	0.591814	-0.420599	-0.608588	-0.320115	-131.154247	-81.738057	67.800504	0.054294	0.133047	0.989621	0.890840	0.441246	-0.108197	-0.451061	0.887469	-0.094567	0	0	0
14063	0	0	0	0	0	9.722887	-1.061790	-0.899990	0.002045	-0.003687	-0.001327	-0.886475	0.590088	-0.008057	0.591793	-0.420612	-0.608605	-0.320105	-131.172930	-81.735812	67.818841	0.054266	0.133100	0.989616	0.890844	0.441237	-0.108195	-0.451056	0.887465	-0.094627	0	0	0
14064	0	0	0	0	0	9.678468	-1.091374	-0.888651	0.002617	-0.002434	0.001081	-0.883789	0.585449	-0.008301	0.591784	-0.420624	-0.608614	-0.320086	-131.180057	-81.733078	67.826453	0.054266	0.133151	0.989609	0.890840	0.441241	-0.108219	-0.451065	0.887456	-0.094672	0	0	0
14065	0	0	0	0	0	9.698840	-1.109936	-0.909582	0.002894	-0.001813	-0.002267	-0.889160	0.587158	-0.002930	0.591770	-0.420628	-0.608629	-0.320081	-131.195116	-81.731944	67.841620	0.054238	0.133184	0.989606	0.890841	0.441241	-0.108209	-0.451067	0.887450	-0.094713	0	0	0
14066	0	0	0	0	0	9.720443	-1.106063	-0.920514	0.005029	-0.002025	-0.002851	-0.891113	0.591553	-0.001953	0.591762	-0.420617	-0.608651	-0.320065	-131.210037	-81.731123	67.858958	0.054204	0.133213	0.989604	0.890824	0.441278	-0.108195	-0.451104	0.887428	-0.094751	0	0	0
14067	0	0	0	0	0	9.701271	-1.065101	-0.889873	0.005601	-0.000771	-0.000443	-0.884766	0.593750	-0.007568	0.591760	-0.420617	-0.608663	-0.320048	-131.215712	-81.729596	67.866210	0.054197	0.133245	0.989600	0.890812	0.441300	-0.108205	-0.451129	0.887412	-0.094779	0	0	0
14068	0	0	0	0	0	9.713822	-1.052132	-0.860319	0.002984	0.001662	-0.001525	-0.890137	0.593506	0.002686	0.591759	-0.420616	-0.608666	-0.320046	-131.217245	-81.729507	67.868096	0.054193	0.133248	0.989600	0.890809	0.441306	-0.108204	-0.451134	0.887409	-0.094783	0	0	0
14069	0	0	0	0	0	9.712637	-1.074210	-0.870256	0.005029	-0.002025	-0.002851	-0.883545	0.588623	-0.005859	0.591748	-0.420612	-0.608685	-0.320036	-131.233215	-81.728544	67.885419	0.054159	0.133280	0.989598	0.890801	0.441326	-0.108190	-0.451155	0.887394	-0.094824	0	0	0
14070	0	0	0	0	0	9.712649	-1.074053	-0.870318	-0.001331	0.000348	-0.000726	-0.888916	0.592285	-0.006592	0.591731	-0.420635	-0.608679	-0.320048	-131.239493	-81.727559	67.888248	0.054159	0.133298	0.989595	0.890828	0.441271	-0.108192	-0.451102	0.887418	-0.094847	0	0	0
14071	0	0	0	0	0	9.722912	-1.061031	-0.900611	0.003466	-0.000559	0.000142	-0.889404	0.584717	-0.003174	0.591725	-0.420642	-0.608685	-0.320036	-131.244237	-81.725859	67.893322	0.054158	0.133330	0.989591	0.890825	0.441274	-0.108206	-0.451108	0.887412	-0.094875	0	0	0
14072	0	0	0	0	0	9.702670	-0.997832	-0.919610	-0.001286	0.002086	-0.000355	-0.887695	0.591309	-0.004639	0.591721	-0.420653	-0.608680	-0.320042	-131.244134	-81.725498	67.891616	0.054164	0.133334	0.989590	0.890837	0.441248	-0.108211	-0.451083	0.887424	-0.094879	0	0	0
14073	0	0	0	0	0	9.753583	-1.066639	-0.951393	-0.002090	0.001949	0.000956	-0.885498	0.592529	-0.003906	0.591712	-0.420675	-0.608668	-0.320050	-131.242514	-81.724396	67.887043	0.054182	0.133348	0.989587	0.890859	0.441200	-0.108228	-0.451038	0.887446	-0.094889	0	0	0
14074	0	0	0	0	0	9.710418	-1.073949	-0.929625	-0.004752	0.002645	-0.000497	-0.890625	0.594482	-0.001465	0.591700	-0.420699	-0.608653	-0.320072	-131.242930	-81.724227	67.883151	0.054192	0.133347	0.989587	0.890892	0.441133	-0.108230	-0.450971	0.887480	-0.094891	0	0	0
14075	0	0	0	0	0	9.688871	-1.077457	-0.918533	-0.001768	0.004308	-0.002021	-0.893066	0.594482	-0.006104	0.591694	-0.420708	-0.608641	-0.320093	-131.241870	-81.725298	67.879331	0.054194	0.133326	0.989589	0.890914	0.441092	-0.108218	-0.450928	0.887503	-0.094877	0	0	0
14076	0	0	0	0	0	9.733153	-1.092319	-0.890191	-0.001376	-0.001390	-0.001097	-0.891357	0.594727	-0.009277	0.591675	-0.420726	-0.608644	-0.320097	-131.253957	-81.723869	67.889184	0.054180	0.133358	0.989586	0.890932	0.441055	-0.108216	-0.450894	0.887517	-0.094916	0	0	0
14077	0	0	0	0	0	9.745852	-1.034654	-0.900432	-0.003903	0.004519	-0.001437	-0.889160	0.591064	-0.002197	0.591667	-0.420742	-0.608627	-0.320123	-131.251977	-81.724768	67.883198	0.054188	0.133338	0.989588	0.890963	0.440994	-0.108208	-0.450831	0.887550	-0.094902	0	0	0
14078	0	0	0	0	0	9.690049	-1.099398	-0.868016	-0.010263	0.006892	0.000688	-0.885498	0.589600	-0.000244	0.591661	-0.420774	-0.608591	-0.320162	-131.239748	-81.725749	67.864262	0.054226	0.133304	0.989591	0.891013	0.440891	-0.108215	-0.450727	0.887606	-0.094868	0	0	0
14079	0	0	0	0	0	9.710632	-1.073316	-0.928121	-0.008173	0.004943	-0.000267	-0.885254	0.596924	-0.002686	0.591647	-0.420806	-0.608564	-0.320198	-131.235919	-81.726304	67.853935	0.054247	0.133286	0.989592	0.891063	0.440791	-0.108214	-0.450626	0.887659	-0.094855	0	0	0
14080	0	0	0	0	0	9.720826	-1.104715	-0.918088	-0.006520	0.006954	-0.002518	-0.886963	0.590820	0.001953	0.591636	-0.420830	-0.608532	-0.320247	-131.230066	-81.728547	67.841308	0.054261	0.133238	0.989598	0.891116	0.440689	-0.108195	-0.450520	0.887717	-0.094818	0	0	0
14081	0	0	0	0	0	9.713166	-1.028527	-0.907126	-0.002001	0.005425	0.001698	-0.892090	0.584717	-0.006592	0.591640	-0.420848	-0.608509	-0.320260	-131.216163	-81.728437	67.824374	0.054301	0.133224	0.989597	0.891136	0.440641	-0.108219	-0.450474	0.887743	-0.094793	0	0	0
14082	0	0	0	0	0	9.700532	-1.086131	-0.896258	-0.006798	0.006333	0.000830	-0.886230	0.598145	-0.007813	0.591635	-0.420877	-0.608476	-0.320292	-131.203915	-81.729135	67.806291	0.054339	0.133195	0.989599	0.891180	0.440551	-0.108231	-0.450384	0.887792	-0.094762	0	0	0
14083	0	0	0	0	0	9.723389	-1.060072	-0.896578	-0.008700	0.005429	-0.002304	-0.892090	0.599854	-0.000488	0.591618	-0.420904	-0.608451	-0.320337	-131.204230	-81.730751	67.799847	0.054343	0.133163	0.989603	0.891233	0.440448	-0.108209	-0.450278	0.887847	-0.094744	0	0	0
14084	0	0	0	0	0	9.723455	-1.059890	-0.896079	-0.008129	0.006682	0.000104	-0.886230	0.594971	-0.004883	0.591611	-0.420935	-0.608416	-0.320377	-131.192722	-81.731780	67.781686	0.054379	0.133130	0.989606	0.891283	0.440346	-0.108215	-0.450175	0.887903	-0.094711	0	0	0
14085	0	0	0	0	0	9.710978	-1.072786	-0.925100	-0.005512	0.004248	0.001185	-0.895020	0.592529	-0.001465	0.591603	-0.420964	-0.608391	-0.320399	-131.185650	-81.731445	67.769622	0.054409	0.133123	0.989605	0.891320	0.440267	-0.108231	-0.450099	0.887943	-0.094701	0	0	0
14086	0	0	0	0	0	9.711013	-1.072850	-0.924660	-0.003332	0.005774	0.000973	-0.885742	0.585205	-0.001953	0.591604	-0.420984	-0.608365	-0.320419	-131.172290	-81.731822	67.752487	0.054446	0.133101	0.989606	0.891347	0.440208	-0.108248	-0.450041	0.887976	-0.094672	0	0	0
14087	0	0	0	0	0	9.700780	-1.085902	-0.893855	0.000938	0.005350	-0.000196	-0.886719	0.596436	-0.006348	0.591611	-0.420988	-0.608351	-0.320429	-131.161834	-81.732498	67.740738	0.054469	0.133079	0.989608	0.891355	0.440189	-0.108257	-0.450021	0.887989	-0.094644	0	0	0
14088	0	0	0	0	0	9.709911	-1.095139	-0.933590	0.004404	0.004790	-0.000053	-0.887695	0.588135	-0.005127	0.591625	-0.420982	-0.608344	-0.320424	-131.149496	-81.732967	67.729496	0.054492	0.133061	0.989609	0.891345	0.440206	-0.108271	-0.450038	0.887983	-0.094615	0	0	0
14089	0	0	0	0	0	9.713385	-1.073033	-0.863338	0.006539	0.004579	-0.000637	-0.887695	0.586914	-0.003906	0.591641	-0.420969	-0.608342	-0.320416	-131.139264	-81.733542	67.721217	0.054508	0.133044	0.989610	0.891329	0.440237	-0.108280	-0.450069	0.887970	-0.094590	0	0	0
14090	0	0	0	0	0	9.733999	-1.046945	-0.923456	0.003029	0.003401	-0.001151	-0.882813	0.587646	-0.002686	0.591648	-0.420962	-0.608341	-0.320414	-131.134872	-81.734028	67.717735	0.054513	0.133033	0.989611	0.891321	0.440252	-0.108281	-0.450083	0.887964	-0.094576	0	0	0
14091	0	0	0	0	0	9.712297	-1.095107	-0.872323	0.000456	0.007574	-0.001861	-0.891602	0.594238	0.003174	0.591657	-0.420960	-0.608323	-0.320434	-131.122400	-81.736259	67.703670	0.054531	0.132984	0.989617	0.891333	0.440230	-0.108273	-0.450058	0.887982	-0.094527	0	0	0
14092	0	0	0	0	0	9.710135	-1.094836	-0.931616	0.002984	0.001663	-0.001523	-0.879150	0.591797	-0.000488	0.591651	-0.420969	-0.608319	-0.320442	-131.124625	-81.736088	67.704259	0.054530	0.132987	0.989617	0.891346	0.440204	-0.108271	-0.450032	0.887995	-0.094533	0	0	0
14093	0	0	0	0	0	9.721479	-1.104206	-0.911764	0.003599	0.004654	0.001257	-0.886475	0.595459	-0.011719	0.591663	-0.420971	-0.608308	-0.320438	-131.110934	-81.735873	67.690782	0.054563	0.132978	0.989616	0.891342	0.440206	-0.108297	-0.450036	0.887995	-0.094510	0	0	0
14094	0	0	0	0	0	9.723922	-1.059654	-0.891284	0.002547	0.005624	-0.002817	-0.894287	0.595947	0.000000	0.591673	-0.420958	-0.608302	-0.320446	-131.103800	-81.737817	67.684118	0.054566	0.132940	0.989621	0.891338	0.440217	-0.108283	-0.450043	0.887996	-0.094474	0	0	0
14095	0	0	0	0	0	9.712497	-1.094894	-0.870362	0.003644	0.006393	0.001629	-0.897461	0.592285	-0.012695	0.591691	-0.420958	-0.608285	-0.320444	-131.083948	-81.738096	67.664441	0.054610	0.132917	0.989622	0.891334	0.440219	-0.108312	-0.450047	0.887998	-0.094433	0	0	0
14096	0	0	0	0	0	9.689919	-1.076228	-0.908872	0.005164	0.003190	-0.001735	-0.884521	0.591797	-0.005371	0.591704	-0.420939	-0.608292	-0.320432	-131.080144	-81.738781	67.663702	0.054607	0.132905	0.989623	0.891310	0.440267	-0.108310	-0.450094	0.887976	-0.094418	0	0	0
14097	0	0	0	0	0	9.736578	-1.046649	-0.860221	0.005208	0.004928	-0.001363	-0.882568	0.592529	-0.004639	0.591717	-0.420928	-0.608289	-0.320431	-131.071507	-81.739800	67.656264	0.054617	0.132882	0.989626	0.891300	0.440287	-0.108311	-0.450112	0.887969	-0.094390	0	0	0
14098	0	0	0	0	0	9.722943	-1.081800	-0.899066	0.004448	0.006530	0.000318	-0.891846	0.586182	-0.004395	0.591737	-0.420920	-0.608275	-0.320429	-131.052730	-81.740729	67.638515	0.054653	0.132850	0.989628	0.891290	0.440304	-0.108329	-0.450129	0.887966	-0.094344	0	0	0
14099	0	0	0	0	0	9.724010	-1.104210	-0.848589	0.006583	0.006318	-0.000265	-0.895508	0.585449	0.000732	0.591758	-0.420906	-0.608267	-0.320424	-131.036312	-81.741796	67.624011	0.054679	0.132819	0.989631	0.891273	0.440335	-0.108342	-0.450159	0.887955	-0.094301	0	0	0
14100	0	0	0	0	0	9.702634	-1.063180	-0.877210	0.007255	0.001240	-0.002689	-0.880615	0.591064	0.002441	0.591763	-0.420889	-0.608281	-0.320413	-131.040638	-81.742148	67.630969	0.054661	0.132820	0.989632	0.891254	0.440376	-0.108331	-0.450199	0.887934	-0.094305	0	0	0
14101	0	0	0	0	0	9.725437	-1.037441	-0.877704	0.004650	0.003686	0.005332	-0.877930	0.597656	-0.005127	0.591781	-0.420902	-0.608265	-0.320391	-131.018662	-81.739805	67.609730	0.054725	0.132838	0.989626	0.891243	0.440383	-0.108397	-0.450213	0.887929	-0.094290	0	0	0
14102	0	0	0	0	0	9.723074	-1.082070	-0.897314	0.002459	0.002148	-0.003559	-0.885498	0.596436	-0.012695	0.591771	-0.420908	-0.608262	-0.320408	-131.024374	-81.740599	67.613241	0.054712	0.132828	0.989628	0.891261	0.440350	-0.108378	-0.450178	0.887946	-0.094292	0	0	0
14103	0	0	0	0	0	9.701515	-1.085552	-0.886262	0.006494	0.002842	-0.001007	-0.892334	0.592773	0.005615	0.591780	-0.420898	-0.608266	-0.320398	-131.020281	-81.740679	67.611139	0.054716	0.132825	0.989628	0.891245	0.440381	-0.108383	-0.450209	0.887931	-0.094284	0	0	0
14104	0	0	0	0	0	9.723137	-1.081951	-0.896783	0.004840	0.000831	0.001242	-0.887207	0.596924	-0.000977	0.591784	-0.420903	-0.608266	-0.320382	-131.016121	-81.739048	67.607867	0.054735	0.132848	0.989624	0.891236	0.440392	-0.108411	-0.450224	0.887923	-0.094294	0	0	0
14105	0	0	0	0	0	9.715409	-1.005879	-0.886253	0.000849	0.001875	-0.000939	-0.889404	0.596191	-0.002197	0.591778	-0.420911	-0.608264	-0.320387	-131.017967	-81.738734	67.608498	0.054735	0.132854	0.989623	0.891246	0.440372	-0.108413	-0.450206	0.887931	-0.094301	0	0	0
14106	0	0	0	0	0	9.714237	-1.028131	-0.896036	-0.002091	0.001950	0.000954	-0.893555	0.595703	-0.005127	0.591767	-0.420941	-0.608246	-0.320401	-131.015348	-81.737572	67.601627	0.054759	0.132866	0.989620	0.891277	0.440304	-0.108432	-0.450141	0.887964	-0.094310	0	0	0
14107	0	0	0	0	0	9.713075	-1.050379	-0.905725	-0.002572	0.004173	-0.000712	-0.890869	0.582520	-0.001221	0.591762	-0.420956	-0.608231	-0.320420	-131.011724	-81.738023	67.594750	0.054772	0.132852	0.989621	0.891302	0.440254	-0.108432	-0.450090	0.887990	-0.094298	0	0	0
14108	0	0	0	0	0	9.711743	-1.116968	-0.875702	-0.006696	0.000001	-0.004007	-0.887939	0.595947	-0.001221	0.591732	-0.420977	-0.608229	-0.320451	-131.030704	-81.738460	67.608835	0.054736	0.132858	0.989622	0.891343	0.440180	-0.108395	-0.450013	0.888026	-0.094329	0	0	0
14109	0	0	0	0	0	9.701666	-1.085141	-0.885115	-0.001242	0.003825	0.000015	-0.885498	0.587891	-0.004883	0.591730	-0.420991	-0.608216	-0.320463	-131.025471	-81.738467	67.601101	0.054754	0.132851	0.989622	0.891361	0.440140	-0.108404	-0.449974	0.888047	-0.094319	0	0	0
14110	0	0	0	0	0	9.677892	-1.088703	-0.933933	-0.005601	0.000771	0.000439	-0.894287	0.595703	-0.003418	0.591710	-0.421025	-0.608201	-0.320482	-131.029659	-81.737173	67.600175	0.054765	0.132871	0.989619	0.891400	0.440059	-0.108414	-0.449896	0.888084	-0.094341	0	0	0
14111	0	0	0	0	0	9.713007	-1.094446	-0.865215	-0.004708	0.004385	-0.000129	-0.891846	0.590088	-0.007324	0.591702	-0.421048	-0.608181	-0.320506	-131.025119	-81.737453	67.591136	0.054784	0.132857	0.989620	0.891434	0.439989	-0.108417	-0.449826	0.888121	-0.094329	0	0	0
14112	0	0	0	0	0	9.642491	-1.171941	-0.922308	0.000324	0.002360	-0.002976	-0.889160	0.592041	-0.007568	0.591698	-0.421042	-0.608184	-0.320513	-131.029850	-81.738338	67.595756	0.054767	0.132848	0.989622	0.891437	0.439989	-0.108398	-0.449823	0.888122	-0.094328	0	0	0
14113	0	0	0	0	0	9.710543	-1.183078	-0.844877	0.013617	-0.001132	-0.004808	-0.893311	0.593018	0.003418	0.591705	-0.421006	-0.608219	-0.320484	-131.043353	-81.738565	67.615558	0.054720	0.132863	0.989623	0.891391	0.440088	-0.108373	-0.449920	0.888071	-0.094351	0	0	0
14114	0	0	0	0	0	9.724456	-1.102872	-0.845210	0.022158	-0.001977	-0.007140	-0.887451	0.593506	-0.005859	0.591722	-0.420940	-0.608273	-0.320436	-131.059685	-81.739525	67.642839	0.054650	0.132874	0.989625	0.891310	0.440261	-0.108334	-0.450088	0.887983	-0.094371	0	0	0
14115	0	0	0	0	0	9.674729	-1.011437	-0.803179	0.019306	0.001577	-0.004504	-0.886719	0.592529	-0.001465	0.591749	-0.420883	-0.608308	-0.320394	-131.061084	-81.740639	67.653704	0.054618	0.132866	0.989628	0.891238	0.440411	-0.108317	-0.450234	0.887911	-0.094361	0	0	0
14116	0	0	0	0	0	9.714426	-1.070697	-0.854477	0.009827	-0.002930	-0.001975	-0.886475	0.589111	-0.005859	0.591747	-0.420869	-0.608335	-0.320365	-131.073533	-81.738994	67.670260	0.054590	0.132908	0.989624	0.891208	0.440472	-0.108318	-0.450298	0.887874	-0.094403	0	0	0
14117	0	0	0	0	0	9.736006	-1.067110	-0.865456	0.013014	-0.004109	0.001517	-0.886475	0.588135	-0.002197	0.591753	-0.420858	-0.608364	-0.320312	-131.079835	-81.735366	67.682437	0.054586	0.132978	0.989615	0.891161	0.440558	-0.108355	-0.450391	0.887821	-0.094457	0	0	0
14118	0	0	0	0	0	9.703054	-1.061548	-0.874544	0.016714	-0.005785	-0.002056	-0.887939	0.584717	-0.003906	0.591758	-0.420824	-0.608413	-0.320254	-131.097189	-81.732746	67.708448	0.054543	0.133045	0.989608	0.891096	0.440689	-0.108360	-0.450526	0.887746	-0.094519	0	0	0
14119	0	0	0	0	0	9.714506	-1.026263	-0.895266	0.008978	-0.004804	-0.001035	-0.890625	0.593994	-0.005371	0.591750	-0.420819	-0.608443	-0.320220	-131.114463	-81.729957	67.729376	0.054512	0.133109	0.989601	0.891069	0.440742	-0.108368	-0.450583	0.887710	-0.094583	0	0	0
14120	0	0	0	0	0	9.699607	-1.083739	-0.945084	0.004664	-0.006121	-0.000239	-0.887939	0.599609	-0.005127	0.591733	-0.420825	-0.608471	-0.320189	-131.134947	-81.726455	67.752015	0.054483	0.133187	0.989592	0.891053	0.440770	-0.108380	-0.450618	0.887684	-0.094662	0	0	0
14121	0	0	0	0	0	9.745979	-1.098654	-0.857643	0.004094	-0.007376	-0.002647	-0.888428	0.593994	-0.003418	0.591703	-0.420833	-0.608505	-0.320170	-131.166796	-81.723390	67.784843	0.054426	0.133267	0.989585	0.891049	0.440782	-0.108367	-0.450633	0.887666	-0.094757	0	0	0
14122	0	0	0	0	0	9.700566	-1.105613	-0.896343	0.002326	-0.003068	-0.004671	-0.888428	0.598145	-0.000488	0.591682	-0.420833	-0.608526	-0.320170	-131.190607	-81.722824	67.808623	0.054375	0.133298	0.989583	0.891053	0.440782	-0.108335	-0.450631	0.887661	-0.094809	0	0	0
14123	0	0	0	0	0	9.725548	-1.079450	-0.837813	0.011069	-0.006752	-0.001988	-0.888184	0.591309	-0.004150	0.591670	-0.420821	-0.608567	-0.320128	-131.214870	-81.719706	67.837824	0.054327	0.133376	0.989575	0.891017	0.440855	-0.108335	-0.450708	0.887614	-0.094890	0	0	0
14124	0	0	0	0	0	9.723310	-1.079362	-0.898020	0.003377	-0.004035	-0.000596	-0.883057	0.593506	-0.007813	0.591651	-0.420836	-0.608582	-0.320115	-131.230732	-81.717004	67.853491	0.054308	0.133434	0.989569	0.891019	0.440848	-0.108344	-0.450706	0.887608	-0.094951	0	0	0
14125	0	0	0	0	0	9.701707	-1.082772	-0.887563	0.004460	-0.003279	-0.005254	-0.891357	0.590820	-0.011963	0.591631	-0.420828	-0.608610	-0.320110	-131.256943	-81.716602	67.880835	0.054247	0.133466	0.989568	0.891014	0.440866	-0.108306	-0.450722	0.887594	-0.095005	0	0	0
14126	0	0	0	0	0	9.711998	-1.069376	-0.918319	0.007033	-0.007449	-0.004540	-0.895264	0.588867	-0.000244	0.591615	-0.420804	-0.608662	-0.320071	-131.290033	-81.714512	67.919851	0.054170	0.133537	0.989562	0.890973	0.440957	-0.108278	-0.450813	0.887539	-0.095091	0	0	0
14127	0	0	0	0	0	9.724498	-1.056013	-0.889319	0.002325	-0.003068	-0.004671	-0.878662	0.593506	0.001221	0.591592	-0.420804	-0.608684	-0.320072	-131.315319	-81.713935	67.945024	0.054115	0.133570	0.989561	0.890978	0.440956	-0.108243	-0.450810	0.887534	-0.095145	0	0	0
14128	0	0	0	0	0	9.712000	-1.068700	-0.919085	0.002047	-0.003687	-0.001323	-0.889404	0.600586	-0.008545	0.591567	-0.420826	-0.608694	-0.320071	-131.333294	-81.711646	67.960954	0.054093	0.133621	0.989555	0.890995	0.440921	-0.108243	-0.450779	0.887544	-0.095205	0	0	0
14129	0	0	0	0	0	9.714348	-1.024009	-0.899543	0.000716	-0.003340	-0.002050	-0.890137	0.590332	-0.007568	0.591544	-0.420839	-0.608709	-0.320068	-131.353485	-81.709836	67.980046	0.054060	0.133668	0.989551	0.891006	0.440902	-0.108233	-0.450762	0.887546	-0.095264	0	0	0
14130	0	0	0	0	0	9.713152	-1.046142	-0.909797	-0.005688	-0.002709	-0.000300	-0.881836	0.584717	-0.009766	0.591520	-0.420863	-0.608715	-0.320069	-131.368944	-81.707649	67.993006	0.054044	0.133716	0.989545	0.891026	0.440860	-0.108236	-0.450724	0.887560	-0.095318	0	0	0
14131	0	0	0	0	0	9.735904	-1.020126	-0.911036	-0.013468	-0.003469	0.000353	-0.882813	0.592285	-0.002686	0.591471	-0.420926	-0.608702	-0.320103	-131.391380	-81.704755	68.006155	0.054032	0.133774	0.989538	0.891099	0.440712	-0.108236	-0.450580	0.887625	-0.095394	0	0	0
14132	0	0	0	0	0	9.722215	-1.055078	-0.950795	-0.008876	-0.001532	-0.003792	-0.881104	0.593750	-0.001465	0.591436	-0.420951	-0.608704	-0.320131	-131.414635	-81.704499	68.024341	0.053991	0.133796	0.989537	0.891142	0.440634	-0.108201	-0.450501	0.887660	-0.095441	0	0	0
14133	0	0	0	0	0	9.731171	-1.108697	-0.951441	-0.009958	-0.002288	0.000867	-0.886475	0.592041	-0.007324	0.591398	-0.421003	-0.608693	-0.320154	-131.430223	-81.701831	68.032603	0.053989	0.133846	0.989530	0.891199	0.440516	-0.108209	-0.450388	0.887711	-0.095501	0	0	0
14134	0	0	0	0	0	9.699285	-1.125373	-0.910446	-0.007691	0.002717	0.001394	-0.888428	0.592041	-0.014648	0.591383	-0.421039	-0.608670	-0.320177	-131.426842	-81.700870	68.023515	0.054016	0.133853	0.989528	0.891242	0.440426	-0.108227	-0.450300	0.887755	-0.095505	0	0	0
14135	0	0	0	0	0	9.723257	-1.077044	-0.901378	-0.009681	-0.001667	-0.002481	-0.880371	0.595215	0.001709	0.591342	-0.421079	-0.608664	-0.320211	-131.449138	-81.699875	68.038716	0.053987	0.133883	0.989525	0.891300	0.440315	-0.108203	-0.450189	0.887805	-0.095559	0	0	0
14136	0	0	0	0	0	9.711947	-1.067394	-0.921163	-0.009681	-0.001667	-0.002481	-0.889404	0.593018	-0.002197	0.591308	-0.421111	-0.608662	-0.320236	-131.469537	-81.698965	68.053585	0.053958	0.133912	0.989523	0.891345	0.440229	-0.108181	-0.450103	0.887844	-0.095608	0	0	0
14137	0	0	0	0	0	9.710783	-1.089285	-0.931368	-0.011012	-0.001319	-0.003208	-0.898193	0.584961	-0.008057	0.591264	-0.421152	-0.608655	-0.320277	-131.493453	-81.698412	68.069653	0.053924	0.133936	0.989522	0.891409	0.440107	-0.108148	-0.449980	0.887900	-0.095659	0	0	0
14138	0	0	0	0	0	9.709620	-1.111235	-0.941502	-0.008306	-0.000275	-0.001384	-0.893799	0.589111	-0.004639	0.591239	-0.421177	-0.608651	-0.320297	-131.506884	-81.697690	68.078800	0.053908	0.133956	0.989520	0.891444	0.440040	-0.108135	-0.449914	0.887931	-0.095693	0	0	0
14139	0	0	0	0	0	9.722156	-1.097866	-0.912195	-0.009403	-0.001045	-0.005828	-0.883301	0.595459	-0.004150	0.591195	-0.421205	-0.608651	-0.320341	-131.535890	-81.698364	68.100943	0.053851	0.133966	0.989522	0.891502	0.439936	-0.108078	-0.449805	0.887980	-0.095740	0	0	0
14140	0	0	0	0	0	9.723385	-1.075173	-0.902229	-0.003949	0.002780	-0.001809	-0.885254	0.591797	-0.006592	0.591186	-0.421217	-0.608643	-0.320359	-131.538643	-81.698868	68.100860	0.053848	0.133958	0.989523	0.891524	0.439893	-0.108067	-0.449761	0.888003	-0.095739	0	0	0
14141	0	0	0	0	0	9.667728	-1.095036	-0.910238	-0.000380	-0.004109	-0.006497	-0.891846	0.588623	-0.001465	0.591151	-0.421221	-0.608667	-0.320371	-131.573228	-81.698662	68.133865	0.053773	0.133992	0.989522	0.891542	0.439870	-0.108011	-0.449734	0.888009	-0.095807	0	0	0
14142	0	0	0	0	0	9.734793	-1.083596	-0.882886	0.002456	0.002149	-0.003560	-0.887695	0.598389	-0.002441	0.591150	-0.421209	-0.608675	-0.320374	-131.578884	-81.699698	68.140437	0.053750	0.133982	0.989525	0.891537	0.439887	-0.107989	-0.449747	0.888003	-0.095806	0	0	0
14143	0	0	0	0	0	9.722334	-1.096078	-0.912455	0.008686	-0.005434	-0.006794	-0.890869	0.593018	-0.014160	0.591129	-0.421188	-0.608719	-0.320356	-131.612943	-81.699112	68.178160	0.053666	0.134026	0.989524	0.891514	0.439945	-0.107939	-0.449802	0.887967	-0.095876	0	0	0
14144	0	0	0	0	0	9.746332	-1.047266	-0.903486	0.006156	0.000475	-0.007136	-0.883545	0.592529	-0.006348	0.591131	-0.421148	-0.608751	-0.320346	-131.629809	-81.701073	68.199941	0.053603	0.134015	0.989528	0.891481	0.440026	-0.107886	-0.449876	0.887929	-0.095886	0	0	0
14145	0	0	0	0	0	9.678193	-1.079953	-0.940948	0.004460	-0.003275	-0.005256	-0.885498	0.595703	-0.007568	0.591110	-0.421140	-0.608778	-0.320341	-131.655940	-81.700646	68.227205	0.053541	0.134048	0.989527	0.891476	0.440044	-0.107847	-0.449893	0.887915	-0.095940	0	0	0
14146	0	0	0	0	0	9.724831	-1.049916	-0.892890	0.008817	-0.000219	-0.005682	-0.886230	0.588135	0.001709	0.591115	-0.421103	-0.608809	-0.320322	-131.669658	-81.701658	68.246403	0.053490	0.134049	0.989530	0.891437	0.440132	-0.107811	-0.449976	0.887871	-0.095954	0	0	0
14147	0	0	0	0	0	9.711331	-1.040115	-0.972013	0.006726	0.001729	-0.004728	-0.889893	0.595947	-0.004883	0.591115	-0.421083	-0.608825	-0.320319	-131.678428	-81.702910	68.257435	0.053456	0.134040	0.989533	0.891422	0.440170	-0.107780	-0.450010	0.887853	-0.095956	0	0	0
14148	0	0	0	0	0	9.701013	-1.097236	-0.901780	0.008774	-0.001956	-0.006052	-0.898438	0.594971	-0.003662	0.591107	-0.421059	-0.608855	-0.320308	-131.699274	-81.703351	68.281571	0.053397	0.134055	0.989534	0.891401	0.440223	-0.107740	-0.450059	0.887825	-0.095990	0	0	0
14149	0	0	0	0	0	9.732837	-1.124724	-0.902752	0.018014	0.003674	-0.004868	-0.892334	0.588623	-0.007568	0.591137	-0.421002	-0.608883	-0.320276	-131.696244	-81.705403	68.287214	0.053371	0.134027	0.989539	0.891335	0.440362	-0.107718	-0.450192	0.887760	-0.095961	0	0	0
14150	0	0	0	0	0	9.715965	-1.039027	-0.852014	0.020501	-0.003970	-0.004895	-0.890625	0.586426	-0.010254	0.591156	-0.420936	-0.608944	-0.320210	-131.712957	-81.704751	68.316475	0.053306	0.134065	0.989538	0.891241	0.440557	-0.107699	-0.450386	0.887658	-0.096000	0	0	0
14151	0	0	0	0	0	9.714907	-1.016638	-0.901866	0.014710	-0.000348	-0.000367	-0.887207	0.589111	-0.002197	0.591174	-0.420909	-0.608969	-0.320166	-131.711852	-81.703344	68.322151	0.053302	0.134093	0.989534	0.891188	0.440660	-0.107719	-0.450492	0.887602	-0.096014	0	0	0
14152	0	0	0	0	0	9.725184	-1.003657	-0.932034	0.014183	0.000136	-0.002404	-0.882080	0.589355	-0.006104	0.591197	-0.420863	-0.609002	-0.320120	-131.713561	-81.703192	68.332534	0.053279	0.134105	0.989534	0.891121	0.440794	-0.107718	-0.450626	0.887534	-0.096019	0	0	0
14153	0	0	0	0	0	9.727418	-1.003754	-0.872160	0.015237	-0.000830	0.001671	-0.885742	0.594482	0.004639	0.591217	-0.420841	-0.609025	-0.320068	-131.708239	-81.700730	68.334253	0.053290	0.134146	0.989528	0.891064	0.440899	-0.107759	-0.450737	0.887475	-0.096037	0	0	0
14154	0	0	0	0	0	9.714901	-1.016930	-0.901604	0.012531	-0.001875	-0.000153	-0.889160	0.596436	-0.005859	0.591224	-0.420830	-0.609045	-0.320032	-131.711280	-81.698605	68.341644	0.053287	0.134187	0.989522	0.891030	0.440963	-0.107781	-0.450806	0.887437	-0.096067	0	0	0
14155	0	0	0	0	0	9.748957	-1.000474	-0.883098	0.010880	-0.003887	0.002099	-0.889648	0.593506	-0.004395	0.591227	-0.420827	-0.609069	-0.319985	-131.716293	-81.694795	68.351284	0.053288	0.134257	0.989513	0.890993	0.441029	-0.107822	-0.450880	0.887394	-0.096121	0	0	0
14156	0	0	0	0	0	9.725091	-1.004580	-0.932006	0.006784	0.003485	0.004743	-0.896240	0.590088	-0.005615	0.591253	-0.420825	-0.609062	-0.319953	-131.693531	-81.692741	68.331661	0.053347	0.134272	0.989507	0.890963	0.441073	-0.107886	-0.450931	0.887370	-0.096101	0	0	0
14157	0	0	0	0	0	9.689719	-1.088381	-0.920395	-0.000760	0.001602	0.001680	-0.892578	0.587158	-0.013184	0.591247	-0.420847	-0.609052	-0.319954	-131.690230	-81.691202	68.326160	0.053370	0.134292	0.989504	0.890978	0.441036	-0.107912	-0.450898	0.887386	-0.096113	0	0	0
14158	0	0	0	0	0	9.707914	-1.107051	-1.000776	-0.001331	0.000346	-0.000727	-0.891846	0.584717	-0.005127	0.591246	-0.420841	-0.609063	-0.319942	-131.695571	-81.690533	68.333065	0.053358	0.134309	0.989502	0.890967	0.441059	-0.107911	-0.450922	0.887371	-0.096131	0	0	0
14159	0	0	0	0	0	9.721582	-1.072058	-0.961101	-0.003042	0.006407	0.006719	-0.885010	0.596436	-0.007324	0.591258	-0.420877	-0.609025	-0.319946	-131.666359	-81.688668	68.300057	0.053447	0.134308	0.989497	0.890990	0.440995	-0.107984	-0.450867	0.887403	-0.096097	0	0	0
14160	0	0	0	0	0	9.711199	-1.129995	-0.890424	-0.004986	0.003759	0.003216	-0.888916	0.591309	-0.008057	0.591260	-0.420901	-0.609004	-0.319951	-131.653652	-81.687444	68.284434	0.053492	0.134313	0.989494	0.891009	0.440947	-0.108022	-0.450823	0.887427	-0.096087	0	0	0
14161	0	0	0	0	0	9.689735	-1.089296	-0.919143	-0.003335	0.005771	0.000965	-0.887451	0.596436	-0.001221	0.591260	-0.420921	-0.608979	-0.319971	-131.641484	-81.687798	68.268481	0.053527	0.134292	0.989495	0.891036	0.440888	-0.108037	-0.450765	0.887459	-0.096060	0	0	0
14162	0	0	0	0	0	9.737517	-1.037634	-0.860515	-0.003569	0.006890	0.004682	-0.893311	0.594238	0.001221	0.591274	-0.420947	-0.608944	-0.319979	-131.614996	-81.687051	68.238788	0.053601	0.134277	0.989493	0.891056	0.440835	-0.108091	-0.450717	0.887488	-0.096019	0	0	0
14163	0	0	0	0	0	9.689775	-1.089762	-0.918162	-0.005557	0.002504	0.000809	-0.889404	0.588867	0.003174	0.591259	-0.420978	-0.608926	-0.319999	-131.614084	-81.686227	68.232924	0.053620	0.134284	0.989491	0.891093	0.440756	-0.108104	-0.450641	0.887525	-0.096026	0	0	0
14164	0	0	0	0	0	9.701244	-1.054669	-0.938124	-0.000630	0.006817	0.002789	-0.888672	0.588135	-0.006592	0.591266	-0.421005	-0.608890	-0.320018	-131.592296	-81.686164	68.206721	0.053682	0.134261	0.989491	0.891124	0.440686	-0.108141	-0.450574	0.887564	-0.095986	0	0	0
14165	0	0	0	0	0	9.712597	-1.064250	-0.917940	-0.002765	0.007027	0.003372	-0.888916	0.593262	-0.004883	0.591276	-0.421029	-0.608858	-0.320031	-131.569853	-81.685961	68.180714	0.053744	0.134240	0.989490	0.891147	0.440629	-0.108181	-0.450520	0.887595	-0.095946	0	0	0
14166	0	0	0	0	0	9.721725	-1.074016	-0.957456	-0.006465	0.008702	0.006945	-0.887451	0.588379	-0.006104	0.591294	-0.421062	-0.608811	-0.320041	-131.533885	-81.685009	68.140584	0.053845	0.134217	0.989488	0.891172	0.440560	-0.108254	-0.450459	0.887633	-0.095889	0	0	0
14167	0	0	0	0	0	9.744398	-1.092872	-0.917723	-0.005996	0.006464	-0.000490	-0.894775	0.587158	-0.001465	0.591289	-0.421084	-0.608783	-0.320075	-131.524984	-81.686246	68.126392	0.053870	0.134184	0.989491	0.891212	0.440480	-0.108253	-0.450377	0.887678	-0.095858	0	0	0
14168	0	0	0	0	0	9.711539	-1.087250	-0.925850	-0.011027	0.008486	0.002356	-0.891357	0.596924	-0.002197	0.591288	-0.421121	-0.608738	-0.320116	-131.504743	-81.687193	68.098876	0.053928	0.134143	0.989493	0.891265	0.440367	-0.108274	-0.450265	0.887740	-0.095809	0	0	0
14169	0	0	0	0	0	9.720719	-1.096555	-0.965441	-0.011597	0.007232	-0.000051	-0.890869	0.583252	0.000244	0.591274	-0.421159	-0.608698	-0.320167	-131.495650	-81.688532	68.081248	0.053961	0.134105	0.989497	0.891330	0.440236	-0.108272	-0.450132	0.887811	-0.095776	0	0	0
14170	0	0	0	0	0	9.699044	-1.144684	-0.914132	-0.005953	0.008204	-0.000119	-0.891357	0.591553	-0.006104	0.591274	-0.421182	-0.608662	-0.320205	-131.480005	-81.690332	68.059835	0.053999	0.134056	0.989501	0.891373	0.440149	-0.108275	-0.450043	0.887862	-0.095726	0	0	0
14171	0	0	0	0	0	9.723042	-1.096473	-0.904397	-0.003335	0.005772	0.000965	-0.882568	0.587646	0.000244	0.591275	-0.421202	-0.608637	-0.320225	-131.467816	-81.690680	68.043862	0.054034	0.134035	0.989502	0.891400	0.440090	-0.108291	-0.449984	0.887894	-0.095699	0	0	0
14172	0	0	0	0	0	9.701520	-1.100141	-0.892748	0.000583	0.012791	-0.000757	-0.893066	0.583496	-0.001709	0.591304	-0.421192	-0.608601	-0.320252	-131.436160	-81.694504	68.010752	0.054087	0.133943	0.989512	0.891409	0.440072	-0.108294	-0.449961	0.887917	-0.095596	0	0	0
14173	0	0	0	0	0	9.732373	-1.105640	-0.942656	0.002631	0.009104	-0.002080	-0.893311	0.589844	-0.002197	0.591323	-0.421180	-0.608582	-0.320270	-131.418645	-81.697421	67.992851	0.054110	0.133879	0.989519	0.891411	0.440070	-0.108286	-0.449955	0.887927	-0.095529	0	0	0
14174	0	0	0	0	0	9.722165	-1.118559	-0.911472	0.001022	0.008831	0.000541	-0.893311	0.596680	0.001953	0.591343	-0.421178	-0.608557	-0.320283	-131.395541	-81.699260	67.968751	0.054155	0.133827	0.989524	0.891416	0.440056	-0.108300	-0.449939	0.887942	-0.095464	0	0	0
14175	0	0	0	0	0	9.701828	-1.099762	-0.889865	0.006376	0.009168	-0.005281	-0.891357	0.592041	-0.007324	0.591364	-0.421145	-0.608551	-0.320299	-131.383983	-81.703576	67.959038	0.054149	0.133749	0.989535	0.891402	0.440092	-0.108264	-0.449966	0.887936	-0.095393	0	0	0
14176	0	0	0	0	0	9.679354	-1.080758	-0.927992	0.005571	0.009031	-0.003971	-0.890137	0.594482	-0.004639	0.591387	-0.421117	-0.608540	-0.320312	-131.368770	-81.707327	67.945362	0.054157	0.133676	0.989544	0.891391	0.440121	-0.108240	-0.449988	0.887932	-0.095322	0	0	0
14177	0	0	0	0	0	9.724852	-1.073088	-0.888797	0.005571	0.009032	-0.003971	-0.888672	0.597168	-0.010254	0.591409	-0.421090	-0.608531	-0.320327	-131.354646	-81.711027	67.932590	0.054163	0.133605	0.989554	0.891381	0.440148	-0.108216	-0.450008	0.887930	-0.095253	0	0	0
14178	0	0	0	0	0	9.713517	-1.107917	-0.867488	0.008511	0.008959	-0.005863	-0.890625	0.596436	-0.008057	0.591441	-0.421038	-0.608536	-0.320327	-131.341980	-81.715623	67.925143	0.054150	0.133524	0.989565	0.891342	0.440236	-0.108177	-0.450087	0.887898	-0.095177	0	0	0
14179	0	0	0	0	0	9.705825	-1.031302	-0.856276	0.008511	0.008960	-0.005863	-0.887207	0.595703	-0.002930	0.591465	-0.420997	-0.608535	-0.320337	-131.331278	-81.720109	67.917531	0.054139	0.133445	0.989576	0.891319	0.440292	-0.108137	-0.450132	0.887883	-0.095105	0	0	0
14180	0	0	0	0	0	9.726410	-1.049629	-0.875864	0.011782	0.011263	-0.001629	-0.885986	0.593018	-0.008789	0.591515	-0.420950	-0.608525	-0.320325	-131.299169	-81.723691	67.891207	0.054177	0.133363	0.989585	0.891272	0.440386	-0.108144	-0.450222	0.887848	-0.095004	0	0	0
14181	0	0	0	0	0	9.702614	-1.097576	-0.883967	0.006332	0.007431	-0.005651	-0.881836	0.594727	-0.006104	0.591530	-0.420918	-0.608525	-0.320339	-131.293659	-81.727507	67.887581	0.054160	0.133298	0.989595	0.891259	0.440422	-0.108103	-0.450249	0.887840	-0.094950	0	0	0
14182	0	0	0	0	0	9.714196	-1.062009	-0.903496	0.013831	0.007577	-0.002950	-0.889404	0.590088	-0.003662	0.591573	-0.420864	-0.608535	-0.320314	-131.274391	-81.730285	67.876000	0.054169	0.133243	0.989602	0.891199	0.440545	-0.108099	-0.450367	0.887787	-0.094882	0	0	0
14183	0	0	0	0	0	9.715434	-1.039589	-0.892779	0.009517	0.006257	-0.002157	-0.897461	0.596924	0.002686	0.591597	-0.420836	-0.608535	-0.320305	-131.261434	-81.732152	67.866693	0.054179	0.133204	0.989607	0.891170	0.440604	-0.108096	-0.450424	0.887764	-0.094836	0	0	0
14184	0	0	0	0	0	9.737139	-1.035771	-0.902718	0.008230	0.008342	-0.002515	-0.888184	0.591553	-0.008545	0.591621	-0.420813	-0.608524	-0.320311	-131.243389	-81.734959	67.850300	0.054199	0.133144	0.989614	0.891156	0.440634	-0.108090	-0.450449	0.887758	-0.094770	0	0	0
14185	0	0	0	0	0	9.714481	-1.061531	-0.900998	0.010365	0.008134	-0.003096	-0.895508	0.592285	-0.011230	0.591651	-0.420776	-0.608522	-0.320307	-131.226808	-81.737939	67.837822	0.054208	0.133084	0.989621	0.891123	0.440702	-0.108078	-0.450511	0.887733	-0.094705	0	0	0
14186	0	0	0	0	0	9.704242	-1.074413	-0.869827	0.006619	0.008070	0.000104	-0.885986	0.594971	-0.002686	0.591690	-0.420742	-0.608519	-0.320287	-131.202327	-81.739745	67.818558	0.054241	0.133037	0.989626	0.891080	0.440785	-0.108095	-0.450592	0.887699	-0.094638	0	0	0
14187	0	0	0	0	0	9.714643	-1.061513	-0.899266	0.008754	0.007861	-0.000477	-0.885254	0.590088	-0.004639	0.591720	-0.420718	-0.608510	-0.320279	-131.180647	-81.741492	67.799995	0.054273	0.132992	0.989630	0.891054	0.440835	-0.108109	-0.450641	0.887681	-0.094577	0	0	0
14188	0	0	0	0	0	9.703250	-1.096733	-0.878018	0.007424	0.008207	-0.001205	-0.883789	0.591064	-0.008301	0.591747	-0.420698	-0.608498	-0.320280	-131.159373	-81.743680	67.780702	0.054303	0.132938	0.989636	0.891037	0.440868	-0.108115	-0.450671	0.887673	-0.094512	0	0	0
14189	0	0	0	0	0	9.738514	-1.057672	-0.848660	0.009474	0.004519	-0.002525	-0.888672	0.585693	-0.006104	0.591765	-0.420672	-0.608504	-0.320268	-131.152522	-81.745048	67.777540	0.054302	0.132914	0.989639	0.891008	0.440928	-0.108109	-0.450728	0.887647	-0.094484	0	0	0
14190	0	0	0	0	0	9.704530	-1.074337	-0.866709	0.007948	0.007726	0.000833	-0.887451	0.600098	0.001221	0.591801	-0.420645	-0.608496	-0.320251	-131.126839	-81.746324	67.756063	0.054343	0.132873	0.989642	0.890972	0.440994	-0.108134	-0.450794	0.887620	-0.094421	0	0	0
14191	0	0	0	0	0	9.715894	-1.083462	-0.846428	0.007620	0.005348	-0.005291	-0.891113	0.594238	0.000000	0.591814	-0.420615	-0.608503	-0.320255	-131.125768	-81.749198	67.757668	0.054321	0.132828	0.989649	0.890954	0.441040	-0.108099	-0.450834	0.887604	-0.094386	0	0	0
14192	0	0	0	0	0	9.696617	-1.042389	-0.815337	0.005728	0.004456	0.000675	-0.887939	0.588867	-0.006348	0.591822	-0.420624	-0.608487	-0.320258	-131.112238	-81.749020	67.742983	0.054356	0.132817	0.989649	0.890960	0.441021	-0.108123	-0.450817	0.887615	-0.094363	0	0	0
14193	0	0	0	0	0	9.727487	-1.048103	-0.865670	0.005246	0.006678	-0.000994	-0.886719	0.590820	-0.004639	0.591841	-0.420611	-0.608478	-0.320259	-131.097396	-81.750540	67.729298	0.054378	0.132780	0.989653	0.890950	0.441041	-0.108128	-0.450835	0.887610	-0.094317	0	0	0
14194	0	0	0	0	0	9.716252	-1.038902	-0.884640	0.001457	0.004874	0.001836	-0.888428	0.592041	-0.002686	0.591853	-0.420617	-0.608463	-0.320257	-131.081521	-81.750254	67.713071	0.054417	0.132769	0.989652	0.890949	0.441034	-0.108158	-0.450830	0.887616	-0.094291	0	0	0
14195	0	0	0	0	0	9.725681	-1.003911	-0.964384	-0.002051	0.003689	0.001318	-0.891846	0.591064	-0.002197	0.591851	-0.420637	-0.608445	-0.320267	-131.073754	-81.749649	67.702312	0.054446	0.132769	0.989651	0.890971	0.440986	-0.108179	-0.450785	0.887639	-0.094283	0	0	0
14196	0	0	0	0	0	9.703863	-1.052218	-0.913457	-0.002899	0.001812	0.002259	-0.900391	0.587402	-0.003418	0.591841	-0.420670	-0.608427	-0.320278	-131.068876	-81.747956	67.693248	0.054478	0.132787	0.989646	0.891001	0.440918	-0.108209	-0.450721	0.887671	-0.094293	0	0	0
14197	0	0	0	0	0	9.711729	-1.128475	-0.923443	-0.007694	0.002712	0.001381	-0.888428	0.591553	-0.000977	0.591824	-0.420709	-0.608403	-0.320303	-131.067091	-81.746956	67.685267	0.054503	0.132795	0.989644	0.891048	0.440819	-0.108225	-0.450626	0.887718	-0.094301	0	0	0
14198	0	0	0	0	0	9.702570	-1.118953	-0.882936	-0.002293	0.004789	-0.004067	-0.891602	0.588867	-0.007568	0.591815	-0.420714	-0.608392	-0.320335	-131.069731	-81.749189	67.684549	0.054490	0.132759	0.989649	0.891075	0.440771	-0.108191	-0.450572	0.887748	-0.094281	0	0	0
14199	0	0	0	0	0	9.735536	-1.124311	-0.873692	0.003026	0.003407	-0.001151	-0.889404	0.596924	0.000732	0.591819	-0.420712	-0.608388	-0.320337	-131.066305	-81.749544	67.681115	0.054496	0.132750	0.989650	0.891075	0.440772	-0.108192	-0.450572	0.887749	-0.094270	0	0	0
14200	0	0	0	0	0	9.704968	-1.073965	-0.862252	0.002544	0.005630	-0.002820	-0.881836	0.594727	-0.002686	0.591826	-0.420704	-0.608380	-0.320351	-131.059861	-81.751493	67.674154	0.054499	0.132712	0.989655	0.891079	0.440767	-0.108177	-0.450563	0.887757	-0.094236	0	0	0
14201	0	0	0	0	0	9.727800	-1.047803	-0.862506	0.003874	0.005284	-0.002091	-0.893066	0.588623	-0.004639	0.591835	-0.420694	-0.608374	-0.320357	-131.052795	-81.752961	67.667532	0.054505	0.132683	0.989659	0.891076	0.440776	-0.108170	-0.450570	0.887757	-0.094206	0	0	0
14202	0	0	0	0	0	9.693833	-1.064332	-0.880705	0.001738	0.005493	-0.001511	-0.882568	0.591064	-0.007324	0.591842	-0.420694	-0.608361	-0.320369	-131.043738	-81.754284	67.657407	0.054520	0.132652	0.989662	0.891083	0.440761	-0.108168	-0.450553	0.887769	-0.094174	0	0	0
14203	0	0	0	0	0	9.736005	-1.079178	-0.911595	0.003026	0.003408	-0.001151	-0.885498	0.587402	-0.006592	0.591845	-0.420692	-0.608358	-0.320371	-131.040308	-81.754640	67.653968	0.054525	0.132643	0.989663	0.891083	0.440761	-0.108169	-0.450553	0.887770	-0.094163	0	0	0
14204	0	0	0	0	0	9.693915	-1.064240	-0.879906	0.003550	0.002926	0.000887	-0.890381	0.582031	-0.004639	0.591857	-0.420689	-0.608356	-0.320358	-131.031163	-81.754042	67.646352	0.054547	0.132645	0.989662	0.891069	0.440783	-0.108191	-0.450577	0.887759	-0.094153	0	0	0
14205	0	0	0	0	0	9.738321	-1.034640	-0.891187	0.000848	0.001877	-0.000940	-0.895508	0.591309	-0.004150	0.591851	-0.420697	-0.608354	-0.320363	-131.032999	-81.753730	67.646974	0.054547	0.132651	0.989661	0.891079	0.440764	-0.108192	-0.450559	0.887767	-0.094160	0	0	0
14206	0	0	0	0	0	9.715604	-1.060462	-0.890076	-0.003905	0.004516	-0.001450	-0.893555	0.588135	-0.005371	0.591846	-0.420708	-0.608339	-0.320385	-131.030352	-81.754810	67.641156	0.054554	0.132628	0.989663	0.891104	0.440716	-0.108183	-0.450509	0.887794	-0.094142	0	0	0
14207	0	0	0	0	0	9.714505	-1.082756	-0.899623	-0.000722	0.003344	0.002047	-0.895020	0.593506	-0.002930	0.591847	-0.420727	-0.608323	-0.320389	-131.020960	-81.753758	67.629524	0.054588	0.132634	0.989661	0.891118	0.440679	-0.108212	-0.450475	0.887812	-0.094137	0	0	0
14208	0	0	0	0	0	9.692891	-1.086573	-0.888579	-0.002051	0.003689	0.001318	-0.888428	0.592285	-0.004150	0.591847	-0.420744	-0.608307	-0.320397	-131.012351	-81.753276	67.618488	0.054616	0.132631	0.989660	0.891135	0.440640	-0.108232	-0.450439	0.887832	-0.094126	0	0	0
14209	0	0	0	0	0	9.705317	-1.073611	-0.858762	0.004355	0.003063	-0.000421	-0.891602	0.594727	-0.003174	0.591853	-0.420741	-0.608305	-0.320392	-131.007295	-81.753186	67.614177	0.054627	0.132628	0.989659	0.891129	0.440651	-0.108242	-0.450451	0.887827	-0.094117	0	0	0
14210	0	0	0	0	0	9.725837	-1.092289	-0.879048	0.003549	0.002926	0.000888	-0.887451	0.592041	-0.011963	0.591860	-0.420746	-0.608298	-0.320386	-130.998606	-81.752505	67.605553	0.054651	0.132631	0.989658	0.891126	0.440651	-0.108265	-0.450452	0.887827	-0.094109	0	0	0
14211	0	0	0	0	0	9.704468	-1.051480	-0.907864	0.005203	0.004939	-0.001361	-0.882813	0.591797	-0.002686	0.591872	-0.420735	-0.608295	-0.320385	-130.989902	-81.753526	67.598046	0.054662	0.132607	0.989660	0.891116	0.440670	-0.108266	-0.450471	0.887820	-0.094081	0	0	0
14212	0	0	0	0	0	9.716896	-1.038478	-0.878045	0.001372	0.001395	0.001098	-0.894775	0.587646	-0.009766	0.591875	-0.420741	-0.608293	-0.320374	-130.985833	-81.752243	67.594419	0.054679	0.132624	0.989657	0.891111	0.440675	-0.108289	-0.450479	0.887816	-0.094087	0	0	0
14213	0	0	0	0	0	9.714659	-1.083189	-0.897442	0.005769	0.006198	0.001046	-0.885254	0.593262	-0.001465	0.591897	-0.420733	-0.608282	-0.320367	-130.966806	-81.752695	67.576810	0.054717	0.132600	0.989658	0.891097	0.440697	-0.108315	-0.450502	0.887808	-0.094046	0	0	0
14214	0	0	0	0	0	9.725059	-1.070413	-0.927154	0.003591	0.004667	0.001257	-0.884766	0.594482	-0.009277	0.591913	-0.420730	-0.608273	-0.320358	-130.951857	-81.752603	67.563053	0.054749	0.132589	0.989658	0.891086	0.440714	-0.108340	-0.450521	0.887801	-0.094019	0	0	0
14215	0	0	0	0	0	9.703460	-1.074226	-0.915942	-0.002009	0.005430	0.001686	-0.887207	0.588135	-0.007568	0.591917	-0.420749	-0.608250	-0.320371	-130.937920	-81.752489	67.546084	0.054789	0.132574	0.989658	0.891106	0.440666	-0.108365	-0.450475	0.887827	-0.093994	0	0	0
14216	0	0	0	0	0	9.702365	-1.096641	-0.925336	0.000126	0.005221	0.001107	-0.886719	0.586670	-0.007324	0.591931	-0.420748	-0.608237	-0.320369	-130.923052	-81.752682	67.531454	0.054822	0.132557	0.989658	0.891102	0.440669	-0.108387	-0.450479	0.887828	-0.093964	0	0	0
14217	0	0	0	0	0	9.714778	-1.083770	-0.895444	-0.000722	0.003344	0.002047	-0.890137	0.592041	-0.013428	0.591931	-0.420768	-0.608222	-0.320373	-130.913674	-81.751629	67.519837	0.054856	0.132563	0.989655	0.891117	0.440632	-0.108416	-0.450446	0.887846	-0.093958	0	0	0
14218	0	0	0	0	0	9.726285	-1.048746	-0.915515	-0.000722	0.003344	0.002047	-0.886719	0.594238	-0.001709	0.591943	-0.420768	-0.608216	-0.320360	-130.902393	-81.750816	67.509658	0.054885	0.132566	0.989653	0.891106	0.440647	-0.108445	-0.450464	0.887838	-0.093946	0	0	0
14219	0	0	0	0	0	9.703287	-1.119354	-0.874508	-0.000764	0.001604	0.001678	-0.887939	0.588623	-0.011230	0.591937	-0.420789	-0.608206	-0.320361	-130.899197	-81.749269	67.504263	0.054907	0.132586	0.989650	0.891121	0.440610	-0.108470	-0.450431	0.887854	-0.093957	0	0	0
14220	0	0	0	0	0	9.703335	-1.119169	-0.874210	0.004115	0.004163	-0.005806	-0.886719	0.598389	-0.006836	0.591942	-0.420763	-0.608215	-0.320370	-130.903472	-81.752019	67.510324	0.054875	0.132548	0.989656	0.891110	0.440643	-0.108427	-0.450457	0.887843	-0.093934	0	0	0
14221	0	0	0	0	0	9.694143	-1.109703	-0.833569	0.006250	0.003976	0.002717	-0.889160	0.591553	0.000000	0.591961	-0.420763	-0.608207	-0.320352	-130.886481	-81.750912	67.495050	0.054918	0.132551	0.989654	0.891093	0.440667	-0.108470	-0.450485	0.887831	-0.093915	0	0	0
14222	0	0	0	0	0	9.695536	-1.042974	-0.863314	0.009391	0.001041	-0.003256	-0.883301	0.594727	-0.001709	0.591966	-0.420744	-0.608222	-0.320339	-130.890735	-81.751260	67.502370	0.054898	0.132552	0.989655	0.891071	0.440715	-0.108458	-0.450532	0.887806	-0.093919	0	0	0
14223	0	0	0	0	0	9.705707	-1.074389	-0.853356	0.006491	0.002855	-0.001000	-0.889160	0.589844	-0.008789	0.591975	-0.420734	-0.608225	-0.320328	-130.886573	-81.751341	67.500199	0.054903	0.132549	0.989655	0.891055	0.440746	-0.108464	-0.450563	0.887792	-0.093910	0	0	0
14224	0	0	0	0	0	9.703713	-1.074538	-0.912882	0.006972	0.000633	0.000670	-0.895508	0.605957	-0.003418	0.591984	-0.420729	-0.608233	-0.320306	-130.883100	-81.749905	67.499272	0.054915	0.132571	0.989651	0.891034	0.440783	-0.108488	-0.450604	0.887770	-0.093920	0	0	0
14225	0	0	0	0	0	9.760511	-1.031940	-0.894676	0.000890	0.003617	-0.000571	-0.889893	0.592773	-0.010010	0.591984	-0.420735	-0.608224	-0.320313	-130.878761	-81.750087	67.493679	0.054926	0.132562	0.989652	0.891043	0.440763	-0.108493	-0.450584	0.887781	-0.093909	0	0	0
14226	0	0	0	0	0	9.736898	-1.035680	-0.943463	-0.003423	0.002294	0.000218	-0.886475	0.591797	-0.001953	0.591978	-0.420753	-0.608214	-0.320322	-130.877011	-81.749472	67.489376	0.054940	0.132568	0.989650	0.891061	0.440723	-0.108504	-0.450545	0.887800	-0.093913	0	0	0
14227	0	0	0	0	0	9.702665	-1.096748	-0.922051	-0.006082	0.002985	-0.001242	-0.883301	0.597168	-0.008545	0.591960	-0.420778	-0.608197	-0.320351	-130.880289	-81.749707	67.487444	0.054943	0.132563	0.989651	0.891102	0.440642	-0.108496	-0.450464	0.887841	-0.093916	0	0	0
14228	0	0	0	0	0	9.691198	-1.131886	-0.901370	-0.003381	0.004035	0.000587	-0.885010	0.585449	-0.010498	0.591957	-0.420800	-0.608177	-0.320368	-130.872617	-81.749536	67.476059	0.054971	0.132554	0.989650	0.891129	0.440584	-0.108510	-0.450407	0.887871	-0.093904	0	0	0
14229	0	0	0	0	0	9.692109	-1.154006	-0.851221	0.005120	0.001459	-0.002098	-0.883545	0.597412	-0.007080	0.591957	-0.420793	-0.608185	-0.320362	-130.876248	-81.749570	67.480969	0.054959	0.132559	0.989650	0.891120	0.440604	-0.108504	-0.450427	0.887861	-0.093910	0	0	0
14230	0	0	0	0	0	9.714050	-1.105665	-0.901515	0.002545	0.005631	-0.002820	-0.886475	0.587891	-0.005371	0.591971	-0.420772	-0.608184	-0.320364	-130.868816	-81.751609	67.475303	0.054959	0.132521	0.989655	0.891107	0.440634	-0.108489	-0.450453	0.887851	-0.093873	0	0	0
14231	0	0	0	0	0	9.703759	-1.118157	-0.870791	0.000608	0.002977	-0.006326	-0.892334	0.588135	-0.002441	0.591960	-0.420763	-0.608189	-0.320388	-130.881436	-81.754044	67.486684	0.054916	0.132493	0.989662	0.891120	0.440620	-0.108437	-0.450432	0.887862	-0.093870	0	0	0
14232	0	0	0	0	0	9.713979	-1.149182	-0.860823	0.003267	0.002287	-0.004866	-0.886963	0.585205	-0.014893	0.591956	-0.420750	-0.608196	-0.320398	-130.890120	-81.755693	67.495669	0.054885	0.132475	0.989666	0.891121	0.440628	-0.108401	-0.450435	0.887861	-0.093867	0	0	0
14233	0	0	0	0	0	9.739304	-1.033769	-0.881402	0.008951	0.005006	-0.004556	-0.891357	0.597168	-0.011719	0.591971	-0.420718	-0.608205	-0.320395	-130.887321	-81.758122	67.496300	0.054867	0.132437	0.989672	0.891096	0.440686	-0.108374	-0.450487	0.887838	-0.093835	0	0	0
14234	0	0	0	0	0	9.685962	-1.009320	-0.869226	0.003025	0.003409	-0.001150	-0.893555	0.596436	-0.011963	0.591991	-0.420690	-0.608217	-0.320374	-130.881394	-81.758778	67.495232	0.054865	0.132425	0.989673	0.891058	0.440762	-0.108375	-0.450562	0.887802	-0.093816	0	0	0
14235	0	0	0	0	0	9.729295	-1.001826	-0.890159	0.002544	0.005632	-0.002820	-0.890381	0.592529	-0.015869	0.591997	-0.420681	-0.608210	-0.320386	-130.875895	-81.760689	67.489425	0.054866	0.132389	0.989678	0.891060	0.440760	-0.108359	-0.450556	0.887808	-0.093784	0	0	0
14236	0	0	0	0	0	9.715626	-1.081235	-0.889291	-0.002417	-0.000433	-0.005176	-0.890137	0.592529	0.002686	0.591988	-0.420661	-0.608234	-0.320383	-130.894828	-81.761642	67.510630	0.054811	0.132394	0.989681	0.891047	0.440798	-0.108316	-0.450590	0.887789	-0.093809	0	0	0
14237	0	0	0	0	0	9.694025	-1.084559	-0.878614	0.002942	-0.000072	-0.001887	-0.893066	0.590088	-0.002686	0.591980	-0.420663	-0.608243	-0.320380	-130.903746	-81.761010	67.519621	0.054794	0.132413	0.989679	0.891047	0.440799	-0.108310	-0.450591	0.887786	-0.093833	0	0	0
14238	0	0	0	0	0	9.717684	-1.080614	-0.829347	0.007297	0.002993	-0.002307	-0.888428	0.582275	-0.006348	0.591983	-0.420658	-0.608242	-0.320383	-130.901929	-81.761673	67.518001	0.054793	0.132401	0.989681	0.891046	0.440803	-0.108304	-0.450594	0.887785	-0.093822	0	0	0
14239	0	0	0	0	0	9.705609	-1.049031	-0.898448	0.007296	0.002993	-0.002307	-0.890869	0.588867	-0.006104	0.591992	-0.420641	-0.608249	-0.320374	-130.900272	-81.762373	67.518828	0.054787	0.132390	0.989682	0.891027	0.440843	-0.108297	-0.450632	0.887767	-0.093811	0	0	0
14240	0	0	0	0	0	9.727279	-1.045365	-0.908803	0.001412	0.003137	0.001467	-0.887207	0.588623	-0.002197	0.592000	-0.420645	-0.608242	-0.320368	-130.890895	-81.761689	67.509673	0.054813	0.132393	0.989681	0.891023	0.440844	-0.108322	-0.450636	0.887766	-0.093801	0	0	0
14241	0	0	0	0	0	9.714683	-1.102928	-0.898041	0.004313	0.001324	-0.000788	-0.887695	0.588135	-0.003906	0.592000	-0.420644	-0.608246	-0.320360	-130.892006	-81.761105	67.511570	0.054812	0.132404	0.989679	0.891017	0.440856	-0.108327	-0.450649	0.887759	-0.093810	0	0	0
14242	0	0	0	0	0	9.705675	-1.049073	-0.897694	0.007778	0.000771	-0.000637	-0.883057	0.591064	-0.002441	0.592005	-0.420639	-0.608254	-0.320345	-130.891744	-81.760289	67.513260	0.054814	0.132418	0.989677	0.891001	0.440885	-0.108339	-0.450679	0.887742	-0.093819	0	0	0
14243	0	0	0	0	0	9.727343	-1.045413	-0.908055	0.006531	0.004598	-0.000630	-0.884766	0.588379	-0.007324	0.592020	-0.420626	-0.608251	-0.320337	-130.881381	-81.760865	67.504847	0.054829	0.132401	0.989679	0.890985	0.440915	-0.108348	-0.450710	0.887729	-0.093792	0	0	0
14244	0	0	0	0	0	9.716981	-1.058262	-0.877581	-0.001371	-0.001396	-0.001099	-0.881348	0.595703	-0.006104	0.592001	-0.420647	-0.608253	-0.320343	-130.893504	-81.759424	67.514408	0.054817	0.132433	0.989675	0.891006	0.440874	-0.108347	-0.450670	0.887745	-0.093832	0	0	0
14245	0	0	0	0	0	9.704615	-1.071449	-0.906910	0.001976	0.004397	0.003874	-0.882324	0.592285	-0.005371	0.592013	-0.420662	-0.608235	-0.320335	-130.874692	-81.757973	67.494821	0.054872	0.132438	0.989671	0.891007	0.440858	-0.108397	-0.450660	0.887752	-0.093812	0	0	0
14246	0	0	0	0	0	9.716969	-1.058601	-0.877302	0.003423	-0.002294	-0.000216	-0.889160	0.594238	0.005371	0.592003	-0.420672	-0.608245	-0.320321	-130.883946	-81.755750	67.504374	0.054864	0.132482	0.989666	0.891005	0.440859	-0.108411	-0.450666	0.887745	-0.093855	0	0	0
14247	0	0	0	0	0	9.684066	-1.053180	-0.886153	0.004071	0.002448	0.002927	-0.886230	0.591309	-0.006836	0.592012	-0.420681	-0.608238	-0.320305	-130.872220	-81.753978	67.493160	0.054902	0.132500	0.989661	0.890998	0.440863	-0.108453	-0.450676	0.887740	-0.093853	0	0	0
14248	0	0	0	0	0	9.715841	-1.081260	-0.886912	-0.002094	0.001949	0.000947	-0.880859	0.585205	-0.006348	0.591998	-0.420716	-0.608218	-0.320324	-130.870095	-81.752797	67.485890	0.054926	0.132512	0.989658	0.891036	0.440781	-0.108472	-0.450597	0.887780	-0.093862	0	0	0
14249	0	0	0	0	0	9.703220	-1.138916	-0.876237	0.000564	0.001260	0.002407	-0.887939	0.588867	-0.010010	0.591995	-0.420736	-0.608210	-0.320318	-130.865281	-81.750805	67.479630	0.054954	0.132538	0.989653	0.891045	0.440755	-0.108506	-0.450576	0.887789	-0.093876	0	0	0
14250	0	0	0	0	0	9.691964	-1.129888	-0.895616	0.004877	0.002584	0.001619	-0.891113	0.599121	-0.003418	0.592012	-0.420727	-0.608212	-0.320295	-130.854542	-81.749827	67.471839	0.054979	0.132546	0.989651	0.891020	0.440799	-0.108536	-0.450623	0.887766	-0.093866	0	0	0
14251	0	0	0	0	0	9.748712	-1.087406	-0.877515	0.002658	-0.000689	0.001461	-0.892090	0.595215	-0.001221	0.592006	-0.420741	-0.608215	-0.320282	-130.856804	-81.747514	67.473941	0.054989	0.132585	0.989645	0.891020	0.440792	-0.108563	-0.450622	0.887763	-0.093897	0	0	0
14252	0	0	0	0	0	9.726227	-1.068937	-0.916544	0.005161	0.003202	-0.001728	-0.892090	0.590332	-0.008057	0.592010	-0.420739	-0.608211	-0.320284	-130.853283	-81.747985	67.470470	0.054994	0.132574	0.989646	0.891019	0.440794	-0.108562	-0.450622	0.887764	-0.093885	0	0	0
14253	0	0	0	0	0	9.681880	-1.098448	-0.904667	0.003025	0.003410	-0.001150	-0.888672	0.591797	-0.004395	0.592013	-0.420737	-0.608208	-0.320286	-130.849833	-81.748340	67.467013	0.055000	0.132565	0.989647	0.891019	0.440794	-0.108563	-0.450622	0.887765	-0.093874	0	0	0
14254	0	0	0	0	0	9.704680	-1.072444	-0.905037	0.000931	0.005359	-0.000204	-0.886963	0.588623	-0.007813	0.592024	-0.420735	-0.608197	-0.320290	-130.838070	-81.749146	67.455130	0.055022	0.132540	0.989649	0.891018	0.440793	-0.108572	-0.450620	0.887770	-0.093843	0	0	0
14255	0	0	0	0	0	9.694304	-1.085400	-0.874490	-0.000807	-0.000136	0.001308	-0.890137	0.589600	-0.008789	0.592013	-0.420758	-0.608193	-0.320289	-130.841062	-81.747106	67.455964	0.055033	0.132574	0.989644	0.891034	0.440756	-0.108594	-0.450588	0.887783	-0.093872	0	0	0
14256	0	0	0	0	0	9.683052	-1.076257	-0.894024	0.003506	0.001188	0.000521	-0.878174	0.593018	-0.005859	0.592021	-0.420751	-0.608200	-0.320269	-130.838137	-81.746100	67.455571	0.055041	0.132589	0.989642	0.891013	0.440793	-0.108612	-0.450628	0.887762	-0.093877	0	0	0
14257	0	0	0	0	0	9.749936	-1.065213	-0.866268	0.001329	-0.000345	0.000730	-0.888672	0.598389	-0.004395	0.592013	-0.420766	-0.608201	-0.320262	-130.842020	-81.744233	67.458542	0.055046	0.132622	0.989637	0.891020	0.440776	-0.108630	-0.450615	0.887766	-0.093906	0	0	0
14258	0	0	0	0	0	9.695425	-1.063278	-0.864301	-0.002575	0.004171	-0.000725	-0.884277	0.592041	-0.005371	0.592008	-0.420783	-0.608184	-0.320282	-130.836749	-81.744637	67.449748	0.055064	0.132607	0.989638	0.891046	0.440722	-0.108633	-0.450560	0.887795	-0.093891	0	0	0
14259	0	0	0	0	0	9.708903	-1.027998	-0.824778	-0.001613	-0.000273	0.002617	-0.893066	0.589600	-0.006836	0.591997	-0.420813	-0.608176	-0.320279	-130.837232	-81.741979	67.447579	0.055087	0.132648	0.989631	0.891065	0.440676	-0.108667	-0.450521	0.887812	-0.093922	0	0	0
14260	0	0	0	0	0	9.713754	-1.126448	-0.904432	-0.000238	0.001098	-0.005386	-0.893066	0.593262	-0.010010	0.591984	-0.420806	-0.608186	-0.320294	-130.852226	-81.743420	67.461897	0.055044	0.132638	0.989635	0.891074	0.440669	-0.108624	-0.450509	0.887817	-0.093934	0	0	0
14261	0	0	0	0	0	9.725273	-1.091349	-0.924607	0.007292	0.003020	0.006796	-0.883789	0.586670	0.000000	0.592008	-0.420816	-0.608174	-0.320258	-130.826984	-81.740185	67.438890	0.055119	0.132668	0.989627	0.891050	0.440696	-0.108707	-0.450547	0.887798	-0.093923	0	0	0
14262	0	0	0	0	0	9.672943	-1.045152	-0.902973	0.007695	-0.002710	-0.001371	-0.887207	0.593750	-0.010742	0.592004	-0.420807	-0.608197	-0.320232	-130.838663	-81.738440	67.453889	0.055095	0.132710	0.989622	0.891025	0.440746	-0.108711	-0.450599	0.887768	-0.093965	0	0	0
14263	0	0	0	0	0	9.726082	-1.113893	-0.874645	0.008300	0.000291	0.001404	-0.887451	0.589111	-0.007324	0.592013	-0.420803	-0.608206	-0.320204	-130.834913	-81.736520	67.453183	0.055110	0.132740	0.989618	0.890999	0.440789	-0.108742	-0.450647	0.887741	-0.093979	0	0	0
14264	0	0	0	0	0	9.737591	-1.078945	-0.894777	0.008383	0.003774	0.002140	-0.883789	0.587402	-0.002197	0.592043	-0.420781	-0.608211	-0.320168	-130.816969	-81.735755	67.440671	0.055144	0.132740	0.989616	0.890954	0.440871	-0.108782	-0.450733	0.887701	-0.093954	0	0	0
14265	0	0	0	0	0	9.694316	-1.086418	-0.873091	0.011242	0.000220	-0.000482	-0.888184	0.593262	-0.005859	0.592055	-0.420762	-0.608229	-0.320136	-130.816614	-81.734626	67.445099	0.055141	0.132762	0.989613	0.890916	0.440944	-0.108797	-0.450808	0.887661	-0.093966	0	0	0
14266	0	0	0	0	0	9.734302	-1.145947	-0.923731	0.006009	0.005079	-0.002669	-0.887695	0.585938	-0.003906	0.592068	-0.420746	-0.608226	-0.320139	-130.809412	-81.736299	67.439211	0.055144	0.132730	0.989617	0.890906	0.440967	-0.108787	-0.450828	0.887655	-0.093934	0	0	0
14267	0	0	0	0	0	9.725359	-1.091906	-0.923045	0.011609	0.004319	-0.003094	-0.890381	0.587646	-0.008789	0.592089	-0.420712	-0.608238	-0.320122	-130.803340	-81.737837	67.438074	0.055136	0.132704	0.989621	0.890868	0.441046	-0.108777	-0.450903	0.887619	-0.093905	0	0	0
14268	0	0	0	0	0	9.736658	-1.100825	-0.903215	0.004514	-0.001541	-0.004871	-0.890625	0.599121	-0.006348	0.592079	-0.420695	-0.608264	-0.320115	-130.822435	-81.738137	67.459572	0.055084	0.132720	0.989622	0.890853	0.441085	-0.108742	-0.450939	0.887598	-0.093938	0	0	0
14269	0	0	0	0	0	9.692297	-1.130292	-0.891499	0.003589	0.004672	0.001256	-0.892822	0.595947	-0.001953	0.592092	-0.420697	-0.608252	-0.320110	-130.808689	-81.737921	67.446038	0.055117	0.132711	0.989621	0.890849	0.441087	-0.108767	-0.450943	0.887598	-0.093914	0	0	0
14270	0	0	0	0	0	9.726329	-1.113407	-0.872520	0.006650	-0.001749	-0.005448	-0.887451	0.595947	0.000977	0.592081	-0.420682	-0.608277	-0.320104	-130.828396	-81.738191	67.467815	0.055065	0.132727	0.989622	0.890837	0.441121	-0.108731	-0.450974	0.887579	-0.093948	0	0	0
14271	0	0	0	0	0	9.715140	-1.103822	-0.891981	0.005967	0.003339	-0.003037	-0.892578	0.593750	0.002686	0.592087	-0.420666	-0.608283	-0.320102	-130.828341	-81.739337	67.469492	0.055053	0.132711	0.989625	0.890824	0.441150	-0.108716	-0.451000	0.887567	-0.093935	0	0	0
14272	0	0	0	0	0	9.716316	-1.081173	-0.881797	0.003268	0.002286	-0.004866	-0.894043	0.597900	-0.008789	0.592072	-0.420674	-0.608278	-0.320129	-130.837558	-81.740723	67.475414	0.055031	0.132694	0.989628	0.890852	0.441101	-0.108683	-0.450948	0.887593	-0.093937	0	0	0
14273	0	0	0	0	0	9.716381	-1.080789	-0.881550	0.002461	0.002150	-0.003558	-0.896240	0.589111	0.002441	0.592066	-0.420669	-0.608282	-0.320137	-130.844410	-81.741650	67.482041	0.055009	0.132686	0.989630	0.890856	0.441100	-0.108660	-0.450943	0.887595	-0.093940	0	0	0
14274	0	0	0	0	0	9.694805	-1.084039	-0.870612	0.005403	0.002078	-0.005443	-0.886719	0.584961	-0.006592	0.592064	-0.420650	-0.608294	-0.320143	-130.853966	-81.743429	67.492853	0.054972	0.132668	0.989635	0.890849	0.441123	-0.108621	-0.450961	0.887586	-0.093938	0	0	0
14275	0	0	0	0	0	9.694894	-1.083520	-0.870263	0.011851	0.003197	-0.006808	-0.893066	0.592285	-0.003418	0.592076	-0.420606	-0.608318	-0.320135	-130.860713	-81.746156	67.504809	0.054927	0.132636	0.989642	0.890812	0.441209	-0.108574	-0.451040	0.887548	-0.093920	0	0	0
14276	0	0	0	0	0	9.707573	-1.025689	-0.880452	0.005160	0.003204	-0.001728	-0.879883	0.585938	-0.001953	0.592085	-0.420593	-0.608321	-0.320129	-130.857251	-81.746813	67.503179	0.054926	0.132624	0.989643	0.890798	0.441239	-0.108571	-0.451068	0.887536	-0.093906	0	0	0
14277	0	0	0	0	0	9.684887	-1.051429	-0.879233	0.004638	0.003684	-0.003768	-0.881836	0.588867	-0.005615	0.592089	-0.420578	-0.608325	-0.320134	-130.858823	-81.748405	67.505730	0.054910	0.132601	0.989647	0.890792	0.441257	-0.108548	-0.451082	0.887530	-0.093891	0	0	0
14278	0	0	0	0	0	9.704380	-1.092119	-0.909410	0.007213	-0.000486	-0.003040	-0.885986	0.581787	-0.001709	0.592085	-0.420569	-0.608340	-0.320125	-130.868515	-81.748124	67.517170	0.054885	0.132616	0.989647	0.890780	0.441284	-0.108536	-0.451109	0.887514	-0.093912	0	0	0
14279	0	0	0	0	0	9.728262	-1.043531	-0.900346	0.004556	0.000201	-0.004502	-0.887695	0.601074	-0.001953	0.592076	-0.420558	-0.608356	-0.320125	-130.882441	-81.748728	67.532156	0.054846	0.132621	0.989648	0.890774	0.441302	-0.108505	-0.451124	0.887504	-0.093932	0	0	0
14280	0	0	0	0	0	9.718988	-1.034048	-0.859931	0.006245	0.003987	0.002717	-0.882813	0.590332	-0.005371	0.592090	-0.420567	-0.608341	-0.320115	-130.864736	-81.747580	67.514547	0.054895	0.132622	0.989645	0.890770	0.441301	-0.108549	-0.451127	0.887505	-0.093911	0	0	0
14281	0	0	0	0	0	9.705558	-1.069754	-0.898785	0.002781	0.004538	0.002563	-0.890625	0.594482	-0.009033	0.592103	-0.420575	-0.608327	-0.320109	-130.848460	-81.746749	67.497988	0.054938	0.132620	0.989643	0.890769	0.441294	-0.108586	-0.451124	0.887509	-0.093890	0	0	0
14282	0	0	0	0	0	9.683926	-1.073679	-0.887628	0.002781	0.004538	0.002563	-0.883545	0.599609	0.000000	0.592120	-0.420577	-0.608315	-0.320096	-130.830518	-81.746005	67.481035	0.054983	0.132615	0.989641	0.890757	0.441307	-0.108625	-0.451141	0.887503	-0.093864	0	0	0
14283	0	0	0	0	0	9.717937	-1.057085	-0.868364	0.009994	0.004052	-0.000476	-0.893555	0.588379	-0.004150	0.592141	-0.420556	-0.608320	-0.320076	-130.819414	-81.746308	67.473877	0.054997	0.132604	0.989642	0.890725	0.441368	-0.108640	-0.451203	0.887474	-0.093840	0	0	0
14284	0	0	0	0	0	9.729211	-1.066255	-0.848399	0.002983	0.001670	-0.001518	-0.885742	0.593994	-0.004395	0.592135	-0.420564	-0.608316	-0.320083	-130.821325	-81.746114	67.474295	0.054997	0.132607	0.989642	0.890737	0.441345	-0.108639	-0.451180	0.887485	-0.093845	0	0	0
14285	0	0	0	0	0	9.726208	-1.088866	-0.917674	-0.000684	0.005089	0.002409	-0.888672	0.589111	0.000977	0.592142	-0.420582	-0.608294	-0.320089	-130.805792	-81.745554	67.456481	0.055042	0.132599	0.989640	0.890751	0.441308	-0.108672	-0.451145	0.887505	-0.093822	0	0	0
14286	0	0	0	0	0	9.684023	-1.074161	-0.885990	0.001974	0.004402	0.003872	-0.883789	0.594971	-0.002930	0.592150	-0.420606	-0.608269	-0.320089	-130.786378	-81.744062	67.434654	0.055103	0.132602	0.989637	0.890766	0.441266	-0.108723	-0.451110	0.887525	-0.093802	0	0	0
14287	0	0	0	0	0	9.715549	-1.146670	-0.846341	0.000123	0.005225	0.001101	-0.884521	0.598389	-0.010742	0.592157	-0.420617	-0.608251	-0.320097	-130.773355	-81.744119	67.419844	0.055137	0.132587	0.989637	0.890777	0.441238	-0.108744	-0.451083	0.887541	-0.093777	0	0	0
14288	0	0	0	0	0	9.747637	-1.130299	-0.886831	0.009187	0.003917	0.000833	-0.887207	0.593994	-0.005615	0.592181	-0.420600	-0.608252	-0.320072	-130.757750	-81.743785	67.408234	0.055166	0.132581	0.989636	0.890743	0.441299	-0.108774	-0.451146	0.887512	-0.093751	0	0	0
14289	0	0	0	0	0	9.697533	-1.039222	-0.845216	0.004394	0.004811	-0.000053	-0.893066	0.591553	-0.006104	0.592193	-0.420596	-0.608245	-0.320069	-130.746493	-81.744187	67.397681	0.055187	0.132564	0.989637	0.890736	0.441310	-0.108787	-0.451157	0.887509	-0.093725	0	0	0
14290	0	0	0	0	0	9.715129	-1.080308	-0.934887	-0.000962	0.004442	-0.003345	-0.892334	0.586182	-0.002197	0.592192	-0.420593	-0.608239	-0.320088	-130.746611	-81.745972	67.396331	0.055179	0.132535	0.989641	0.890749	0.441290	-0.108763	-0.451134	0.887523	-0.093705	0	0	0
14291	0	0	0	0	0	9.704485	-1.137395	-0.864120	0.007817	0.002519	-0.000265	-0.884033	0.592041	-0.009521	0.592204	-0.420581	-0.608244	-0.320071	-130.740795	-81.745608	67.393257	0.055188	0.132537	0.989640	0.890727	0.441332	-0.108778	-0.451177	0.887502	-0.093698	0	0	0
14292	0	0	0	0	0	9.717145	-1.079869	-0.874220	0.009513	0.006274	-0.002147	-0.885254	0.591309	-0.008301	0.592232	-0.420548	-0.608247	-0.320058	-130.726505	-81.747594	67.383503	0.055198	0.132496	0.989645	0.890691	0.441405	-0.108775	-0.451246	0.887472	-0.093649	0	0	0
14293	0	0	0	0	0	9.718315	-1.057326	-0.863821	0.004638	0.003684	-0.003767	-0.892090	0.590332	-0.004639	0.592235	-0.420533	-0.608251	-0.320063	-130.728049	-81.749186	67.386025	0.055181	0.132473	0.989649	0.890685	0.441423	-0.108752	-0.451260	0.887466	-0.093634	0	0	0
14294	0	0	0	0	0	9.695610	-1.083167	-0.862700	0.003505	0.001192	0.000522	-0.888672	0.594238	-0.007813	0.592240	-0.420533	-0.608254	-0.320049	-130.725348	-81.748103	67.384681	0.055192	0.132489	0.989647	0.890673	0.441442	-0.108770	-0.451282	0.887455	-0.093641	0	0	0
14295	0	0	0	0	0	9.715088	-1.124274	-0.892729	0.003587	0.004676	0.001255	-0.887451	0.585938	-0.003906	0.592252	-0.420535	-0.608243	-0.320045	-130.711580	-81.747885	67.371123	0.055224	0.132480	0.989646	0.890669	0.441444	-0.108795	-0.451287	0.887455	-0.093617	0	0	0
14296	0	0	0	0	0	9.707170	-1.048254	-0.882354	0.005722	0.004469	0.000679	-0.890381	0.590576	-0.014893	0.592271	-0.420525	-0.608238	-0.320032	-130.697523	-81.747945	67.359237	0.055251	0.132467	0.989646	0.890650	0.441477	-0.108818	-0.451321	0.887440	-0.093590	0	0	0
14297	0	0	0	0	0	9.749120	-1.107727	-0.873029	0.007817	0.002520	-0.000264	-0.890869	0.590332	-0.010498	0.592283	-0.420513	-0.608243	-0.320015	-130.691703	-81.747581	67.356159	0.055261	0.132470	0.989645	0.890627	0.441519	-0.108832	-0.451364	0.887419	-0.093583	0	0	0
14298	0	0	0	0	0	9.694614	-1.105857	-0.870975	0.007817	0.002520	-0.000264	-0.890137	0.591309	-0.007080	0.592311	-0.420476	-0.608263	-0.319975	-130.683646	-81.747532	67.355447	0.055263	0.132470	0.989645	0.890569	0.441632	-0.108846	-0.451478	0.887363	-0.093568	0	0	0
14299	0	0	0	0	0	9.696819	-1.061359	-0.850917	0.010515	0.003577	0.001566	-0.883789	0.588379	-0.007324	0.592335	-0.420460	-0.608266	-0.319947	-130.668402	-81.746768	67.344409	0.055294	0.132472	0.989643	0.890534	0.441696	-0.108881	-0.451545	0.887331	-0.093548	0	0	0
14300	0	0	0	0	0	9.728923	-1.044904	-0.891574	0.007255	0.001257	-0.002670	-0.885254	0.595215	-0.006348	0.592343	-0.420438	-0.608282	-0.319930	-130.671499	-81.747103	67.351236	0.055276	0.132473	0.989644	0.890506	0.441754	-0.108871	-0.451602	0.887302	-0.093550	0	0	0
14301	0	0	0	0	0	9.705120	-1.093168	-0.900208	0.003586	0.004677	0.001255	-0.890625	0.593262	-0.003662	0.592355	-0.420440	-0.608271	-0.319925	-130.657732	-81.746884	67.337679	0.055308	0.132463	0.989644	0.890501	0.441756	-0.108897	-0.451606	0.887302	-0.093526	0	0	0
14302	0	0	0	0	0	9.682388	-1.119213	-0.899119	0.005600	-0.000757	-0.000420	-0.893555	0.596680	-0.008789	0.592353	-0.420441	-0.608281	-0.319910	-130.662143	-81.745366	67.343420	0.055305	0.132493	0.989640	0.890491	0.441775	-0.108909	-0.451627	0.887288	-0.093552	0	0	0
14303	0	0	0	0	0	9.716384	-1.102367	-0.880153	0.007295	0.002999	-0.002304	-0.887939	0.594482	-0.008301	0.592362	-0.420424	-0.608288	-0.319901	-130.660435	-81.746068	67.344196	0.055299	0.132483	0.989642	0.890472	0.441814	-0.108903	-0.451666	0.887270	-0.093540	0	0	0
14304	0	0	0	0	0	9.706290	-1.070777	-0.889613	0.009952	0.002314	-0.000840	-0.886230	0.588867	-0.009277	0.592384	-0.420394	-0.608303	-0.319869	-130.653654	-81.745988	67.343251	0.055301	0.132483	0.989641	0.890426	0.441905	-0.108915	-0.451756	0.887225	-0.093528	0	0	0
14305	0	0	0	0	0	9.684642	-1.074488	-0.878796	0.010392	-0.001648	0.000468	-0.895508	0.588135	-0.010742	0.592391	-0.420384	-0.608323	-0.319833	-130.656962	-81.743750	67.350888	0.055299	0.132526	0.989636	0.890391	0.441968	-0.108939	-0.451825	0.887187	-0.093560	0	0	0
14306	0	0	0	0	0	9.702737	-1.182156	-0.878726	0.010718	0.000708	-0.002514	-0.889648	0.591309	-0.004150	0.592410	-0.420342	-0.608353	-0.319796	-130.659132	-81.743955	67.360655	0.055275	0.132532	0.989636	0.890333	0.442087	-0.108933	-0.451942	0.887127	-0.093562	0	0	0
14307	0	0	0	0	0	9.729066	-1.044943	-0.889964	0.027312	0.001313	0.000307	-0.886475	0.600586	0.000000	0.592461	-0.420276	-0.608392	-0.319715	-130.644290	-81.742893	67.359748	0.055284	0.132548	0.989634	0.890222	0.442300	-0.108971	-0.452159	0.887018	-0.093545	0	0	0
14308	0	0	0	0	0	9.666283	-1.011314	-0.838214	0.016757	-0.004008	-0.001624	-0.889893	0.595459	-0.002197	0.592464	-0.420257	-0.608425	-0.319671	-130.655571	-81.740569	67.377026	0.055259	0.132602	0.989628	0.890176	0.442390	-0.108983	-0.452253	0.886965	-0.093593	0	0	0
14309	0	0	0	0	0	9.708770	-0.982266	-0.909523	0.010994	0.001362	0.003240	-0.878906	0.589600	-0.008057	0.592485	-0.420248	-0.608431	-0.319631	-130.642393	-81.738249	67.368352	0.055295	0.132631	0.989622	0.890137	0.442455	-0.109035	-0.452325	0.886929	-0.093594	0	0	0
14310	0	0	0	0	0	9.709231	-1.049206	-0.819124	0.021140	0.000847	0.007423	-0.886963	0.596191	-0.004639	0.592532	-0.420226	-0.608443	-0.319549	-130.612964	-81.733902	67.348594	0.055369	0.132681	0.989611	0.890055	0.442596	-0.109140	-0.452479	0.886851	-0.093587	0	0	0
14311	0	0	0	0	0	9.707599	-1.005868	-0.918781	0.011801	0.001498	0.001932	-0.886475	0.593994	-0.011963	0.592553	-0.420211	-0.608453	-0.319511	-130.602290	-81.732202	67.342918	0.055394	0.132703	0.989607	0.890013	0.442670	-0.109180	-0.452558	0.886811	-0.093586	0	0	0
14312	0	0	0	0	0	9.740437	-1.012061	-0.909518	0.003535	0.002978	0.009989	-0.885498	0.594482	-0.001221	0.592580	-0.420236	-0.608432	-0.319472	-130.569433	-81.727605	67.311248	0.055498	0.132745	0.989595	0.889995	0.442679	-0.109293	-0.452581	0.886800	-0.093575	0	0	0
14313	0	0	0	0	0	9.702807	-1.141030	-0.917230	-0.002626	0.002468	0.008002	-0.895020	0.600342	-0.008301	0.592583	-0.420281	-0.608403	-0.319462	-130.548585	-81.723623	67.286939	0.055581	0.132785	0.989585	0.890015	0.442617	-0.109380	-0.452531	0.886825	-0.093580	0	0	0
14314	0	0	0	0	0	9.713189	-1.128932	-0.947248	0.000358	0.004139	0.006484	-0.885254	0.592285	0.000977	0.592594	-0.420313	-0.608374	-0.319453	-130.523731	-81.720889	67.259703	0.055662	0.132802	0.989578	0.890027	0.442574	-0.109456	-0.452497	0.886844	-0.093563	0	0	0
14315	0	0	0	0	0	9.704613	-1.141942	-0.856655	0.006805	0.005261	0.005123	-0.883789	0.583252	-0.005859	0.592622	-0.420316	-0.608358	-0.319429	-130.496526	-81.719198	67.234428	0.055732	0.132805	0.989574	0.890006	0.442599	-0.109523	-0.452530	0.886831	-0.093530	0	0	0
14316	0	0	0	0	0	9.716141	-1.107274	-0.876663	0.004107	0.004202	0.003293	-0.886963	0.594482	-0.012939	0.592632	-0.420333	-0.608338	-0.319425	-130.478364	-81.717907	67.215012	0.055786	0.132806	0.989571	0.890012	0.442576	-0.109569	-0.452512	0.886842	-0.093510	0	0	0
14317	0	0	0	0	0	9.713927	-1.152486	-0.895750	0.009461	0.004578	0.006588	-0.889160	0.595215	-0.004883	0.592665	-0.420334	-0.608325	-0.319386	-130.447960	-81.715320	67.188043	0.055865	0.132821	0.989564	0.889978	0.442624	-0.109653	-0.452569	0.886816	-0.093480	0	0	0
14318	0	0	0	0	0	9.704891	-1.099323	-0.895163	0.004710	0.007212	0.006063	-0.888428	0.604004	-0.012939	0.592702	-0.420334	-0.608303	-0.319361	-130.411928	-81.714041	67.154341	0.055952	0.132809	0.989561	0.889953	0.442656	-0.109729	-0.452608	0.886802	-0.093426	0	0	0
14319	0	0	0	0	0	9.704912	-1.099655	-0.894529	0.004394	0.004814	-0.000056	-0.893555	0.594238	-0.008057	0.592714	-0.420329	-0.608295	-0.319359	-130.400688	-81.714437	67.143804	0.055974	0.132792	0.989562	0.889946	0.442667	-0.109742	-0.452619	0.886799	-0.093400	0	0	0
14320	0	0	0	0	0	9.715398	-1.087006	-0.924267	0.001492	0.006629	0.002193	-0.889893	0.598389	-0.009521	0.592739	-0.420324	-0.608280	-0.319350	-130.377707	-81.714634	67.122208	0.056023	0.132768	0.989563	0.889931	0.442687	-0.109777	-0.452641	0.886792	-0.093354	0	0	0
14321	0	0	0	0	0	9.715440	-1.087269	-0.923524	-0.000603	0.008579	0.003133	-0.884033	0.596924	-0.004395	0.592757	-0.420338	-0.608247	-0.319361	-130.349912	-81.715033	67.092050	0.056090	0.132732	0.989564	0.889945	0.442650	-0.109817	-0.452606	0.886817	-0.093296	0	0	0
14322	0	0	0	0	0	9.685574	-1.059122	-0.862262	-0.004668	0.006119	0.000205	-0.888672	0.596436	-0.008301	0.592757	-0.420358	-0.608219	-0.319386	-130.337634	-81.715782	67.075433	0.056123	0.132704	0.989566	0.889977	0.442583	-0.109827	-0.452539	0.886854	-0.093264	0	0	0
14323	0	0	0	0	0	9.737968	-1.105597	-0.883041	-0.010829	0.005609	-0.001783	-0.891846	0.599609	-0.015137	0.592737	-0.420392	-0.608189	-0.319436	-130.337124	-81.717225	67.066926	0.056133	0.132672	0.989569	0.890039	0.442461	-0.109809	-0.452414	0.886919	-0.093247	0	0	0
14324	0	0	0	0	0	9.713827	-1.197968	-0.851376	-0.006037	0.004718	-0.000893	-0.881104	0.602295	-0.007324	0.592737	-0.420399	-0.608176	-0.319452	-130.331913	-81.718104	67.059597	0.056144	0.132651	0.989571	0.890056	0.442430	-0.109806	-0.452381	0.886938	-0.093227	0	0	0
14325	0	0	0	0	0	9.694445	-1.156668	-0.820451	-0.000029	0.009802	-0.003563	-0.890137	0.593506	-0.005127	0.592749	-0.420389	-0.608154	-0.319484	-130.317155	-81.721878	67.042946	0.056157	0.132575	0.989581	0.890070	0.442406	-0.109780	-0.452350	0.886962	-0.093157	0	0	0
14326	0	0	0	0	0	9.706447	-1.076957	-0.880392	0.002545	0.005633	-0.002827	-0.882324	0.589355	-0.009766	0.592756	-0.420383	-0.608144	-0.319498	-130.309969	-81.723731	67.035121	0.056163	0.132538	0.989585	0.890075	0.442399	-0.109767	-0.452340	0.886971	-0.093122	0	0	0
14327	0	0	0	0	0	9.718807	-1.063737	-0.850312	0.000163	0.006972	0.001461	-0.896484	0.591797	-0.007568	0.592769	-0.420392	-0.608120	-0.319508	-130.290787	-81.724261	67.014109	0.056208	0.132509	0.989587	0.890087	0.442370	-0.109791	-0.452312	0.886989	-0.093079	0	0	0
14328	0	0	0	0	0	9.705832	-1.054906	-0.929110	-0.005189	0.006596	-0.001836	-0.880615	0.593750	-0.012207	0.592770	-0.420397	-0.608101	-0.319535	-130.282874	-81.726275	67.003201	0.056220	0.132466	0.989592	0.890110	0.442327	-0.109778	-0.452265	0.887017	-0.093042	0	0	0
14329	0	0	0	0	0	9.706640	-1.076643	-0.878642	-0.001767	0.004305	-0.002043	-0.887695	0.592773	-0.005859	0.592765	-0.420406	-0.608090	-0.319556	-130.281732	-81.727348	66.999303	0.056222	0.132445	0.989595	0.890132	0.442286	-0.109765	-0.452222	0.887041	-0.093028	0	0	0
14330	0	0	0	0	0	9.694404	-1.089689	-0.907628	-0.004669	0.006120	0.000205	-0.887207	0.595215	-0.005615	0.592768	-0.420419	-0.608067	-0.319576	-130.269274	-81.728192	66.983660	0.056252	0.132416	0.989597	0.890155	0.442237	-0.109774	-0.452173	0.887069	-0.092994	0	0	0
14331	0	0	0	0	0	9.683981	-1.102520	-0.876788	0.000122	0.005229	0.001096	-0.890137	0.595703	-0.000732	0.592774	-0.420430	-0.608049	-0.319584	-130.256271	-81.728234	66.968869	0.056286	0.132401	0.989597	0.890166	0.442209	-0.109795	-0.452146	0.887086	-0.092969	0	0	0
14332	0	0	0	0	0	9.739303	-1.126209	-0.828071	0.001944	0.002624	-0.005598	-0.883301	0.592773	-0.000488	0.592762	-0.420429	-0.608048	-0.319609	-130.266389	-81.730175	66.976840	0.056254	0.132378	0.989602	0.890186	0.442180	-0.109753	-0.452111	0.887104	-0.092967	0	0	0
14333	0	0	0	0	0	9.697481	-1.066624	-0.836670	0.005762	0.006216	0.001045	-0.886963	0.594727	-0.004150	0.592783	-0.420421	-0.608037	-0.319602	-130.247310	-81.730604	66.959175	0.056292	0.132354	0.989603	0.890172	0.442201	-0.109778	-0.452133	0.887097	-0.092925	0	0	0
14334	0	0	0	0	0	9.707656	-1.097959	-0.826250	0.001985	0.004367	-0.005232	-0.882568	0.600342	-0.007080	0.592775	-0.420422	-0.608028	-0.319632	-130.251335	-81.732994	66.960359	0.056273	0.132317	0.989609	0.890197	0.442162	-0.109740	-0.452087	0.887122	-0.092906	0	0	0
14335	0	0	0	0	0	9.728647	-1.072182	-0.886579	0.003504	0.001194	0.000524	-0.893799	0.595947	-0.002930	0.592775	-0.420428	-0.608029	-0.319623	-130.249987	-81.731792	66.959304	0.056284	0.132335	0.989606	0.890193	0.442164	-0.109758	-0.452093	0.887118	-0.092917	0	0	0
14336	0	0	0	0	0	9.706998	-1.075838	-0.875678	0.004352	0.003072	-0.000418	-0.883057	0.593750	0.000244	0.592781	-0.420430	-0.608023	-0.319621	-130.243628	-81.731637	66.952858	0.056300	0.132331	0.989605	0.890193	0.442162	-0.109771	-0.452092	0.887120	-0.092907	0	0	0
14337	0	0	0	0	0	9.694410	-1.133150	-0.864491	0.004681	0.005427	-0.003401	-0.883545	0.589600	-0.004150	0.592790	-0.420413	-0.608021	-0.319629	-130.238865	-81.733718	66.949033	0.056295	0.132294	0.989611	0.890186	0.442180	-0.109751	-0.452105	0.887116	-0.092874	0	0	0
14338	0	0	0	0	0	9.707121	-1.075487	-0.874745	0.005160	0.003207	-0.001725	-0.885010	0.584961	-0.011963	0.592790	-0.420418	-0.608014	-0.319638	-130.235751	-81.734152	66.944674	0.056302	0.132283	0.989612	0.890196	0.442161	-0.109750	-0.452086	0.887127	-0.092864	0	0	0
14339	0	0	0	0	0	9.695606	-1.110561	-0.853781	0.004393	0.004816	-0.000053	-0.878906	0.590332	-0.009521	0.592802	-0.420413	-0.608006	-0.319635	-130.224462	-81.734542	66.934086	0.056324	0.132267	0.989613	0.890189	0.442172	-0.109763	-0.452097	0.887124	-0.092838	0	0	0
14340	0	0	0	0	0	9.694585	-1.132534	-0.863328	-0.000792	-0.000179	-0.007795	-0.884277	0.597168	-0.007324	0.592785	-0.420394	-0.608029	-0.319648	-130.249087	-81.736678	66.959436	0.056251	0.132258	0.989618	0.890189	0.442188	-0.109695	-0.452106	0.887117	-0.092861	0	0	0
14341	0	0	0	0	0	9.726435	-1.160075	-0.863776	0.010032	0.005804	-0.000103	-0.890137	0.591309	-0.006836	0.592813	-0.420371	-0.608028	-0.319631	-130.231713	-81.737456	66.945965	0.056276	0.132232	0.989620	0.890156	0.442250	-0.109713	-0.452167	0.887091	-0.092819	0	0	0
14342	0	0	0	0	0	9.684614	-1.100374	-0.872483	0.010447	0.000054	-0.008259	-0.885498	0.594238	-0.004150	0.592813	-0.420328	-0.608062	-0.319621	-130.250801	-81.739724	66.970084	0.056205	0.132220	0.989626	0.890123	0.442333	-0.109652	-0.452242	0.887051	-0.092830	0	0	0
14343	0	0	0	0	0	9.718643	-1.083098	-0.853334	0.008144	0.004880	-0.003242	-0.884766	0.591064	-0.003906	0.592828	-0.420303	-0.608067	-0.319617	-130.245294	-81.741533	66.967512	0.056199	0.132188	0.989630	0.890100	0.442381	-0.109637	-0.452287	0.887032	-0.092800	0	0	0
14344	0	0	0	0	0	9.717646	-1.105093	-0.862623	0.005448	0.003820	-0.005073	-0.889160	0.595947	-0.007813	0.592829	-0.420289	-0.608069	-0.319630	-130.248356	-81.743714	66.970720	0.056177	0.132157	0.989636	0.890101	0.442388	-0.109604	-0.452287	0.887033	-0.092781	0	0	0
14345	0	0	0	0	0	9.707602	-1.073216	-0.872182	0.008063	0.001394	-0.003971	-0.893555	0.589600	-0.003174	0.592832	-0.420267	-0.608086	-0.319621	-130.255262	-81.744551	66.980645	0.056148	0.132153	0.989638	0.890080	0.442436	-0.109582	-0.452333	0.887009	-0.092785	0	0	0
14346	0	0	0	0	0	9.708030	-1.028595	-0.912075	0.008911	0.003272	-0.004914	-0.886475	0.595947	-0.007324	0.592842	-0.420236	-0.608099	-0.319616	-130.257586	-81.746574	66.986455	0.056121	0.132127	0.989643	0.890055	0.442494	-0.109551	-0.452386	0.886984	-0.092767	0	0	0
14347	0	0	0	0	0	9.718216	-1.059734	-0.901867	0.008063	0.001394	-0.003971	-0.885254	0.593994	-0.006836	0.592846	-0.420214	-0.608116	-0.319607	-130.264495	-81.747411	66.996382	0.056093	0.132123	0.989645	0.890033	0.442543	-0.109529	-0.452432	0.886961	-0.092771	0	0	0
14348	0	0	0	0	0	9.686137	-1.075699	-0.860652	0.001944	0.002624	-0.005598	-0.879395	0.584473	-0.011963	0.592840	-0.420203	-0.608122	-0.319622	-130.273848	-81.749429	67.005457	0.056058	0.132100	0.989650	0.890039	0.442543	-0.109487	-0.452425	0.886964	-0.092766	0	0	0
14349	0	0	0	0	0	9.705725	-1.116464	-0.890535	0.003024	0.003416	-0.001152	-0.884766	0.587646	-0.006348	0.592843	-0.420201	-0.608119	-0.319624	-130.270352	-81.749782	67.001954	0.056064	0.132091	0.989651	0.890038	0.442543	-0.109488	-0.452425	0.886965	-0.092755	0	0	0
14350	0	0	0	0	0	9.719104	-1.080836	-0.850939	0.003024	0.003416	-0.001152	-0.890869	0.585205	-0.006104	0.592853	-0.420190	-0.608121	-0.319618	-130.265441	-81.750315	66.998760	0.056068	0.132079	0.989652	0.890025	0.442570	-0.109489	-0.452452	0.886954	-0.092740	0	0	0
14351	0	0	0	0	0	9.719135	-1.080773	-0.850669	0.004311	0.001331	-0.000783	-0.886475	0.593262	-0.009521	0.592853	-0.420189	-0.608125	-0.319610	-130.266550	-81.749734	67.000654	0.056067	0.132091	0.989651	0.890018	0.442581	-0.109495	-0.452464	0.886946	-0.092749	0	0	0
14352	0	0	0	0	0	9.706897	-1.093893	-0.879936	0.002984	0.001672	-0.001516	-0.890869	0.592285	-0.003418	0.592856	-0.420181	-0.608131	-0.319604	-130.268155	-81.749767	67.003561	0.056060	0.132093	0.989651	0.890009	0.442602	-0.109492	-0.452484	0.886936	-0.092751	0	0	0
14353	0	0	0	0	0	9.684183	-1.119700	-0.878955	0.005079	-0.000277	-0.002454	-0.890869	0.597412	-0.005859	0.592850	-0.420176	-0.608145	-0.319596	-130.277942	-81.749322	67.014669	0.056038	0.132111	0.989650	0.890000	0.442622	-0.109482	-0.452505	0.886923	-0.092775	0	0	0
14354	0	0	0	0	0	9.729679	-1.067601	-0.880761	0.006367	-0.002361	-0.002085	-0.885742	0.591553	-0.000977	0.592840	-0.420175	-0.608162	-0.319582	-130.291473	-81.747946	67.029564	0.056013	0.132147	0.989646	0.889990	0.442642	-0.109478	-0.452526	0.886908	-0.092816	0	0	0
14355	0	0	0	0	0	9.740176	-1.054689	-0.911067	0.005119	0.001467	-0.002090	-0.886230	0.592773	-0.011230	0.592841	-0.420167	-0.608170	-0.319576	-130.295048	-81.747987	67.034418	0.056001	0.132151	0.989646	0.889981	0.442662	-0.109472	-0.452545	0.886897	-0.092823	0	0	0
14356	0	0	0	0	0	9.708071	-1.070963	-0.869732	0.003063	0.005160	-0.000788	-0.887451	0.594482	-0.004395	0.592851	-0.420165	-0.608159	-0.319581	-130.284198	-81.748861	67.023393	0.056021	0.132127	0.989649	0.889981	0.442660	-0.109478	-0.452543	0.886902	-0.092792	0	0	0
14357	0	0	0	0	0	9.707047	-1.093088	-0.879289	0.002384	-0.001339	-0.004286	-0.884033	0.599854	-0.007324	0.592834	-0.420163	-0.608176	-0.319584	-130.303406	-81.748822	67.042460	0.055977	0.132146	0.989648	0.889986	0.442659	-0.109447	-0.452540	0.886900	-0.092829	0	0	0
14358	0	0	0	0	0	9.685421	-1.096421	-0.868499	-0.003903	0.004509	-0.001473	-0.881836	0.592529	-0.004150	0.592825	-0.420183	-0.608155	-0.319613	-130.299932	-81.749657	67.034306	0.055990	0.132125	0.989651	0.890022	0.442587	-0.109442	-0.452467	0.886938	-0.092813	0	0	0
14359	0	0	0	0	0	9.719402	-1.079384	-0.849387	0.003792	0.001808	-0.002823	-0.892334	0.597412	-0.019287	0.592822	-0.420177	-0.608161	-0.319614	-130.305115	-81.750145	67.040017	0.055974	0.132122	0.989652	0.890019	0.442597	-0.109427	-0.452474	0.886934	-0.092818	0	0	0
14360	0	0	0	0	0	9.686574	-1.073643	-0.858294	-0.000520	0.000476	-0.002041	-0.887207	0.594482	-0.007813	0.592818	-0.420172	-0.608172	-0.319608	-130.312472	-81.749958	67.048384	0.055956	0.132134	0.989651	0.890012	0.442612	-0.109418	-0.452490	0.886924	-0.092834	0	0	0
14361	0	0	0	0	0	9.707201	-1.092269	-0.878602	0.002175	0.001538	-0.000209	-0.889404	0.593018	-0.011475	0.592816	-0.420179	-0.608170	-0.319606	-130.312711	-81.749203	67.048163	0.055961	0.132145	0.989649	0.890015	0.442604	-0.109427	-0.452483	0.886927	-0.092843	0	0	0
14362	0	0	0	0	0	9.696047	-1.082969	-0.898078	0.002464	0.002149	-0.003557	-0.887451	0.596680	-0.004883	0.592818	-0.420162	-0.608181	-0.319604	-130.317713	-81.750275	67.054908	0.055939	0.132135	0.989652	0.890004	0.442633	-0.109405	-0.452509	0.886914	-0.092840	0	0	0
14363	0	0	0	0	0	9.719508	-1.078779	-0.848932	0.004751	-0.002631	0.000530	-0.883301	0.593994	-0.005859	0.592809	-0.420170	-0.608195	-0.319583	-130.327142	-81.747653	67.065464	0.055932	0.132187	0.989646	0.889995	0.442647	-0.109424	-0.452528	0.886899	-0.092888	0	0	0
14364	0	0	0	0	0	9.719874	-1.034441	-0.889153	0.000328	0.002354	-0.002984	-0.891602	0.589844	-0.008301	0.592800	-0.420178	-0.608190	-0.319600	-130.331806	-81.748364	67.067835	0.055922	0.132178	0.989647	0.890014	0.442612	-0.109407	-0.452491	0.886918	-0.092889	0	0	0
14365	0	0	0	0	0	9.708367	-1.069434	-0.868306	-0.005520	0.004239	0.001141	-0.885010	0.600098	-0.003662	0.592791	-0.420207	-0.608166	-0.319623	-130.324863	-81.748022	67.055902	0.055951	0.132172	0.989646	0.890051	0.442534	-0.109423	-0.452415	0.886958	-0.092879	0	0	0
14366	0	0	0	0	0	9.707337	-1.091652	-0.877869	0.000289	0.000611	-0.003348	-0.885498	0.595703	-0.001221	0.592778	-0.420212	-0.608169	-0.319634	-130.335773	-81.748310	67.065238	0.055928	0.132176	0.989647	0.890065	0.442511	-0.109402	-0.452390	0.886969	-0.092897	0	0	0
14367	0	0	0	0	0	9.718562	-1.100526	-0.858136	-0.000520	0.000476	-0.002041	-0.883301	0.593750	-0.006104	0.592763	-0.420223	-0.608171	-0.319643	-130.345436	-81.747962	67.072980	0.055912	0.132189	0.989646	0.890081	0.442481	-0.109390	-0.452360	0.886982	-0.092919	0	0	0
14368	0	0	0	0	0	9.696929	-1.103962	-0.847283	0.001695	0.003757	-0.001886	-0.880859	0.593262	-0.011230	0.592760	-0.420233	-0.608159	-0.319660	-130.342571	-81.748669	67.067611	0.055920	0.132173	0.989648	0.890101	0.442443	-0.109386	-0.452321	0.887003	-0.092906	0	0	0
14369	0	0	0	0	0	9.720055	-1.033701	-0.888026	0.000079	0.003487	0.000729	-0.884277	0.587158	-0.008545	0.592760	-0.420246	-0.608147	-0.319666	-130.335739	-81.748228	67.059032	0.055943	0.132172	0.989647	0.890113	0.442415	-0.109403	-0.452294	0.887017	-0.092898	0	0	0
14370	0	0	0	0	0	9.697334	-1.059762	-0.886904	-0.004232	0.002155	0.001511	-0.882813	0.599365	-0.014160	0.592757	-0.420264	-0.608136	-0.319669	-130.331524	-81.747097	67.052643	0.055965	0.132183	0.989644	0.890128	0.442379	-0.109424	-0.452261	0.887034	-0.092902	0	0	0
14371	0	0	0	0	0	9.705351	-1.135974	-0.896360	-0.001288	0.002084	-0.000370	-0.885498	0.588379	-0.004883	0.592748	-0.420280	-0.608128	-0.319679	-130.332508	-81.746616	67.051170	0.055972	0.132190	0.989643	0.890147	0.442340	-0.109429	-0.452224	0.887052	-0.092909	0	0	0
14372	0	0	0	0	0	9.740361	-1.096782	-0.867502	-0.003384	0.004034	0.000568	-0.887939	0.593262	-0.003906	0.592749	-0.420293	-0.608113	-0.319688	-130.324435	-81.746539	67.041029	0.055996	0.132181	0.989643	0.890161	0.442307	-0.109443	-0.452192	0.887070	-0.092895	0	0	0
14373	0	0	0	0	0	9.695271	-1.104448	-0.905814	-0.001328	0.000341	-0.000734	-0.885986	0.592529	-0.009033	0.592735	-0.420310	-0.608111	-0.319696	-130.331624	-81.745570	67.045803	0.055991	0.132201	0.989640	0.890180	0.442268	-0.109444	-0.452155	0.887086	-0.092919	0	0	0
14374	0	0	0	0	0	9.718715	-1.100375	-0.856591	0.003503	0.001197	0.000525	-0.883301	0.594482	-0.008789	0.592738	-0.420314	-0.608112	-0.319685	-130.329009	-81.744426	67.043769	0.056004	0.132217	0.989637	0.890174	0.442275	-0.109464	-0.452165	0.887080	-0.092927	0	0	0
14375	0	0	0	0	0	9.730271	-1.065385	-0.876901	0.001407	0.003147	0.001463	-0.893799	0.592773	-0.005127	0.592741	-0.420326	-0.608101	-0.319683	-130.320570	-81.743538	67.034334	0.056031	0.132222	0.989635	0.890180	0.442257	-0.109489	-0.452150	0.887088	-0.092921	0	0	0
14376	0	0	0	0	0	9.706486	-1.113739	-0.885637	-0.001328	0.000341	-0.000734	-0.882813	0.593018	-0.010498	0.592730	-0.420339	-0.608100	-0.319688	-130.326445	-81.742650	67.038472	0.056028	0.132240	0.989633	0.890194	0.442229	-0.109491	-0.452124	0.887100	-0.092942	0	0	0
14377	0	0	0	0	0	9.717694	-1.122774	-0.865847	0.002984	0.001673	-0.001516	-0.887939	0.596680	-0.000244	0.592727	-0.420340	-0.608103	-0.319687	-130.329149	-81.742517	67.041210	0.056022	0.132245	0.989633	0.890194	0.442230	-0.109489	-0.452124	0.887099	-0.092949	0	0	0
14378	0	0	0	0	0	9.730326	-1.065258	-0.876440	0.002175	0.001538	-0.000209	-0.877686	0.593994	-0.010742	0.592724	-0.420350	-0.608099	-0.319687	-130.328116	-81.741736	67.039133	0.056032	0.132255	0.989631	0.890201	0.442212	-0.109501	-0.452109	0.887106	-0.092956	0	0	0
14379	0	0	0	0	0	9.708683	-1.068758	-0.865609	0.003792	0.001808	-0.002823	-0.884277	0.589844	-0.011719	0.592722	-0.420344	-0.608105	-0.319688	-130.333289	-81.742223	67.044834	0.056016	0.132253	0.989632	0.890198	0.442221	-0.109486	-0.452116	0.887102	-0.092960	0	0	0
14380	0	0	0	0	0	9.706579	-1.113396	-0.885052	-0.000808	-0.000135	0.001307	-0.883789	0.593506	-0.010010	0.592720	-0.420352	-0.608108	-0.319674	-130.334069	-81.740330	67.046086	0.056026	0.132285	0.989627	0.890193	0.442225	-0.109509	-0.452125	0.887095	-0.092983	0	0	0
14381	0	0	0	0	0	9.707691	-1.090824	-0.874980	0.008431	0.005496	-0.006588	-0.884521	0.593750	-0.009521	0.592733	-0.420315	-0.608119	-0.319680	-130.335108	-81.743829	67.050295	0.055993	0.132233	0.989636	0.890172	0.442281	-0.109462	-0.452171	0.887075	-0.092946	0	0	0
14382	0	0	0	0	0	9.695153	-1.147999	-0.863800	0.007774	0.000787	-0.000620	-0.884521	0.592773	-0.006104	0.592746	-0.420294	-0.608135	-0.319651	-130.333417	-81.743086	67.053310	0.055991	0.132248	0.989634	0.890135	0.442353	-0.109474	-0.452245	0.887037	-0.092951	0	0	0
14383	0	0	0	0	0	9.717915	-1.121914	-0.864482	0.009391	0.001057	-0.003234	-0.889893	0.589600	-0.007324	0.592753	-0.420271	-0.608153	-0.319634	-130.338694	-81.743475	67.062357	0.055967	0.132250	0.989635	0.890107	0.442412	-0.109460	-0.452303	0.887007	-0.092956	0	0	0
