// General information: 
//  MT Manager version: 2022.2.0 
//  XDA version: 2022.2.0 build 7381 rev 124627 built on 2023-07-19
// Device information: 
//  DeviceId: 10B426F3
//  ProductCode: MTW2-3A7G6
//  Firmware Version: 4.14.0
//  Hardware Version: 3.0.0
// Device settings: 
//  Filter Profile: human(46.1)
//  Option Flags: Orientation Smoother Disabled, Position/Velocity Smoother Disabled, Continuous Zero Rotation Update Disabled, AHS Disabled, ICC Disabled
// Coordinate system: ENU
PacketCounter	SampleTimeFine	Year	Month	Day	Second	Acc_X	Acc_Y	Acc_Z	Gyr_X	Gyr_Y	Gyr_Z	Mag_X	Mag_Y	Mag_Z	Quat_q0	Quat_q1	Quat_q2	Quat_q3	Roll	Pitch	Yaw	Mat[1][1]	Mat[2][1]	Mat[3][1]	Mat[1][2]	Mat[2][2]	Mat[3][2]	Mat[1][3]	Mat[2][3]	Mat[3][3]	Vel_E	Vel_N	Vel_U
13933	0	0	0	0	0	4.429808	2.067662	8.553118	-0.004080	0.005621	0.007437	-0.774414	0.056641	-0.512939	0.408899	-0.162142	-0.200109	-0.875482	14.095311	-26.586760	-133.275795	-0.613023	-0.651075	0.447552	0.780859	-0.585516	0.217784	0.120256	0.482982	0.867333	0	0	0
13934	0	0	0	0	0	4.430627	1.999007	8.526429	-0.001266	0.004262	0.007740	-0.764648	0.050781	-0.508057	0.408907	-0.162141	-0.200106	-0.875479	14.094837	-26.586756	-133.274705	-0.613011	-0.651087	0.447552	0.780869	-0.585505	0.217776	0.120253	0.482979	0.867335	0	0	0
13935	0	0	0	0	0	4.476793	2.064333	8.517397	-0.000942	0.004962	0.004066	-0.767578	0.052979	-0.513672	0.408898	-0.162138	-0.200105	-0.875484	14.095046	-26.586171	-133.275865	-0.613027	-0.651078	0.447543	0.780856	-0.585521	0.217781	0.120254	0.482973	0.867339	0	0	0
13936	0	0	0	0	0	4.466581	2.091722	8.535651	-0.001441	0.003947	0.006067	-0.763916	0.055908	-0.517578	0.408898	-0.162138	-0.200104	-0.875484	14.094959	-26.586108	-133.275864	-0.613028	-0.651078	0.447542	0.780856	-0.585522	0.217780	0.120254	0.482971	0.867340	0	0	0
13937	0	0	0	0	0	4.438718	2.038454	8.535979	0.002046	0.003917	0.006044	-0.767090	0.047119	-0.503174	0.408911	-0.162132	-0.200117	-0.875476	14.096387	-26.586270	-133.274416	-0.613010	-0.651093	0.447545	0.780874	-0.585490	0.217801	0.120224	0.482990	0.867333	0	0	0
13938	0	0	0	0	0	4.457238	2.050928	8.527072	-0.000941	0.004962	0.004066	-0.761475	0.049805	-0.500732	0.408904	-0.162124	-0.200118	-0.875481	14.097072	-26.585364	-133.275500	-0.613027	-0.651087	0.447531	0.780862	-0.585501	0.217813	0.120215	0.482985	0.867337	0	0	0
13939	0	0	0	0	0	4.456933	2.050694	8.527288	0.000640	0.004597	0.005892	-0.771240	0.055664	-0.516602	0.408890	-0.162124	-0.200121	-0.875486	14.097775	-26.585309	-133.277383	-0.613049	-0.651067	0.447530	0.780844	-0.585521	0.217824	0.120220	0.482988	0.867335	0	0	0
13940	0	0	0	0	0	4.456635	2.050399	8.527515	-0.000592	0.005591	0.007415	-0.760742	0.060059	-0.513672	0.408898	-0.162116	-0.200119	-0.875484	14.097684	-26.584520	-133.276287	-0.613041	-0.651083	0.447517	0.780853	-0.585509	0.217824	0.120204	0.482980	0.867341	0	0	0
13941	0	0	0	0	0	4.432879	2.028666	8.514470	-0.000151	-0.000386	0.005349	-0.764893	0.056641	-0.513916	0.408906	-0.162132	-0.200133	-0.875475	14.098305	-26.586985	-133.275500	-0.613019	-0.651077	0.447556	0.780869	-0.585486	0.217829	0.120215	0.483016	0.867320	0	0	0
13942	0	0	0	0	0	4.456367	2.049866	8.527783	0.002338	0.007885	0.008589	-0.770264	0.053711	-0.507813	0.408923	-0.162110	-0.200138	-0.875469	14.099406	-26.585086	-133.273316	-0.613004	-0.651111	0.447526	0.780889	-0.585453	0.217849	0.120162	0.483010	0.867330	0	0	0
13943	0	0	0	0	0	4.441211	2.068740	8.523756	0.001698	0.003288	0.002696	-0.762451	0.054688	-0.516113	0.408913	-0.162106	-0.200153	-0.875472	14.101609	-26.585216	-133.275093	-0.613024	-0.651092	0.447528	0.780875	-0.585458	0.217882	0.120148	0.483031	0.867321	0	0	0
13944	0	0	0	0	0	4.464657	2.090149	8.537043	0.001872	0.003602	0.004371	-0.764160	0.055420	-0.516357	0.408908	-0.162099	-0.200169	-0.875472	14.103916	-26.585108	-133.276199	-0.613037	-0.651080	0.447527	0.780869	-0.585454	0.217917	0.120125	0.483051	0.867313	0	0	0
13945	0	0	0	0	0	4.440752	2.068585	8.524034	0.000815	0.004912	0.007568	-0.770264	0.049072	-0.512451	0.408930	-0.162091	-0.200174	-0.875461	14.104139	-26.584903	-133.273276	-0.613005	-0.651113	0.447523	0.780899	-0.585413	0.217921	0.120095	0.483057	0.867314	0	0	0
13946	0	0	0	0	0	4.450414	2.040623	8.506206	0.000640	0.004597	0.005893	-0.769775	0.050293	-0.508301	0.408932	-0.162084	-0.200181	-0.875461	14.105247	-26.584455	-133.273281	-0.613007	-0.651115	0.447516	0.780900	-0.585405	0.217938	0.120075	0.483063	0.867313	0	0	0
13947	0	0	0	0	0	4.425511	2.086999	8.520163	-0.002290	0.002304	0.004719	-0.764404	0.052490	-0.510986	0.408916	-0.162097	-0.200177	-0.875467	14.104746	-26.585450	-133.275354	-0.613025	-0.651088	0.447532	0.780880	-0.585434	0.217929	0.120110	0.483065	0.867307	0	0	0
13948	0	0	0	0	0	4.445064	2.076405	8.546810	-0.002289	0.002304	0.004719	-0.771484	0.048096	-0.511719	0.408907	-0.162104	-0.200177	-0.875469	14.104662	-26.586112	-133.276446	-0.613034	-0.651072	0.447542	0.780870	-0.585448	0.217926	0.120127	0.483069	0.867303	0	0	0
13949	0	0	0	0	0	4.464645	2.020597	8.510991	0.000084	0.006921	0.007090	-0.767334	0.054199	-0.508301	0.408912	-0.162094	-0.200173	-0.875470	14.104528	-26.584837	-133.275770	-0.613033	-0.651087	0.447522	0.780874	-0.585444	0.217927	0.120110	0.483055	0.867313	0	0	0
13950	0	0	0	0	0	4.420798	2.054263	8.534122	-0.001266	0.004262	0.007742	-0.769531	0.051758	-0.501221	0.408920	-0.162093	-0.200171	-0.875467	14.104052	-26.584833	-133.274678	-0.613021	-0.651098	0.447522	0.780884	-0.585433	0.217920	0.120107	0.483052	0.867315	0	0	0
13951	0	0	0	0	0	4.454148	2.047671	8.529469	0.000292	0.003968	0.002545	-0.764404	0.045898	-0.510010	0.408896	-0.162093	-0.200177	-0.875477	14.105480	-26.584656	-133.278012	-0.613060	-0.651064	0.447520	0.780852	-0.585467	0.217942	0.120114	0.483058	0.867311	0	0	0
13952	0	0	0	0	0	4.457832	2.079037	8.516383	-0.002346	0.005643	0.003916	-0.769531	0.056152	-0.509521	0.408888	-0.162085	-0.200170	-0.875484	14.105353	-26.583351	-133.279083	-0.613079	-0.651060	0.447499	0.780838	-0.585486	0.217942	0.120111	0.483040	0.867321	0	0	0
13953	0	0	0	0	0	4.477165	2.068487	8.543132	-0.001615	0.003633	0.004394	-0.767578	0.048096	-0.521729	0.408876	-0.162089	-0.200167	-0.875489	14.105216	-26.583535	-133.280587	-0.613095	-0.651042	0.447502	0.780823	-0.585507	0.217940	0.120128	0.483037	0.867320	0	0	0
13954	0	0	0	0	0	4.453217	2.046759	8.530174	-0.000765	0.005277	0.005743	-0.770508	0.046387	-0.508789	0.408876	-0.162082	-0.200167	-0.875490	14.105513	-26.582688	-133.280579	-0.613099	-0.651047	0.447489	0.780821	-0.585507	0.217946	0.120115	0.483031	0.867325	0	0	0
13955	0	0	0	0	0	4.414463	2.044059	8.512971	0.000641	0.004596	0.005895	-0.766357	0.047607	-0.514893	0.408874	-0.162078	-0.200171	-0.875491	14.106226	-26.582495	-133.280941	-0.613105	-0.651045	0.447486	0.780818	-0.585506	0.217957	0.120106	0.483036	0.867324	0	0	0
13956	0	0	0	0	0	4.437830	2.065224	8.526370	-0.000939	0.004962	0.004068	-0.764648	0.043457	-0.514404	0.408867	-0.162071	-0.200172	-0.875495	14.106910	-26.581589	-133.282023	-0.613122	-0.651038	0.447472	0.780806	-0.585518	0.217969	0.120096	0.483030	0.867328	0	0	0
13957	0	0	0	0	0	4.457340	2.054531	8.553059	-0.004872	0.000641	0.006894	-0.768799	0.049561	-0.517334	0.408862	-0.162096	-0.200160	-0.875496	14.104478	-26.583711	-133.282329	-0.613114	-0.651023	0.447505	0.780804	-0.585537	0.217928	0.120154	0.483028	0.867322	0	0	0
13958	0	0	0	0	0	4.452322	2.045249	8.531004	-0.002520	0.005328	0.002242	-0.772949	0.047852	-0.511230	0.408845	-0.162089	-0.200155	-0.875506	14.104740	-26.582346	-133.284489	-0.613146	-0.651007	0.447484	0.780779	-0.585568	0.217935	0.120155	0.483011	0.867331	0	0	0
13959	0	0	0	0	0	4.475684	2.066139	8.544476	-0.004927	0.003979	0.006090	-0.765625	0.058594	-0.508789	0.408838	-0.162100	-0.200135	-0.875512	14.102232	-26.582555	-133.284960	-0.613150	-0.651001	0.447487	0.780769	-0.585594	0.217896	0.120195	0.482987	0.867339	0	0	0
13960	0	0	0	0	0	4.422245	2.081990	8.523084	-0.004927	0.003979	0.006091	-0.767578	0.055420	-0.514893	0.408835	-0.162107	-0.200119	-0.875516	14.100138	-26.582477	-133.284939	-0.613150	-0.651002	0.447486	0.780765	-0.585612	0.217865	0.120223	0.482965	0.867347	0	0	0
13961	0	0	0	0	0	4.470370	2.055937	8.522800	-0.006333	0.004660	0.005939	-0.765869	0.055176	-0.516113	0.408838	-0.162116	-0.200094	-0.875518	14.096718	-26.582277	-133.283935	-0.613140	-0.651014	0.447482	0.780767	-0.585628	0.217813	0.120259	0.482930	0.867362	0	0	0
13962	0	0	0	0	0	4.441565	2.025137	8.487640	-0.002846	0.004628	0.005918	-0.769531	0.053955	-0.503174	0.408837	-0.162115	-0.200086	-0.875521	14.095819	-26.581815	-133.283920	-0.613142	-0.651017	0.447475	0.780764	-0.585636	0.217801	0.120266	0.482915	0.867369	0	0	0
13963	0	0	0	0	0	4.437084	2.038295	8.563740	-0.003870	0.002670	0.002893	-0.757568	0.048828	-0.514160	0.408819	-0.162127	-0.200077	-0.875529	14.094830	-26.582336	-133.286057	-0.613164	-0.650991	0.447483	0.780742	-0.585672	0.217785	0.120303	0.482907	0.867369	0	0	0
13964	0	0	0	0	0	4.455626	2.050626	8.554888	0.001317	0.005925	0.005571	-0.768311	0.046631	-0.512695	0.408821	-0.162112	-0.200084	-0.875529	14.096322	-26.581105	-133.286055	-0.613170	-0.650998	0.447464	0.780742	-0.585663	0.217810	0.120270	0.482908	0.867372	0	0	0
13965	0	0	0	0	0	4.440584	2.069241	8.550876	-0.003521	0.003299	0.006243	-0.765381	0.047363	-0.517578	0.408820	-0.162122	-0.200073	-0.875531	14.094630	-26.581654	-133.285934	-0.613166	-0.650996	0.447473	0.780741	-0.585674	0.217783	0.120297	0.482897	0.867375	0	0	0
13966	0	0	0	0	0	4.454353	2.072661	8.519757	0.000990	0.005224	0.009247	-0.763184	0.051758	-0.518311	0.408837	-0.162114	-0.200078	-0.875523	14.094962	-26.581325	-133.283757	-0.613143	-0.651021	0.447468	0.780763	-0.585643	0.217789	0.120271	0.482902	0.867376	0	0	0
13967	0	0	0	0	0	4.435327	2.059553	8.529043	-0.003347	0.003613	0.007919	-0.770996	0.055420	-0.511719	0.408850	-0.162122	-0.200066	-0.875518	14.092858	-26.581887	-133.281673	-0.613116	-0.651040	0.447476	0.780781	-0.585631	0.217756	0.120288	0.482891	0.867380	0	0	0
13968	0	0	0	0	0	4.449061	2.062976	8.497945	-0.000938	0.004962	0.004070	-0.770264	0.045410	-0.507568	0.408842	-0.162115	-0.200067	-0.875523	14.093542	-26.580982	-133.282754	-0.613133	-0.651034	0.447462	0.780769	-0.585642	0.217768	0.120278	0.482885	0.867384	0	0	0
13969	0	0	0	0	0	4.448825	2.062497	8.498185	-0.003173	0.003927	0.009594	-0.773926	0.047607	-0.510254	0.408848	-0.162128	-0.200052	-0.875521	14.091054	-26.581771	-133.281609	-0.613116	-0.651042	0.447475	0.780778	-0.585645	0.217729	0.120311	0.482871	0.867387	0	0	0
13970	0	0	0	0	0	4.438707	2.089655	8.516459	-0.003019	0.004314	0.004244	-0.761230	0.052002	-0.506348	0.408839	-0.162128	-0.200045	-0.875527	14.090543	-26.581250	-133.282684	-0.613131	-0.651033	0.447466	0.780764	-0.585666	0.217722	0.120322	0.482858	0.867393	0	0	0
13971	0	0	0	0	0	4.453920	2.047478	8.556531	0.001666	0.006552	0.008923	-0.763916	0.042969	-0.511963	0.408848	-0.162118	-0.200047	-0.875524	14.090835	-26.580476	-133.281495	-0.613122	-0.651050	0.447454	0.780775	-0.585649	0.217728	0.120300	0.482855	0.867398	0	0	0
13972	0	0	0	0	0	4.434105	2.057255	8.530233	-0.004197	0.001970	0.006569	-0.768555	0.041260	-0.517578	0.408846	-0.162133	-0.200037	-0.875524	14.089167	-26.581582	-133.281489	-0.613116	-0.651044	0.447472	0.780775	-0.585660	0.217700	0.120334	0.482850	0.867396	0	0	0
13973	0	0	0	0	0	4.448710	2.037845	8.534659	0.000642	0.004595	0.005899	-0.768555	0.052246	-0.511230	0.408839	-0.162130	-0.200041	-0.875527	14.089934	-26.581379	-133.282485	-0.613128	-0.651034	0.447468	0.780765	-0.585668	0.217712	0.120330	0.482854	0.867395	0	0	0
13974	0	0	0	0	0	4.428807	2.047933	8.508334	0.002898	0.005556	0.007401	-0.767334	0.047363	-0.517090	0.408850	-0.162116	-0.200055	-0.875522	14.091849	-26.580608	-133.281403	-0.613120	-0.651050	0.447456	0.780779	-0.585639	0.217743	0.120286	0.482867	0.867393	0	0	0
13975	0	0	0	0	0	4.457017	2.077847	8.544035	-0.000763	0.005276	0.005747	-0.762695	0.046387	-0.512207	0.408850	-0.162112	-0.200052	-0.875523	14.091714	-26.580027	-133.281419	-0.613123	-0.651054	0.447447	0.780777	-0.585642	0.217742	0.120282	0.482859	0.867398	0	0	0
13976	0	0	0	0	0	4.432998	2.056163	8.531072	-0.000763	0.005276	0.005747	-0.763916	0.054443	-0.513916	0.408850	-0.162104	-0.200052	-0.875524	14.092010	-26.579181	-133.281409	-0.613128	-0.651058	0.447434	0.780775	-0.585642	0.217748	0.120269	0.482853	0.867403	0	0	0
13977	0	0	0	0	0	4.451447	2.068492	8.522289	-0.000087	0.006605	0.005422	-0.770264	0.051758	-0.516602	0.408854	-0.162091	-0.200050	-0.875526	14.092248	-26.577790	-133.280951	-0.613130	-0.651071	0.447412	0.780777	-0.585637	0.217754	0.120248	0.482841	0.867413	0	0	0
13978	0	0	0	0	0	4.432124	2.055574	8.531668	-0.001492	0.007286	0.005270	-0.768555	0.052002	-0.510010	0.408853	-0.162076	-0.200043	-0.875530	14.092119	-26.575760	-133.280924	-0.613141	-0.651083	0.447381	0.780771	-0.585644	0.217756	0.120228	0.482817	0.867429	0	0	0
13979	0	0	0	0	0	4.450604	2.067809	8.522894	-0.001439	0.003947	0.006072	-0.773682	0.046631	-0.515869	0.408852	-0.162080	-0.200039	-0.875531	14.091576	-26.575990	-133.280960	-0.613140	-0.651081	0.447384	0.780770	-0.585648	0.217748	0.120238	0.482814	0.867429	0	0	0
13980	0	0	0	0	0	4.450184	2.067617	8.523160	0.002671	0.008581	0.004925	-0.762207	0.050537	-0.511230	0.408855	-0.162050	-0.200048	-0.875533	14.093838	-26.573193	-133.280945	-0.613154	-0.651097	0.447341	0.780768	-0.585636	0.217787	0.120178	0.482806	0.867442	0	0	0
13981	0	0	0	0	0	4.430991	2.054840	8.532433	0.001893	0.003526	0.011404	-0.774170	0.053223	-0.506104	0.408877	-0.162054	-0.200055	-0.875520	14.093790	-26.574385	-133.278066	-0.613115	-0.651121	0.447359	0.780800	-0.585594	0.217784	0.120167	0.482825	0.867433	0	0	0
13982	0	0	0	0	0	4.449608	2.067058	8.523596	-0.002168	0.005958	0.005595	-0.770020	0.047607	-0.516357	0.408877	-0.162046	-0.200047	-0.875524	14.093276	-26.573140	-133.278044	-0.613122	-0.651129	0.447340	0.780796	-0.585602	0.217779	0.120161	0.482806	0.867444	0	0	0
13983	0	0	0	0	0	4.429721	2.076889	8.497329	-0.001439	0.003947	0.006073	-0.769531	0.055420	-0.505615	0.408869	-0.162052	-0.200043	-0.875528	14.092755	-26.573423	-133.279008	-0.613131	-0.651117	0.447344	0.780786	-0.585619	0.217770	0.120179	0.482802	0.867444	0	0	0
13984	0	0	0	0	0	4.444252	2.057507	8.501786	-0.001439	0.003947	0.006073	-0.771240	0.053955	-0.520752	0.408869	-0.162052	-0.200042	-0.875528	14.092666	-26.573361	-133.279003	-0.613132	-0.651117	0.447343	0.780786	-0.585619	0.217769	0.120180	0.482800	0.867445	0	0	0
13985	0	0	0	0	0	4.463688	2.046801	8.528499	-0.001941	0.002933	0.008073	-0.763428	0.052734	-0.502441	0.408877	-0.162063	-0.200037	-0.875523	14.091317	-26.574443	-133.277635	-0.613110	-0.651126	0.447360	0.780800	-0.585609	0.217747	0.120198	0.482801	0.867442	0	0	0
13986	0	0	0	0	0	4.453679	2.074106	8.546685	0.000141	0.003580	0.007901	-0.761719	0.046387	-0.512695	0.408886	-0.162063	-0.200042	-0.875518	14.091650	-26.574840	-133.276551	-0.613096	-0.651135	0.447366	0.780813	-0.585590	0.217751	0.120188	0.482811	0.867438	0	0	0
13987	0	0	0	0	0	4.463361	2.045974	8.528869	-0.003018	0.004315	0.004245	-0.770996	0.050781	-0.516357	0.408872	-0.162067	-0.200032	-0.875526	14.090710	-26.574625	-133.278195	-0.613116	-0.651119	0.447363	0.780793	-0.585621	0.217737	0.120213	0.482796	0.867443	0	0	0
13988	0	0	0	0	0	4.448331	2.064496	8.524884	-0.000240	0.006218	0.010776	-0.759521	0.055664	-0.507568	0.408896	-0.162059	-0.200028	-0.875517	14.089842	-26.573958	-133.274913	-0.613082	-0.651158	0.447353	0.780823	-0.585586	0.217725	0.120190	0.482787	0.867451	0	0	0
13989	0	0	0	0	0	4.443098	2.055468	8.502882	-0.000606	0.005663	0.000397	-0.770264	0.054688	-0.506592	0.408876	-0.162047	-0.200030	-0.875528	14.091215	-26.572421	-133.277717	-0.613122	-0.651136	0.447329	0.780794	-0.585617	0.217749	0.120179	0.482778	0.867458	0	0	0
13990	0	0	0	0	0	4.428683	2.051239	8.534498	-0.004075	0.005625	0.007444	-0.770020	0.047607	-0.506104	0.408882	-0.162046	-0.200013	-0.875529	14.089118	-26.571618	-133.276598	-0.613114	-0.651153	0.447316	0.780798	-0.585621	0.217719	0.120190	0.482750	0.867472	0	0	0
13991	0	0	0	0	0	4.457102	2.035598	8.507727	-0.000762	0.005276	0.005749	-0.763916	0.052246	-0.514648	0.408870	-0.162046	-0.200008	-0.875536	14.088976	-26.571165	-133.278047	-0.613132	-0.651140	0.447309	0.780782	-0.585644	0.217717	0.120199	0.482740	0.867476	0	0	0
13992	0	0	0	0	0	4.447591	2.039982	8.561611	-0.004075	0.005625	0.007444	-0.768799	0.055908	-0.503418	0.408876	-0.162045	-0.199991	-0.875537	14.086878	-26.570362	-133.276928	-0.613124	-0.651157	0.447296	0.780787	-0.585648	0.217687	0.120210	0.482713	0.867490	0	0	0
13993	0	0	0	0	0	4.460549	2.066108	8.495054	-0.001993	0.006272	0.007273	-0.763184	0.057129	-0.504883	0.408882	-0.162041	-0.199980	-0.875538	14.085496	-26.569494	-133.275854	-0.613116	-0.651173	0.447283	0.780793	-0.585648	0.217668	0.120211	0.482691	0.867501	0	0	0
13994	0	0	0	0	0	4.432179	2.058017	8.557942	0.000817	0.004907	0.007579	-0.768311	0.054443	-0.511475	0.408891	-0.162034	-0.199985	-0.875533	14.086214	-26.569109	-133.274764	-0.613106	-0.651187	0.447277	0.780805	-0.585628	0.217679	0.120188	0.482696	0.867502	0	0	0
13995	0	0	0	0	0	4.455155	2.056658	8.473241	-0.001438	0.003947	0.006074	-0.771484	0.046875	-0.522705	0.408892	-0.162038	-0.199982	-0.875533	14.085625	-26.569370	-133.274603	-0.613103	-0.651187	0.447281	0.780806	-0.585630	0.217670	0.120197	0.482694	0.867502	0	0	0
13996	0	0	0	0	0	4.455303	2.078577	8.571670	-0.003744	0.006327	0.003769	-0.765381	0.055908	-0.509277	0.408882	-0.162030	-0.199968	-0.875543	14.084690	-26.567665	-133.275658	-0.613124	-0.651185	0.447254	0.780788	-0.585657	0.217659	0.120201	0.482663	0.867518	0	0	0
13997	0	0	0	0	0	4.464043	2.073296	8.518413	0.000090	0.006918	0.007102	-0.770264	0.049805	-0.510986	0.408893	-0.162017	-0.199965	-0.875540	14.084535	-26.566341	-133.274138	-0.613114	-0.651209	0.447234	0.780800	-0.585641	0.217659	0.120177	0.482650	0.867529	0	0	0
13998	0	0	0	0	0	4.459574	2.041319	8.531964	-0.001265	0.004261	0.007751	-0.770508	0.058838	-0.505127	0.408901	-0.162017	-0.199963	-0.875537	14.084058	-26.566340	-133.273041	-0.613101	-0.651221	0.447234	0.780810	-0.585630	0.217652	0.120174	0.482648	0.867531	0	0	0
13999	0	0	0	0	0	4.444698	2.059926	8.527884	-0.002463	0.001992	0.003047	-0.772949	0.052246	-0.512451	0.408879	-0.162030	-0.199960	-0.875546	14.083885	-26.567312	-133.275937	-0.613129	-0.651184	0.447249	0.780783	-0.585668	0.217648	0.120211	0.482650	0.867524	0	0	0
14000	0	0	0	0	0	4.439645	2.050858	8.505799	-0.000761	0.005276	0.005751	-0.770508	0.049561	-0.508789	0.408879	-0.162023	-0.199960	-0.875547	14.084181	-26.566468	-133.275924	-0.613133	-0.651189	0.447236	0.780782	-0.585668	0.217654	0.120198	0.482644	0.867529	0	0	0
14001	0	0	0	0	0	4.439310	2.050567	8.506044	-0.000934	0.004962	0.004075	-0.767090	0.050293	-0.506104	0.408863	-0.162021	-0.199957	-0.875555	14.084432	-26.565911	-133.277998	-0.613160	-0.651170	0.447227	0.780759	-0.585696	0.217659	0.120206	0.482636	0.867533	0	0	0
14002	0	0	0	0	0	4.463356	2.048587	8.555145	-0.004248	0.005312	0.005770	-0.764404	0.055420	-0.513672	0.408861	-0.162020	-0.199942	-0.875560	14.082723	-26.565049	-133.277968	-0.613164	-0.651176	0.447214	0.780754	-0.585712	0.217634	0.120220	0.482609	0.867546	0	0	0
14003	0	0	0	0	0	4.443439	2.058366	8.528916	-0.002339	0.005645	0.003922	-0.770996	0.053223	-0.513672	0.408852	-0.162016	-0.199932	-0.875567	14.082134	-26.564044	-133.279078	-0.613182	-0.651169	0.447198	0.780739	-0.585735	0.217627	0.120227	0.482590	0.867555	0	0	0
14004	0	0	0	0	0	4.471797	2.042657	8.502211	-0.005652	0.005995	0.005617	-0.761719	0.048584	-0.515137	0.408848	-0.162015	-0.199909	-0.875574	14.079614	-26.562781	-133.279037	-0.613189	-0.651177	0.447178	0.780731	-0.585759	0.217592	0.120248	0.482550	0.867575	0	0	0
14005	0	0	0	0	0	4.427909	2.076306	8.525341	0.000091	0.006917	0.007104	-0.770508	0.050781	-0.510498	0.408859	-0.162003	-0.199906	-0.875573	14.079465	-26.561460	-133.277613	-0.613179	-0.651200	0.447158	0.780741	-0.585745	0.217592	0.120224	0.482537	0.867585	0	0	0
14006	0	0	0	0	0	4.442244	2.056741	8.529931	-0.003727	0.006253	0.010800	-0.766846	0.048096	-0.519043	0.408880	-0.162002	-0.199887	-0.875567	14.076591	-26.560776	-133.274312	-0.613146	-0.651239	0.447147	0.780767	-0.585726	0.217550	0.120229	0.482507	0.867601	0	0	0
14007	0	0	0	0	0	4.441949	2.056268	8.530198	0.000471	0.004279	0.004229	-0.764160	0.051270	-0.513428	0.408871	-0.161999	-0.199892	-0.875571	14.077663	-26.560538	-133.275583	-0.613161	-0.651227	0.447143	0.780756	-0.585735	0.217566	0.120222	0.482513	0.867599	0	0	0
14008	0	0	0	0	0	4.441678	2.055912	8.530426	-0.002669	0.004943	0.007600	-0.769287	0.055420	-0.510986	0.408878	-0.161998	-0.199883	-0.875570	14.076375	-26.560136	-133.274474	-0.613151	-0.651241	0.447137	0.780764	-0.585731	0.217548	0.120226	0.482498	0.867607	0	0	0
14009	0	0	0	0	0	4.426586	2.074435	8.526483	-0.001313	0.007600	0.006953	-0.776611	0.051025	-0.512695	0.408887	-0.161986	-0.199872	-0.875570	14.075390	-26.558449	-133.273093	-0.613144	-0.651265	0.447111	0.780771	-0.585726	0.217536	0.120211	0.482472	0.867623	0	0	0
14010	0	0	0	0	0	4.436073	2.046407	8.508734	0.000471	0.004279	0.004229	-0.768799	0.051270	-0.504150	0.408881	-0.161979	-0.199880	-0.875573	14.076883	-26.557946	-133.274181	-0.613159	-0.651256	0.447103	0.780762	-0.585729	0.217559	0.120194	0.482479	0.867622	0	0	0
14011	0	0	0	0	0	4.459569	2.067499	8.522165	-0.000033	0.003264	0.006230	-0.770020	0.050781	-0.510254	0.408869	-0.161986	-0.199883	-0.875576	14.077171	-26.558675	-133.275694	-0.613172	-0.651236	0.447114	0.780749	-0.585745	0.217562	0.120211	0.482487	0.867615	0	0	0
14012	0	0	0	0	0	4.455150	2.035572	8.535648	-0.000586	0.005589	0.007430	-0.770996	0.053955	-0.506592	0.408878	-0.161978	-0.199881	-0.875574	14.077078	-26.557890	-133.274590	-0.613164	-0.651252	0.447102	0.780758	-0.585733	0.217562	0.120194	0.482480	0.867621	0	0	0
14013	0	0	0	0	0	4.445003	2.062961	8.553896	-0.001611	0.003634	0.004400	-0.768311	0.043945	-0.503662	0.408861	-0.161985	-0.199878	-0.875581	14.076926	-26.558136	-133.276686	-0.613187	-0.651229	0.447106	0.780737	-0.585763	0.217560	0.120217	0.482477	0.867620	0	0	0
14014	0	0	0	0	0	4.439870	2.053852	8.531863	-0.002164	0.005958	0.005600	-0.775635	0.049072	-0.514160	0.408861	-0.161977	-0.199870	-0.875585	14.076412	-26.556892	-133.276661	-0.613193	-0.651236	0.447086	0.780733	-0.585770	0.217554	0.120211	0.482458	0.867631	0	0	0
14015	0	0	0	0	0	4.454262	2.034447	8.536380	-0.001611	0.003634	0.004401	-0.771973	0.048584	-0.509766	0.408837	-0.161984	-0.199866	-0.875596	14.076333	-26.557145	-133.279815	-0.613228	-0.651201	0.447090	0.780701	-0.585813	0.217553	0.120241	0.482453	0.867630	0	0	0
14016	0	0	0	0	0	4.438656	2.076013	8.496774	-0.000759	0.005275	0.005754	-0.764404	0.045898	-0.508057	0.408837	-0.161977	-0.199865	-0.875597	14.076629	-26.556302	-133.279801	-0.613232	-0.651206	0.447077	0.780700	-0.585813	0.217559	0.120228	0.482447	0.867635	0	0	0
14017	0	0	0	0	0	4.457854	2.065334	8.523587	-0.000413	0.005902	0.009108	-0.771240	0.052734	-0.509521	0.408841	-0.161975	-0.199858	-0.875596	14.075755	-26.555914	-133.279033	-0.613225	-0.651216	0.447071	0.780705	-0.585810	0.217546	0.120229	0.482435	0.867641	0	0	0
14018	0	0	0	0	0	4.433755	2.043546	8.510629	-0.003568	0.006642	0.005448	-0.766602	0.055176	-0.508301	0.408840	-0.161967	-0.199843	-0.875602	14.074432	-26.554268	-133.278997	-0.613234	-0.651226	0.447045	0.780698	-0.585826	0.217529	0.120230	0.482404	0.867659	0	0	0
14019	0	0	0	0	0	4.443066	2.060523	8.555489	-0.001437	0.003947	0.006078	-0.772949	0.044189	-0.508789	0.408836	-0.161972	-0.199839	-0.875604	14.073866	-26.554549	-133.279400	-0.613237	-0.651220	0.447050	0.780693	-0.585835	0.217520	0.120244	0.482400	0.867659	0	0	0
14020	0	0	0	0	0	4.470968	2.067767	8.493137	-0.002842	0.004630	0.005925	-0.764648	0.052979	-0.507568	0.408835	-0.161972	-0.199831	-0.875607	14.072966	-26.554088	-133.279381	-0.613239	-0.651223	0.447042	0.780690	-0.585844	0.217507	0.120251	0.482386	0.867666	0	0	0
14021	0	0	0	0	0	4.399817	2.025633	8.551790	-0.004971	0.007325	0.005295	-0.762451	0.047363	-0.508789	0.408820	-0.161970	-0.199804	-0.875620	14.070426	-26.552392	-133.280741	-0.613263	-0.651218	0.447016	0.780667	-0.585888	0.217472	0.120280	0.482338	0.867688	0	0	0
14022	0	0	0	0	0	4.469394	2.134689	8.520840	-0.003866	0.002676	0.002894	-0.769287	0.051270	-0.505859	0.408803	-0.161977	-0.199798	-0.875628	14.069917	-26.552595	-133.282909	-0.613287	-0.651193	0.447019	0.780644	-0.585922	0.217464	0.120307	0.482331	0.867688	0	0	0
14023	0	0	0	0	0	4.428161	2.009428	8.525225	-0.002968	0.000978	0.005048	-0.769043	0.046143	-0.520020	0.408786	-0.161998	-0.199794	-0.875633	14.069022	-26.554375	-133.285032	-0.613302	-0.651161	0.447047	0.780625	-0.585953	0.217447	0.120356	0.482337	0.867678	0	0	0
14024	0	0	0	0	0	4.451800	2.030096	8.538700	-0.007353	0.002715	0.002911	-0.769043	0.049561	-0.514404	0.408766	-0.162012	-0.199772	-0.875645	14.066508	-26.554559	-133.287184	-0.613325	-0.651137	0.447050	0.780598	-0.586003	0.217409	0.120410	0.482309	0.867687	0	0	0
14025	0	0	0	0	0	4.436877	2.048435	8.534722	-0.006847	0.003730	0.000911	-0.767578	0.050537	-0.509277	0.408739	-0.162022	-0.199750	-0.875661	14.064362	-26.554127	-133.290340	-0.613363	-0.651105	0.447043	0.780560	-0.586065	0.217377	0.120461	0.482275	0.867698	0	0	0
14026	0	0	0	0	0	4.459762	2.091998	8.512722	-0.003520	0.003302	0.006249	-0.774658	0.053955	-0.516357	0.408737	-0.162029	-0.199741	-0.875662	14.063075	-26.554450	-133.290326	-0.613361	-0.651104	0.447048	0.780559	-0.586075	0.217357	0.120482	0.482266	0.867700	0	0	0
14027	0	0	0	0	0	4.436373	2.047358	8.535242	-0.002336	0.005645	0.003926	-0.771729	0.052246	-0.514404	0.408726	-0.162025	-0.199732	-0.875670	14.062494	-26.553453	-133.291655	-0.613382	-0.651095	0.447033	0.780541	-0.586101	0.217350	0.120491	0.482246	0.867710	0	0	0
14028	0	0	0	0	0	4.469696	2.040263	8.530798	-0.009608	0.001758	0.001404	-0.766602	0.055664	-0.514893	0.408697	-0.162047	-0.199703	-0.875686	14.059172	-26.553960	-133.294892	-0.613416	-0.651057	0.447040	0.780503	-0.586172	0.217299	0.120568	0.482211	0.867719	0	0	0
14029	0	0	0	0	0	4.440134	2.077784	8.522503	0.000645	0.004591	0.005910	-0.776123	0.056641	-0.503174	0.408702	-0.162042	-0.199708	-0.875683	14.059796	-26.553781	-133.294275	-0.613410	-0.651065	0.447038	0.780510	-0.586158	0.217309	0.120553	0.482216	0.867718	0	0	0
14030	0	0	0	0	0	4.441348	1.986449	8.531195	-0.003520	0.003302	0.006250	-0.759033	0.048828	-0.515381	0.408700	-0.162049	-0.199699	-0.875685	14.058510	-26.554104	-133.294261	-0.613408	-0.651063	0.447043	0.780508	-0.586168	0.217288	0.120574	0.482207	0.867720	0	0	0
14031	0	0	0	0	0	4.434571	2.113463	8.563282	-0.000252	0.006289	0.003757	-0.768066	0.049561	-0.518555	0.408690	-0.162039	-0.199698	-0.875692	14.059116	-26.552742	-133.295679	-0.613431	-0.651056	0.447021	0.780491	-0.586186	0.217300	0.120563	0.482195	0.867728	0	0	0
14032	0	0	0	0	0	4.435029	2.045063	8.536491	-0.002841	0.004630	0.005927	-0.766113	0.047119	-0.511963	0.408689	-0.162038	-0.199690	-0.875695	14.058216	-26.552281	-133.295658	-0.613434	-0.651059	0.447014	0.780488	-0.586195	0.217287	0.120570	0.482181	0.867735	0	0	0
14033	0	0	0	0	0	4.443824	2.084951	8.545758	-0.001610	0.003633	0.004403	-0.767822	0.050781	-0.512695	0.408681	-0.162042	-0.199688	-0.875698	14.058101	-26.552398	-133.296686	-0.613445	-0.651047	0.447016	0.780478	-0.586209	0.217285	0.120582	0.482179	0.867735	0	0	0
14034	0	0	0	0	0	4.453408	2.056909	8.527947	-0.000931	0.004961	0.004080	-0.769043	0.048828	-0.515381	0.408674	-0.162034	-0.199688	-0.875703	14.058784	-26.551496	-133.297761	-0.613462	-0.651041	0.447002	0.780466	-0.586221	0.217298	0.120572	0.482174	0.867739	0	0	0
14035	0	0	0	0	0	4.419482	2.062827	8.532982	-0.007904	0.005040	0.004113	-0.776855	0.059570	-0.512207	0.408659	-0.162044	-0.199656	-0.875715	14.055029	-26.550821	-133.298912	-0.613478	-0.651032	0.446991	0.780445	-0.586270	0.217242	0.120626	0.482125	0.867758	0	0	0
14036	0	0	0	0	0	4.466794	2.059709	8.497290	0.001325	0.005918	0.005589	-0.765869	0.051758	-0.518311	0.408661	-0.162029	-0.199664	-0.875715	14.056520	-26.549598	-133.298901	-0.613485	-0.651039	0.446972	0.780445	-0.586261	0.217267	0.120593	0.482127	0.867762	0	0	0
14037	0	0	0	0	0	4.452468	2.055314	8.528823	-0.005084	0.003596	0.011452	-0.769287	0.050049	-0.506592	0.408686	-0.162046	-0.199641	-0.875705	14.052370	-26.550758	-133.294911	-0.613433	-0.651075	0.446990	0.780480	-0.586238	0.217202	0.120628	0.482106	0.867769	0	0	0
14038	0	0	0	0	0	4.413746	2.052415	8.511577	-0.003059	0.007657	0.003452	-0.772949	0.052979	-0.514404	0.408677	-0.162030	-0.199628	-0.875716	14.051822	-26.548271	-133.295958	-0.613458	-0.651078	0.446952	0.780461	-0.586264	0.217198	0.120618	0.482071	0.867790	0	0	0
14039	0	0	0	0	0	4.451652	2.054061	8.529550	-0.005648	0.005997	0.005622	-0.765625	0.051514	-0.511230	0.408666	-0.162035	-0.199601	-0.875726	14.048860	-26.547351	-133.296779	-0.613473	-0.651075	0.446937	0.780444	-0.586302	0.217155	0.120656	0.482028	0.867808	0	0	0
14040	0	0	0	0	0	4.447067	2.022051	8.543074	0.000300	0.003964	0.002557	-0.766602	0.049561	-0.505371	0.408652	-0.162028	-0.199611	-0.875732	14.050742	-26.546792	-133.298956	-0.613500	-0.651055	0.446929	0.780425	-0.586318	0.217185	0.120643	0.482037	0.867805	0	0	0
14041	0	0	0	0	0	4.446253	2.044710	8.507716	-0.001437	0.003946	0.006082	-0.769775	0.055420	-0.517578	0.408646	-0.162033	-0.199606	-0.875735	14.050215	-26.547059	-133.299691	-0.613507	-0.651045	0.446933	0.780417	-0.586331	0.217176	0.120659	0.482033	0.867805	0	0	0
14042	0	0	0	0	0	4.436745	2.049162	8.561496	-0.001437	0.003946	0.006082	-0.767090	0.044678	-0.513672	0.408646	-0.162033	-0.199606	-0.875735	14.050123	-26.547000	-133.299681	-0.613508	-0.651046	0.446932	0.780416	-0.586332	0.217175	0.120660	0.482031	0.867806	0	0	0
14043	0	0	0	0	0	4.454972	2.084305	8.517117	-0.001058	0.001309	0.003202	-0.775635	0.046143	-0.512451	0.408632	-0.162044	-0.199612	-0.875738	14.050799	-26.548250	-133.301669	-0.613523	-0.651017	0.446951	0.780401	-0.586350	0.217183	0.120680	0.482048	0.867794	0	0	0
14044	0	0	0	0	0	4.454686	2.084068	8.517324	-0.001827	0.006660	0.001928	-0.763672	0.054443	-0.511475	0.408616	-0.162028	-0.199607	-0.875749	14.051449	-26.546105	-133.303818	-0.613559	-0.651006	0.446918	0.780375	-0.586380	0.217197	0.120667	0.482026	0.867808	0	0	0
14045	0	0	0	0	0	4.431288	2.039490	8.539766	-0.005224	0.000022	0.003540	-0.774170	0.048584	-0.515381	0.408593	-0.162056	-0.199597	-0.875757	14.049734	-26.548183	-133.306594	-0.613580	-0.650965	0.446950	0.780348	-0.586426	0.217167	0.120735	0.482026	0.867798	0	0	0
14046	0	0	0	0	0	4.449672	2.074470	8.495352	-0.000713	0.001934	0.006558	-0.763428	0.049805	-0.506836	0.408593	-0.162063	-0.199603	-0.875754	14.050065	-26.549309	-133.306601	-0.613574	-0.650958	0.446968	0.780351	-0.586421	0.217170	0.120743	0.482042	0.867789	0	0	0
14047	0	0	0	0	0	4.425490	2.097698	8.544934	-0.009306	0.005726	0.003961	-0.774658	0.047119	-0.507080	0.408573	-0.162075	-0.199562	-0.875771	14.045512	-26.548279	-133.308443	-0.613600	-0.650945	0.446952	0.780320	-0.586487	0.217103	0.120810	0.481980	0.867814	0	0	0
14048	0	0	0	0	0	4.463565	2.099095	8.562889	-0.005096	0.003674	0.004421	-0.770752	0.046875	-0.514404	0.408562	-0.162082	-0.199547	-0.875778	14.043804	-26.548141	-133.309508	-0.613613	-0.650934	0.446950	0.780305	-0.586516	0.217077	0.120840	0.481958	0.867821	0	0	0
14049	0	0	0	0	0	4.440408	2.008968	8.522773	-0.008237	0.004339	0.007792	-0.773682	0.050049	-0.515381	0.408550	-0.162103	-0.199510	-0.875788	14.038931	-26.548458	-133.310179	-0.613619	-0.650925	0.446955	0.780289	-0.586565	0.217003	0.120916	0.481911	0.867837	0	0	0
14050	0	0	0	0	0	4.449227	2.048218	8.532220	-0.009985	0.004399	0.004284	-0.770996	0.048828	-0.505371	0.408536	-0.162116	-0.199472	-0.875801	14.034410	-26.547899	-133.311216	-0.613634	-0.650917	0.446946	0.780267	-0.586619	0.216935	0.120980	0.481856	0.867859	0	0	0
14051	0	0	0	0	0	4.415412	2.053521	8.537333	-0.014324	0.002800	0.002944	-0.769287	0.057129	-0.513184	0.408499	-0.162151	-0.199416	-0.875825	14.027469	-26.548398	-133.314724	-0.613671	-0.650877	0.446954	0.780218	-0.586724	0.216829	0.121109	0.481783	0.867881	0	0	0
14052	0	0	0	0	0	4.467783	2.058335	8.524032	-0.008916	0.003010	0.008116	-0.767334	0.054199	-0.508545	0.408501	-0.162172	-0.199382	-0.875828	14.022592	-26.549143	-133.313595	-0.613654	-0.650884	0.446965	0.780221	-0.586747	0.216754	0.121174	0.481744	0.867894	0	0	0
14053	0	0	0	0	0	4.453600	2.053429	8.555584	-0.007685	0.002014	0.006591	-0.761230	0.050537	-0.508545	0.408498	-0.162197	-0.199355	-0.875830	14.018410	-26.550534	-133.313199	-0.613642	-0.650881	0.446987	0.780220	-0.586773	0.216688	0.121242	0.481717	0.867899	0	0	0
14054	0	0	0	0	0	4.454059	1.984422	8.528847	-0.010028	0.007739	0.003489	-0.773193	0.051270	-0.512451	0.408484	-0.162195	-0.199311	-0.875847	14.013853	-26.548007	-133.314212	-0.613667	-0.650884	0.446948	0.780194	-0.586832	0.216624	0.121286	0.481640	0.867936	0	0	0
14055	0	0	0	0	0	4.448669	2.019949	8.569592	-0.005602	0.002657	0.006423	-0.760010	0.052979	-0.508057	0.408477	-0.162214	-0.199291	-0.875852	14.010929	-26.549013	-133.314582	-0.613666	-0.650875	0.446963	0.780186	-0.586859	0.216577	0.121340	0.481621	0.867939	0	0	0
14056	0	0	0	0	0	4.433883	2.038394	8.565549	-0.003864	0.002677	0.002898	-0.762451	0.051514	-0.509766	0.408460	-0.162222	-0.199285	-0.875860	14.010419	-26.549219	-133.316748	-0.613690	-0.650850	0.446966	0.780164	-0.586892	0.216569	0.121367	0.481613	0.867939	0	0	0
14057	0	0	0	0	0	4.447872	2.041836	8.534456	-0.002289	0.002304	0.004729	-0.772705	0.044189	-0.510254	0.408454	-0.162232	-0.199283	-0.875861	14.009864	-26.550147	-133.317423	-0.613692	-0.650838	0.446981	0.780158	-0.586904	0.216559	0.121390	0.481616	0.867934	0	0	0
14058	0	0	0	0	0	4.447188	2.064401	8.499105	-0.001609	0.003632	0.004407	-0.770508	0.053955	-0.519287	0.408446	-0.162232	-0.199283	-0.875865	14.010161	-26.550032	-133.318502	-0.613705	-0.650827	0.446979	0.780147	-0.586916	0.216564	0.121394	0.481616	0.867934	0	0	0
14059	0	0	0	0	0	4.418164	2.079348	8.526299	0.000474	0.004275	0.004238	-0.759033	0.050781	-0.516113	0.408435	-0.162229	-0.199288	-0.875869	14.011240	-26.549818	-133.320137	-0.613725	-0.650811	0.446976	0.780132	-0.586930	0.216581	0.121391	0.481621	0.867932	0	0	0
14060	0	0	0	0	0	4.442504	2.032152	8.512682	-0.004199	0.001973	0.006576	-0.767822	0.056396	-0.503906	0.408433	-0.162244	-0.199279	-0.875869	14.009565	-26.550925	-133.320126	-0.613719	-0.650804	0.446993	0.780132	-0.586941	0.216553	0.121425	0.481616	0.867930	0	0	0
14061	0	0	0	0	0	4.447052	2.040467	8.535211	-0.000593	0.005664	0.000408	-0.768799	0.052734	-0.506836	0.408414	-0.162232	-0.199281	-0.875880	14.010932	-26.549393	-133.322830	-0.613758	-0.650784	0.446969	0.780103	-0.586970	0.216577	0.121413	0.481607	0.867936	0	0	0
14062	0	0	0	0	0	4.427231	2.050718	8.508869	0.000647	0.004586	0.005917	-0.769775	0.051270	-0.512451	0.408416	-0.162224	-0.199288	-0.875879	14.012036	-26.548956	-133.322823	-0.613760	-0.650787	0.446962	0.780104	-0.586962	0.216594	0.121393	0.481614	0.867935	0	0	0
14063	0	0	0	0	0	4.461261	2.021035	8.539785	-0.000163	-0.000393	0.005357	-0.767334	0.049805	-0.514893	0.408403	-0.162245	-0.199299	-0.875879	14.012724	-26.551544	-133.324609	-0.613766	-0.650753	0.447003	0.780094	-0.586974	0.216600	0.121426	0.481646	0.867913	0	0	0
14064	0	0	0	0	0	4.460685	2.043740	8.504352	0.000647	0.004586	0.005917	-0.765137	0.046631	-0.513428	0.408405	-0.162238	-0.199306	-0.875878	14.013827	-26.551108	-133.324602	-0.613769	-0.650755	0.446996	0.780095	-0.586965	0.216617	0.121406	0.481652	0.867912	0	0	0
14065	0	0	0	0	0	4.426773	2.050119	8.509251	0.001155	0.005602	0.003918	-0.767822	0.046875	-0.514893	0.408398	-0.162226	-0.199312	-0.875881	14.015298	-26.550064	-133.325700	-0.613787	-0.650750	0.446980	0.780084	-0.586971	0.216642	0.121385	0.481654	0.867915	0	0	0
14066	0	0	0	0	0	4.450235	2.071337	8.522755	0.003281	0.002905	0.004545	-0.770752	0.049805	-0.506592	0.408394	-0.162220	-0.199335	-0.875879	14.018408	-26.550372	-133.326806	-0.613798	-0.650736	0.446984	0.780080	-0.586959	0.216688	0.121355	0.481686	0.867900	0	0	0
14067	0	0	0	0	0	4.431173	2.058780	8.531773	0.001198	0.002262	0.004714	-0.769287	0.052002	-0.514893	0.408380	-0.162226	-0.199347	-0.875882	14.019917	-26.551381	-133.329014	-0.613817	-0.650707	0.447000	0.780064	-0.586974	0.216709	0.121363	0.481708	0.867887	0	0	0
14068	0	0	0	0	0	4.464389	2.052205	8.527288	0.002688	0.008569	0.004953	-0.769043	0.052246	-0.507568	0.408383	-0.162196	-0.199356	-0.875884	14.022182	-26.548596	-133.328988	-0.613832	-0.650723	0.446957	0.780061	-0.586962	0.216749	0.121303	0.481701	0.867900	0	0	0
14069	0	0	0	0	0	4.450248	2.003128	8.496035	-0.000163	-0.000393	0.005357	-0.764160	0.048340	-0.510498	0.408373	-0.162216	-0.199367	-0.875882	14.022863	-26.551160	-133.330388	-0.613834	-0.650693	0.446997	0.780055	-0.586968	0.216754	0.121332	0.481733	0.867878	0	0	0
14070	0	0	0	0	0	4.445023	2.039385	8.536526	0.002008	0.007241	0.005275	-0.770752	0.050781	-0.512207	0.408376	-0.162194	-0.199375	-0.875884	14.024741	-26.549158	-133.330368	-0.613845	-0.650705	0.446965	0.780054	-0.586958	0.216786	0.121286	0.481730	0.867886	0	0	0
14071	0	0	0	0	0	4.430015	2.058465	8.532451	0.001533	0.002966	0.001036	-0.769287	0.044922	-0.511475	0.408351	-0.162191	-0.199390	-0.875892	14.027393	-26.549235	-133.334114	-0.613887	-0.650664	0.446967	0.780022	-0.586986	0.216826	0.121282	0.481750	0.867875	0	0	0
14072	0	0	0	0	0	4.410387	2.068793	8.505990	-0.000205	0.002947	0.004561	-0.770996	0.050537	-0.510742	0.408344	-0.162192	-0.199398	-0.875893	14.028498	-26.549521	-133.335204	-0.613898	-0.650651	0.446971	0.780014	-0.586991	0.216843	0.121279	0.481763	0.867869	0	0	0
14073	0	0	0	0	0	4.448546	2.070751	8.523779	0.000475	0.004275	0.004240	-0.764160	0.050781	-0.510010	0.408328	-0.162190	-0.199402	-0.875900	14.029592	-26.549349	-133.337526	-0.613925	-0.650627	0.446968	0.779992	-0.587014	0.216859	0.121282	0.481767	0.867866	0	0	0
14074	0	0	0	0	0	4.429263	2.057954	8.532964	-0.002330	0.005645	0.003933	-0.769775	0.052734	-0.510254	0.408320	-0.162183	-0.199396	-0.875907	14.029467	-26.548048	-133.338588	-0.613944	-0.650623	0.446948	0.779977	-0.587033	0.216860	0.121279	0.481749	0.867876	0	0	0
14075	0	0	0	0	0	4.438768	2.029741	8.515206	-0.002666	0.004941	0.007612	-0.774414	0.053711	-0.513672	0.408324	-0.162186	-0.199384	-0.875907	14.027718	-26.547953	-133.337666	-0.613934	-0.650633	0.446947	0.779983	-0.587035	0.216834	0.121294	0.481732	0.867884	0	0	0
14076	0	0	0	0	0	4.452465	2.078269	8.546829	-0.000033	0.003259	0.006240	-0.770752	0.054199	-0.516357	0.408325	-0.162187	-0.199390	-0.875905	14.028434	-26.548299	-133.337664	-0.613932	-0.650631	0.446952	0.779985	-0.587028	0.216844	0.121288	0.481743	0.867878	0	0	0
14077	0	0	0	0	0	4.466762	2.058725	8.551385	-0.004963	0.007327	0.005306	-0.769043	0.050781	-0.510010	0.408324	-0.162181	-0.199365	-0.875912	14.025817	-26.546542	-133.337290	-0.613937	-0.650645	0.446925	0.779979	-0.587050	0.216808	0.121302	0.481698	0.867901	0	0	0
14078	0	0	0	0	0	4.461608	2.049497	8.529394	-0.001263	0.004255	0.007766	-0.768799	0.049805	-0.506836	0.408332	-0.162181	-0.199363	-0.875909	14.025335	-26.546546	-133.336186	-0.613925	-0.650657	0.446925	0.779989	-0.587039	0.216800	0.121300	0.481695	0.867903	0	0	0
14079	0	0	0	0	0	4.427784	2.055621	8.534294	-0.003183	0.004006	0.002576	-0.765625	0.055420	-0.507813	0.408306	-0.162187	-0.199353	-0.875922	14.024779	-26.546321	-133.339480	-0.613963	-0.650623	0.446921	0.779954	-0.587089	0.216792	0.121332	0.481680	0.867907	0	0	0
14080	0	0	0	0	0	4.451247	2.076374	8.547924	-0.002838	0.004629	0.005934	-0.765625	0.050049	-0.504639	0.408305	-0.162187	-0.199345	-0.875925	14.023877	-26.545863	-133.339456	-0.613965	-0.650626	0.446914	0.779951	-0.587098	0.216779	0.121340	0.481666	0.867914	0	0	0
14081	0	0	0	0	0	4.441797	2.035451	8.539144	-0.005471	0.006311	0.007306	-0.770996	0.043945	-0.512939	0.408304	-0.162191	-0.199317	-0.875931	14.020499	-26.545010	-133.338923	-0.613964	-0.650637	0.446901	0.779947	-0.587121	0.216730	0.121372	0.481623	0.867933	0	0	0
14082	0	0	0	0	0	4.455593	2.038638	8.508245	-0.004413	0.005003	0.004102	-0.765137	0.056152	-0.515381	0.408294	-0.162191	-0.199303	-0.875939	14.019178	-26.544090	-133.339979	-0.613981	-0.650631	0.446886	0.779931	-0.587149	0.216712	0.121390	0.481597	0.867945	0	0	0
14083	0	0	0	0	0	4.421677	2.044601	8.513228	-0.004241	0.005314	0.005781	-0.771729	0.059082	-0.510254	0.408292	-0.162193	-0.199285	-0.875943	14.017034	-26.543482	-133.339831	-0.613982	-0.650636	0.446877	0.779926	-0.587167	0.216680	0.121411	0.481569	0.867958	0	0	0
14084	0	0	0	0	0	4.459799	2.045966	8.531188	-0.007005	0.003345	0.006270	-0.766357	0.053711	-0.513184	0.408287	-0.162207	-0.199261	-0.875948	14.013740	-26.543784	-133.339798	-0.613980	-0.650634	0.446882	0.779920	-0.587193	0.216630	0.121459	0.481538	0.867968	0	0	0
14085	0	0	0	0	0	4.426067	2.051792	8.536106	-0.003519	0.003302	0.006256	-0.775635	0.051758	-0.511230	0.408290	-0.162217	-0.199250	-0.875948	14.011929	-26.544409	-133.339131	-0.613970	-0.650638	0.446891	0.779925	-0.587198	0.216601	0.121485	0.481528	0.867970	0	0	0
14086	0	0	0	0	0	4.454606	2.036008	8.509392	-0.004412	0.005003	0.004103	-0.765381	0.044922	-0.509277	0.408280	-0.162217	-0.199235	-0.875956	14.010608	-26.543489	-133.340187	-0.613986	-0.650632	0.446877	0.779909	-0.587226	0.216583	0.121502	0.481502	0.867982	0	0	0
14087	0	0	0	0	0	4.449140	2.071771	8.550137	-0.004789	0.007638	0.006987	-0.765869	0.054688	-0.514160	0.408273	-0.162215	-0.199207	-0.875966	14.007687	-26.541847	-133.340472	-0.613998	-0.650638	0.446851	0.779896	-0.587259	0.216542	0.121527	0.481454	0.868005	0	0	0
14088	0	0	0	0	0	4.434830	2.022232	8.519043	-0.002838	0.004629	0.005936	-0.767578	0.046387	-0.513916	0.408272	-0.162214	-0.199199	-0.875968	14.006785	-26.541390	-133.340447	-0.614001	-0.650641	0.446844	0.779893	-0.587267	0.216529	0.121534	0.481439	0.868012	0	0	0
14089	0	0	0	0	0	4.439350	2.030325	8.541636	-0.002494	0.005251	0.009294	-0.768311	0.045410	-0.509521	0.408289	-0.162217	-0.199186	-0.875963	14.004663	-26.541291	-133.337873	-0.613972	-0.650669	0.446843	0.779914	-0.587250	0.216497	0.121541	0.481422	0.868021	0	0	0
14090	0	0	0	0	0	4.409918	2.067897	8.533351	-0.003519	0.003302	0.006257	-0.764160	0.046875	-0.510986	0.408287	-0.162224	-0.199177	-0.875964	14.003374	-26.541616	-133.337854	-0.613970	-0.650667	0.446848	0.779913	-0.587260	0.216477	0.121561	0.481412	0.868024	0	0	0
14091	0	0	0	0	0	4.457834	2.041559	8.533270	-0.005470	0.006311	0.007309	-0.770752	0.052246	-0.506592	0.408282	-0.162229	-0.199149	-0.875972	14.000091	-26.540711	-133.337929	-0.613976	-0.650672	0.446834	0.779903	-0.587291	0.216429	0.121597	0.481369	0.868043	0	0	0
14092	0	0	0	0	0	4.438108	2.051345	8.507009	-0.002837	0.004629	0.005937	-0.759766	0.049805	-0.507080	0.408281	-0.162228	-0.199141	-0.875975	13.999190	-26.540253	-133.337904	-0.613978	-0.650675	0.446826	0.779900	-0.587299	0.216416	0.121604	0.481354	0.868050	0	0	0
14093	0	0	0	0	0	4.418809	2.038357	8.516214	-0.002156	0.005956	0.005616	-0.765625	0.055176	-0.517822	0.408273	-0.162226	-0.199130	-0.875981	13.998230	-26.539354	-133.338696	-0.613992	-0.650671	0.446812	0.779887	-0.587321	0.216403	0.121615	0.481333	0.868060	0	0	0
14094	0	0	0	0	0	4.456928	2.039810	8.534162	-0.005430	0.002971	0.008104	-0.775635	0.054199	-0.508301	0.408278	-0.162240	-0.199112	-0.875981	13.995356	-26.540119	-133.337581	-0.613975	-0.650679	0.446824	0.779895	-0.587328	0.216358	0.121653	0.481314	0.868065	0	0	0
14095	0	0	0	0	0	4.437355	2.049765	8.507782	0.000477	0.004273	0.004244	-0.777832	0.052002	-0.521484	0.408273	-0.162236	-0.199118	-0.875982	13.996351	-26.539923	-133.338333	-0.613984	-0.650672	0.446821	0.779888	-0.587330	0.216374	0.121643	0.481321	0.868063	0	0	0
14096	0	0	0	0	0	4.456469	2.038996	8.534596	-0.002837	0.004629	0.005937	-0.763916	0.052490	-0.512207	0.408272	-0.162236	-0.199110	-0.875984	13.995449	-26.539466	-133.338308	-0.613987	-0.650675	0.446814	0.779886	-0.587338	0.216361	0.121651	0.481307	0.868070	0	0	0
14097	0	0	0	0	0	4.451475	2.029774	8.512519	-0.003347	0.003612	0.007937	-0.765869	0.051270	-0.511475	0.408282	-0.162246	-0.199098	-0.875981	13.993307	-26.540090	-133.336590	-0.613964	-0.650690	0.446824	0.779900	-0.587331	0.216327	0.121672	0.481295	0.868073	0	0	0
14098	0	0	0	0	0	4.437110	2.025361	8.543978	-0.001263	0.004253	0.007771	-0.772461	0.045166	-0.512207	0.408290	-0.162245	-0.199095	-0.875978	13.992824	-26.540096	-133.335483	-0.613951	-0.650701	0.446824	0.779911	-0.587320	0.216320	0.121669	0.481293	0.868075	0	0	0
14099	0	0	0	0	0	4.441304	2.056456	8.531013	-0.003518	0.003302	0.006258	-0.777100	0.044434	-0.507080	0.408280	-0.162258	-0.199083	-0.875983	13.991134	-26.540727	-133.336459	-0.613959	-0.650687	0.446834	0.779899	-0.587346	0.216293	0.121707	0.481280	0.868077	0	0	0
14100	0	0	0	0	0	4.450881	2.028232	8.513197	-0.000581	0.005580	0.007451	-0.761963	0.050781	-0.508057	0.408289	-0.162250	-0.199082	-0.875980	13.991039	-26.539950	-133.335345	-0.613950	-0.650704	0.446822	0.779908	-0.587334	0.216293	0.121691	0.481273	0.868083	0	0	0
14101	0	0	0	0	0	4.407197	2.062270	8.536117	0.000649	0.004583	0.005925	-0.756592	0.056885	-0.512207	0.408274	-0.162251	-0.199084	-0.875987	13.991754	-26.539898	-133.337418	-0.613974	-0.650682	0.446821	0.779888	-0.587356	0.216304	0.121698	0.481275	0.868080	0	0	0
14102	0	0	0	0	0	4.474099	2.048823	8.527031	-0.001606	0.003632	0.004412	-0.767578	0.054932	-0.518311	0.408266	-0.162251	-0.199084	-0.875990	13.992050	-26.539784	-133.338495	-0.613987	-0.650671	0.446819	0.779877	-0.587369	0.216309	0.121702	0.481275	0.868080	0	0	0
14103	0	0	0	0	0	4.454878	2.035863	8.536175	-0.002664	0.004940	0.007618	-0.771484	0.052490	-0.502686	0.408291	-0.162249	-0.199075	-0.875981	13.990227	-26.539548	-133.334909	-0.613948	-0.650711	0.446815	0.779910	-0.587336	0.216282	0.121694	0.481261	0.868089	0	0	0
14104	0	0	0	0	0	4.440046	2.054484	8.532143	-0.001434	0.003942	0.006092	-0.765381	0.055664	-0.507813	0.408291	-0.162249	-0.199074	-0.875981	13.990133	-26.539494	-133.334893	-0.613948	-0.650711	0.446815	0.779909	-0.587337	0.216280	0.121695	0.481260	0.868090	0	0	0
14105	0	0	0	0	0	4.439893	2.053906	8.532362	-0.005602	0.002662	0.006425	-0.770020	0.054932	-0.510010	0.408278	-0.162270	-0.199053	-0.875988	13.987164	-26.540605	-133.336007	-0.613954	-0.650693	0.446832	0.779895	-0.587374	0.216233	0.121756	0.481239	0.868092	0	0	0
14106	0	0	0	0	0	4.439682	2.053185	8.532645	-0.004066	0.005626	0.007465	-0.773926	0.054443	-0.512939	0.408284	-0.162270	-0.199036	-0.875989	13.985064	-26.539805	-133.334878	-0.613946	-0.650709	0.446819	0.779900	-0.587378	0.216203	0.121767	0.481211	0.868106	0	0	0
14107	0	0	0	0	0	4.439392	2.052354	8.532996	-0.005806	0.005607	0.010992	-0.771729	0.042236	-0.510498	0.408301	-0.162281	-0.199006	-0.875986	13.980498	-26.539845	-133.331815	-0.613911	-0.650742	0.446820	0.779921	-0.587375	0.216134	0.121804	0.481171	0.868123	0	0	0
14108	0	0	0	0	0	4.458519	2.041079	8.559913	-0.005091	0.003678	0.004426	-0.765625	0.052979	-0.509521	0.408290	-0.162288	-0.198991	-0.875993	13.978790	-26.539707	-133.332876	-0.613924	-0.650731	0.446818	0.779906	-0.587404	0.216108	0.121834	0.481150	0.868131	0	0	0
14109	0	0	0	0	0	4.439126	2.050688	8.533535	-0.006451	0.000939	0.012106	-0.765869	0.047607	-0.511475	0.408298	-0.162324	-0.198965	-0.875989	13.973973	-26.542484	-133.331053	-0.613888	-0.650735	0.446861	0.779922	-0.587412	0.216030	0.121913	0.481135	0.868128	0	0	0
14110	0	0	0	0	0	4.434292	2.041107	8.511460	-0.006321	0.004676	0.005953	-0.771973	0.053467	-0.510986	0.408294	-0.162330	-0.198941	-0.875995	13.971068	-26.542004	-133.331011	-0.613890	-0.650738	0.446854	0.779915	-0.587437	0.215987	0.121948	0.481100	0.868143	0	0	0
14111	0	0	0	0	0	4.453293	2.029747	8.538458	-0.006696	0.007310	0.008840	-0.772217	0.047852	-0.516602	0.408299	-0.162334	-0.198905	-0.876000	13.966532	-26.540767	-133.329412	-0.613879	-0.650763	0.446834	0.779919	-0.587457	0.215920	0.121983	0.481043	0.868169	0	0	0
14112	0	0	0	0	0	4.443840	1.988727	8.529611	-0.001772	0.003235	0.009774	-0.770020	0.051025	-0.516357	0.408315	-0.162341	-0.198901	-0.875993	13.965271	-26.541615	-133.327218	-0.613849	-0.650781	0.446848	0.779941	-0.587435	0.215900	0.121991	0.481044	0.868167	0	0	0
14113	0	0	0	0	0	4.410431	1.971849	8.569956	-0.000407	0.005889	0.009135	-0.771973	0.052734	-0.504150	0.408329	-0.162337	-0.198896	-0.875988	13.964370	-26.541147	-133.325125	-0.613828	-0.650806	0.446840	0.779959	-0.587415	0.215887	0.121980	0.481035	0.868174	0	0	0
14114	0	0	0	0	0	4.438026	2.047360	8.534906	0.003454	0.003207	0.006235	-0.769287	0.051025	-0.511475	0.408333	-0.162330	-0.198918	-0.875982	13.967088	-26.541522	-133.325135	-0.613826	-0.650804	0.446846	0.779966	-0.587392	0.215927	0.121947	0.481067	0.868161	0	0	0
14115	0	0	0	0	0	4.409603	1.994710	8.534730	0.006564	0.005794	0.009110	-0.765869	0.051025	-0.509766	0.408343	-0.162316	-0.198942	-0.875975	13.970164	-26.541243	-133.324380	-0.613819	-0.650814	0.446842	0.779979	-0.587356	0.215974	0.121896	0.481097	0.868152	0	0	0
14116	0	0	0	0	0	4.456919	2.036900	8.561741	-0.000032	0.003255	0.006248	-0.769287	0.049316	-0.513672	0.408344	-0.162316	-0.198948	-0.875973	13.970878	-26.541594	-133.324374	-0.613817	-0.650812	0.446847	0.779982	-0.587349	0.215985	0.121890	0.481108	0.868146	0	0	0
14117	0	0	0	0	0	4.452072	2.028247	8.539451	0.003657	0.000263	0.001668	-0.767334	0.047363	-0.510010	0.408322	-0.162322	-0.198978	-0.875975	13.974754	-26.543258	-133.328069	-0.613850	-0.650763	0.446873	0.779956	-0.587363	0.216040	0.121886	0.481158	0.868119	0	0	0
14118	0	0	0	0	0	4.422951	2.066660	8.530851	0.004001	0.000883	0.005029	-0.769287	0.045410	-0.512207	0.408318	-0.162323	-0.199008	-0.875970	13.978281	-26.544758	-133.329188	-0.613855	-0.650742	0.446897	0.779956	-0.587344	0.216091	0.121863	0.481208	0.868094	0	0	0
14119	0	0	0	0	0	4.442084	2.056290	8.557540	0.003247	0.006237	0.003762	-0.768799	0.052734	-0.511963	0.408303	-0.162307	-0.199021	-0.875977	13.980985	-26.543410	-133.331635	-0.613890	-0.650724	0.446876	0.779933	-0.587358	0.216134	0.121832	0.481216	0.868094	0	0	0
14120	0	0	0	0	0	4.451540	2.028575	8.539650	0.001881	0.003584	0.004402	-0.768066	0.058594	-0.512939	0.408298	-0.162300	-0.199036	-0.875977	13.983285	-26.543321	-133.332726	-0.613903	-0.650713	0.446874	0.779927	-0.587354	0.216169	0.121809	0.481236	0.868086	0	0	0
14121	0	0	0	0	0	4.431858	2.038949	8.513245	-0.000238	0.006285	0.003775	-0.768799	0.053223	-0.510742	0.408297	-0.162287	-0.199036	-0.875980	13.983839	-26.541923	-133.333005	-0.613913	-0.650718	0.446853	0.779922	-0.587357	0.216180	0.121790	0.481226	0.868095	0	0	0
14122	0	0	0	0	0	4.450866	2.028322	8.540062	0.002053	0.003895	0.006082	-0.768311	0.055908	-0.509277	0.408299	-0.162280	-0.199050	-0.875977	13.985749	-26.541895	-133.333003	-0.613913	-0.650718	0.446852	0.779926	-0.587341	0.216209	0.121763	0.481245	0.868088	0	0	0
14123	0	0	0	0	0	4.436000	2.047506	8.535924	0.004649	0.005550	0.003917	-0.768311	0.050537	-0.510742	0.408296	-0.162263	-0.199072	-0.875977	13.989134	-26.540970	-133.334091	-0.613931	-0.650711	0.446838	0.779919	-0.587330	0.216262	0.121717	0.481267	0.868082	0	0	0
14124	0	0	0	0	0	4.430856	2.039210	8.513704	0.005707	0.004242	0.000710	-0.764893	0.052734	-0.514404	0.408278	-0.162242	-0.199106	-0.875981	13.994605	-26.540004	-133.337374	-0.613973	-0.650682	0.446823	0.779895	-0.587331	0.216347	0.121660	0.481306	0.868069	0	0	0
14125	0	0	0	0	0	4.435415	2.047960	8.536119	0.001541	0.002879	0.008083	-0.771240	0.052490	-0.518555	0.408290	-0.162245	-0.199117	-0.875973	13.995277	-26.541074	-133.335981	-0.613952	-0.650690	0.446839	0.779913	-0.587304	0.216355	0.121650	0.481327	0.868058	0	0	0
14126	0	0	0	0	0	4.444602	2.043318	8.482674	0.006390	0.005568	0.000391	-0.774902	0.046875	-0.510010	0.408273	-0.162216	-0.199151	-0.875978	14.001137	-26.539327	-133.339257	-0.613998	-0.650665	0.446812	0.779888	-0.587304	0.216447	0.121580	0.481361	0.868049	0	0	0
14127	0	0	0	0	0	4.449358	2.029265	8.540624	0.001710	0.003274	0.002722	-0.757813	0.050537	-0.509521	0.408253	-0.162215	-0.199165	-0.875985	14.003404	-26.539484	-133.342234	-0.614031	-0.650632	0.446814	0.779862	-0.587325	0.216481	0.121575	0.481380	0.868040	0	0	0
14128	0	0	0	0	0	4.415275	2.058922	8.509807	0.003282	0.002897	0.004557	-0.769287	0.060547	-0.515869	0.408249	-0.162208	-0.199188	-0.875982	14.006511	-26.539799	-133.343334	-0.614042	-0.650619	0.446819	0.779858	-0.587313	0.216528	0.121546	0.481413	0.868025	0	0	0
14129	0	0	0	0	0	4.434362	2.048497	8.536537	0.002565	0.004911	0.004083	-0.770508	0.050049	-0.515869	0.408257	-0.162194	-0.199203	-0.875978	14.008671	-26.539145	-133.342744	-0.614039	-0.650629	0.446809	0.779867	-0.587289	0.216562	0.121505	0.481429	0.868022	0	0	0
14130	0	0	0	0	0	4.448642	2.029405	8.540963	0.001710	0.003274	0.002722	-0.760498	0.043457	-0.518555	0.408244	-0.162187	-0.199220	-0.875981	14.011360	-26.538996	-133.344926	-0.614064	-0.650606	0.446807	0.779850	-0.587296	0.216603	0.121485	0.481450	0.868013	0	0	0
14131	0	0	0	0	0	4.424016	2.076143	8.554897	-0.000750	0.005270	0.005775	-0.763184	0.050537	-0.509277	0.408248	-0.162181	-0.199218	-0.875981	14.011261	-26.538327	-133.344390	-0.614062	-0.650616	0.446796	0.779854	-0.587292	0.216603	0.121475	0.481443	0.868019	0	0	0
14132	0	0	0	0	0	4.438118	2.056802	8.559475	0.000446	0.007612	0.003455	-0.759277	0.052002	-0.511230	0.408241	-0.162159	-0.199220	-0.875988	14.012722	-26.535868	-133.345443	-0.614087	-0.650619	0.446758	0.779840	-0.587300	0.216629	0.121438	0.481429	0.868032	0	0	0
14133	0	0	0	0	0	4.456762	2.068931	8.550864	-0.003518	0.003305	0.006260	-0.767090	0.048828	-0.518066	0.408244	-0.162168	-0.199210	-0.875987	14.010967	-26.536429	-133.344818	-0.614077	-0.650622	0.446767	0.779844	-0.587305	0.216602	0.121462	0.481418	0.868034	0	0	0
14134	0	0	0	0	0	4.423143	2.030159	8.493004	-0.000237	0.006286	0.003775	-0.771240	0.049316	-0.522949	0.408237	-0.162153	-0.199211	-0.875993	14.012039	-26.534751	-133.345878	-0.614098	-0.650620	0.446741	0.779831	-0.587315	0.216621	0.121439	0.481409	0.868043	0	0	0
14135	0	0	0	0	0	4.413110	2.057505	8.511273	-0.004201	0.001979	0.006579	-0.760254	0.052734	-0.508545	0.408242	-0.162169	-0.199200	-0.875990	14.009933	-26.536013	-133.344800	-0.614079	-0.650625	0.446760	0.779841	-0.587315	0.216587	0.121472	0.481403	0.868041	0	0	0
14136	0	0	0	0	0	4.451262	2.059004	8.529226	-0.000749	0.005270	0.005776	-0.769775	0.050049	-0.511963	0.408243	-0.162161	-0.199200	-0.875991	14.010227	-26.535178	-133.344775	-0.614083	-0.650630	0.446747	0.779840	-0.587314	0.216593	0.121459	0.481397	0.868046	0	0	0
14137	0	0	0	0	0	4.446198	2.049925	8.507155	-0.002662	0.004942	0.007622	-0.777100	0.042480	-0.520020	0.408249	-0.162164	-0.199188	-0.875991	14.008475	-26.535068	-133.343703	-0.614071	-0.650642	0.446745	0.779847	-0.587315	0.216567	0.121473	0.481380	0.868054	0	0	0
14138	0	0	0	0	0	4.431680	2.045373	8.538679	-0.006148	0.004991	0.007633	-0.773926	0.047363	-0.513916	0.408253	-0.162171	-0.199163	-0.875993	14.005179	-26.534645	-133.342568	-0.614061	-0.650656	0.446739	0.779850	-0.587328	0.216517	0.121504	0.481344	0.868069	0	0	0
14139	0	0	0	0	0	4.455508	2.020697	8.489712	-0.003346	0.003616	0.007942	-0.764648	0.053955	-0.514893	0.408246	-0.162184	-0.199149	-0.875997	14.003150	-26.535329	-133.343108	-0.614063	-0.650647	0.446750	0.779842	-0.587350	0.216485	0.121543	0.481330	0.868072	0	0	0
14140	0	0	0	0	0	4.426820	2.012327	8.552392	-0.004747	0.004304	0.007788	-0.763916	0.050049	-0.515381	0.408251	-0.162191	-0.199131	-0.875998	14.000662	-26.535310	-133.341983	-0.614051	-0.650659	0.446749	0.779848	-0.587356	0.216448	0.121567	0.481306	0.868082	0	0	0
14141	0	0	0	0	0	4.431375	2.020355	8.574977	-0.001261	0.004254	0.007777	-0.772705	0.047607	-0.511719	0.408268	-0.162192	-0.199128	-0.875991	13.999701	-26.535510	-133.339604	-0.614023	-0.650683	0.446752	0.779871	-0.587331	0.216433	0.121562	0.481304	0.868084	0	0	0
14142	0	0	0	0	0	4.445298	2.023873	8.544016	-0.000236	0.006285	0.003777	-0.766113	0.056396	-0.510742	0.408261	-0.162177	-0.199129	-0.875996	14.000773	-26.533833	-133.340664	-0.614044	-0.650681	0.446726	0.779858	-0.587341	0.216452	0.121539	0.481294	0.868092	0	0	0
14143	0	0	0	0	0	4.444967	2.023701	8.544229	0.002224	0.004204	0.007767	-0.769043	0.053223	-0.526367	0.408267	-0.162175	-0.199139	-0.875991	14.001827	-26.534192	-133.340031	-0.614034	-0.650686	0.446732	0.779868	-0.587323	0.216467	0.121523	0.481310	0.868086	0	0	0
14144	0	0	0	0	0	4.434982	2.051193	8.562445	-0.001432	0.003944	0.006097	-0.761719	0.050781	-0.518799	0.408267	-0.162175	-0.199139	-0.875991	14.001732	-26.534139	-133.340012	-0.614035	-0.650687	0.446731	0.779868	-0.587324	0.216466	0.121524	0.481309	0.868086	0	0	0
14145	0	0	0	0	0	4.434555	2.073736	8.527126	-0.002116	0.002617	0.006416	-0.765869	0.054932	-0.518311	0.408286	-0.162180	-0.199137	-0.875982	14.000766	-26.534945	-133.337343	-0.614000	-0.650711	0.446744	0.779895	-0.587293	0.216450	0.121523	0.481313	0.868084	0	0	0
14146	0	0	0	0	0	4.458958	2.003372	8.549088	-0.002833	0.004632	0.005942	-0.766846	0.046143	-0.509521	0.408285	-0.162179	-0.199129	-0.875984	13.999864	-26.534488	-133.337313	-0.614002	-0.650714	0.446736	0.779892	-0.587302	0.216437	0.121530	0.481299	0.868091	0	0	0
14147	0	0	0	0	0	4.405182	2.088273	8.554522	0.002021	0.007233	0.005295	-0.770020	0.052002	-0.513184	0.408289	-0.162160	-0.199135	-0.875985	14.001294	-26.532741	-133.337052	-0.614008	-0.650726	0.446709	0.779893	-0.587291	0.216462	0.121491	0.481295	0.868099	0	0	0
14148	0	0	0	0	0	4.443729	2.021932	8.545292	-0.001945	0.002928	0.008097	-0.775635	0.053955	-0.514160	0.408296	-0.162168	-0.199132	-0.875981	14.000420	-26.533530	-133.335948	-0.613992	-0.650734	0.446721	0.779905	-0.587281	0.216447	0.121501	0.481297	0.868096	0	0	0
14149	0	0	0	0	0	4.462614	2.033902	8.536616	-0.001261	0.004254	0.007779	-0.770996	0.047363	-0.515381	0.408301	-0.162172	-0.199127	-0.875979	13.999458	-26.533866	-133.335175	-0.613981	-0.650740	0.446727	0.779912	-0.587278	0.216432	0.121511	0.481293	0.868097	0	0	0
14150	0	0	0	0	0	4.419238	2.022831	8.496784	-0.001806	0.006578	0.008987	-0.769043	0.046143	-0.520508	0.408316	-0.162164	-0.199117	-0.875976	13.998164	-26.532748	-133.332952	-0.613962	-0.650770	0.446709	0.779929	-0.587261	0.216415	0.121499	0.481272	0.868110	0	0	0
14151	0	0	0	0	0	4.428436	2.039852	8.541682	0.004139	0.004530	0.005923	-0.766602	0.047607	-0.513428	0.408317	-0.162154	-0.199137	-0.875972	14.000882	-26.532569	-133.333249	-0.613966	-0.650768	0.446706	0.779931	-0.587243	0.216456	0.121462	0.481297	0.868101	0	0	0
14152	0	0	0	0	0	4.457033	2.024590	8.514871	0.003454	0.003204	0.006242	-0.762939	0.049561	-0.516357	0.408321	-0.162147	-0.199159	-0.875967	14.003597	-26.532946	-133.333255	-0.613964	-0.650766	0.446712	0.779938	-0.587219	0.216497	0.121429	0.481329	0.868088	0	0	0
14153	0	0	0	0	0	4.432529	2.071590	8.528701	0.003968	0.004220	0.004242	-0.765381	0.052734	-0.505127	0.408319	-0.162136	-0.199180	-0.875965	14.006668	-26.532698	-133.334096	-0.613975	-0.650758	0.446708	0.779935	-0.587205	0.216544	0.121392	0.481356	0.868079	0	0	0
14154	0	0	0	0	0	4.423053	2.031270	8.519658	0.000140	0.003566	0.007934	-0.769531	0.055664	-0.516602	0.408328	-0.162136	-0.199185	-0.875960	14.006990	-26.533109	-133.332995	-0.613960	-0.650768	0.446715	0.779948	-0.587187	0.216548	0.121383	0.481366	0.868074	0	0	0
14155	0	0	0	0	0	4.446400	2.075046	8.497802	0.000654	0.004581	0.005934	-0.768799	0.052246	-0.512695	0.408330	-0.162133	-0.199190	-0.875958	14.007587	-26.532994	-133.332840	-0.613959	-0.650770	0.446713	0.779951	-0.587180	0.216557	0.121372	0.481371	0.868073	0	0	0
14156	0	0	0	0	0	4.412872	2.058529	8.538034	-0.000031	0.003256	0.006253	-0.774902	0.048340	-0.515381	0.408331	-0.162133	-0.199196	-0.875956	14.008299	-26.533345	-133.332830	-0.613957	-0.650768	0.446719	0.779953	-0.587173	0.216567	0.121366	0.481382	0.868068	0	0	0
14157	0	0	0	0	0	4.465117	2.063871	8.524895	-0.002691	0.008284	0.006833	-0.774170	0.046387	-0.522461	0.408332	-0.162122	-0.199177	-0.875962	14.006540	-26.531296	-133.332370	-0.613963	-0.650785	0.446687	0.779949	-0.587187	0.216544	0.121365	0.481343	0.868090	0	0	0
14158	0	0	0	0	0	4.450406	2.059738	8.556392	0.000312	0.003961	0.002571	-0.770996	0.042236	-0.512451	0.408318	-0.162115	-0.199187	-0.875968	14.008421	-26.530744	-133.334539	-0.613991	-0.650765	0.446678	0.779929	-0.587202	0.216574	0.121352	0.481351	0.868087	0	0	0
14159	0	0	0	0	0	4.464331	2.063182	8.525473	-0.003205	0.007268	0.008833	-0.765869	0.056152	-0.517090	0.408321	-0.162112	-0.199166	-0.875972	14.005972	-26.529490	-133.333624	-0.613987	-0.650781	0.446658	0.779930	-0.587214	0.216539	0.121364	0.481314	0.868105	0	0	0
14160	0	0	0	0	0	4.445043	2.027039	8.570251	-0.004605	0.007957	0.008679	-0.768066	0.050537	-0.515381	0.408334	-0.162104	-0.199140	-0.875973	14.003065	-26.527564	-133.331379	-0.613972	-0.650816	0.446628	0.779942	-0.587213	0.216499	0.121365	0.481268	0.868131	0	0	0
14161	0	0	0	0	0	4.439672	2.040779	8.512761	-0.003003	0.004323	0.004262	-0.764648	0.056152	-0.512695	0.408333	-0.162105	-0.199132	-0.875975	14.002056	-26.527265	-133.331267	-0.613972	-0.650819	0.446624	0.779940	-0.587221	0.216484	0.121375	0.481255	0.868137	0	0	0
14162	0	0	0	0	0	4.439496	2.017221	8.548605	-0.004776	0.007647	0.006998	-0.774170	0.053467	-0.508057	0.408338	-0.162096	-0.199108	-0.875980	13.999538	-26.525278	-133.330115	-0.613970	-0.650843	0.446593	0.779941	-0.587232	0.216450	0.121379	0.481210	0.868162	0	0	0
14163	0	0	0	0	0	4.434252	2.008029	8.526654	-0.003888	0.006028	0.002108	-0.769775	0.049072	-0.507080	0.408319	-0.162093	-0.199092	-0.875993	13.998489	-26.523864	-133.332447	-0.614004	-0.650826	0.446571	0.779912	-0.587276	0.216436	0.121398	0.481178	0.868176	0	0	0
14164	0	0	0	0	0	4.452903	2.020068	8.518105	-0.000575	0.005580	0.007463	-0.770508	0.047363	-0.516357	0.408327	-0.162085	-0.199091	-0.875991	13.998392	-26.523091	-133.331326	-0.613995	-0.650842	0.446558	0.779921	-0.587264	0.216436	0.121382	0.481171	0.868183	0	0	0
14165	0	0	0	0	0	4.428171	2.066663	8.532159	-0.003374	0.007043	0.000108	-0.767090	0.052002	-0.516357	0.408291	-0.162076	-0.199076	-0.876013	13.998225	-26.520824	-133.335956	-0.614060	-0.650806	0.446523	0.779867	-0.587334	0.216438	0.121399	0.481135	0.868200	0	0	0
14166	0	0	0	0	0	4.442218	2.047021	8.536822	-0.004061	0.005632	0.007472	-0.769287	0.048096	-0.519043	0.408297	-0.162075	-0.199059	-0.876014	13.996125	-26.520023	-133.334821	-0.614051	-0.650822	0.446511	0.779872	-0.587339	0.216408	0.121410	0.481107	0.868214	0	0	0
14167	0	0	0	0	0	4.461061	2.058889	8.528222	-0.002117	0.002618	0.006418	-0.774170	0.046143	-0.511719	0.408300	-0.162085	-0.199056	-0.876012	13.995196	-26.520964	-133.334243	-0.614039	-0.650823	0.446525	0.779879	-0.587336	0.216392	0.121428	0.481109	0.868211	0	0	0
14168	0	0	0	0	0	4.427257	2.065010	8.533034	-0.005631	0.006011	0.005635	-0.771729	0.055908	-0.514893	0.408296	-0.162084	-0.199033	-0.876019	13.992679	-26.519697	-133.334190	-0.614046	-0.650831	0.446505	0.779871	-0.587360	0.216356	0.121448	0.481069	0.868230	0	0	0
14169	0	0	0	0	0	4.451190	2.017248	8.519668	-0.005975	0.005305	0.009318	-0.770020	0.043945	-0.513184	0.408301	-0.162096	-0.199003	-0.876021	13.988545	-26.519679	-133.332891	-0.614031	-0.650845	0.446505	0.779875	-0.587377	0.216294	0.121493	0.481029	0.868245	0	0	0
14170	0	0	0	0	0	4.436416	2.035547	8.515711	-0.006317	0.004686	0.005954	-0.772217	0.050293	-0.516357	0.408297	-0.162103	-0.198979	-0.876027	13.985639	-26.519194	-133.332846	-0.614033	-0.650848	0.446498	0.779868	-0.587402	0.216250	0.121527	0.480994	0.868260	0	0	0
14171	0	0	0	0	0	4.474500	2.036623	8.533830	-0.007173	0.003050	0.004590	-0.764404	0.046387	-0.512695	0.408275	-0.162122	-0.198952	-0.876040	13.982344	-26.519730	-133.335057	-0.614055	-0.650821	0.446506	0.779840	-0.587458	0.216199	0.121596	0.480962	0.868269	0	0	0
14172	0	0	0	0	0	4.421581	2.030141	8.547545	-0.003033	0.007577	0.010520	-0.770996	0.044189	-0.510010	0.408297	-0.162114	-0.198934	-0.876035	13.979853	-26.518269	-133.331728	-0.614025	-0.650865	0.446483	0.779865	-0.587438	0.216164	0.121587	0.480927	0.868289	0	0	0
14173	0	0	0	0	0	4.435508	2.033328	8.516714	-0.004401	0.005012	0.004109	-0.772461	0.049561	-0.511963	0.408273	-0.162120	-0.198915	-0.876050	13.978169	-26.517667	-133.334502	-0.614060	-0.650839	0.446474	0.779831	-0.587492	0.216140	0.121627	0.480897	0.868300	0	0	0
14174	0	0	0	0	0	4.454210	2.045207	8.508199	-0.001804	0.006577	0.008993	-0.772461	0.055908	-0.505127	0.408288	-0.162112	-0.198905	-0.876046	13.976875	-26.516550	-133.332276	-0.614041	-0.650869	0.446456	0.779849	-0.587475	0.216123	0.121614	0.480876	0.868313	0	0	0
14175	0	0	0	0	0	4.434883	2.032030	8.517349	-0.006831	0.003670	0.007955	-0.769287	0.051758	-0.518555	0.408279	-0.162134	-0.198875	-0.876053	13.972717	-26.517329	-133.332682	-0.614041	-0.650860	0.446468	0.779838	-0.587514	0.216058	0.121683	0.480841	0.868323	0	0	0
14176	0	0	0	0	0	4.415671	2.018633	8.526488	-0.006660	0.003980	0.009638	-0.771484	0.053711	-0.513184	0.408291	-0.162148	-0.198848	-0.876052	13.968641	-26.517746	-133.330458	-0.614014	-0.650882	0.446475	0.779853	-0.587516	0.215996	0.121724	0.480809	0.868335	0	0	0
14177	0	0	0	0	0	4.439304	2.038794	8.540306	-0.004745	0.004306	0.007793	-0.766602	0.056885	-0.523193	0.408298	-0.162158	-0.198828	-0.876051	13.965671	-26.517995	-133.328960	-0.613995	-0.650897	0.446479	0.779863	-0.587520	0.215950	0.121754	0.480784	0.868345	0	0	0
14178	0	0	0	0	0	4.396183	2.004706	8.535889	-0.002830	0.004632	0.005948	-0.770020	0.056152	-0.519287	0.408297	-0.162157	-0.198820	-0.876053	13.964768	-26.517538	-133.328928	-0.613997	-0.650900	0.446472	0.779860	-0.587529	0.215937	0.121761	0.480770	0.868351	0	0	0
14179	0	0	0	0	0	4.438817	2.037567	8.540852	-0.004916	0.003997	0.006111	-0.767334	0.054199	-0.513184	0.408313	-0.162163	-0.198804	-0.876048	13.962122	-26.517607	-133.326280	-0.613967	-0.650927	0.446473	0.779882	-0.587515	0.215897	0.121776	0.480750	0.868361	0	0	0
14180	0	0	0	0	0	4.429220	1.996831	8.531897	-0.000574	0.005577	0.007468	-0.765625	0.053711	-0.519775	0.408322	-0.162155	-0.198802	-0.876046	13.962025	-26.516835	-133.325157	-0.613958	-0.650944	0.446461	0.779891	-0.587502	0.215897	0.121760	0.480742	0.868367	0	0	0
14181	0	0	0	0	0	4.438204	2.036622	8.541396	-0.004741	0.004394	0.000746	-0.759521	0.054443	-0.517334	0.408305	-0.162155	-0.198789	-0.876057	13.960984	-26.516006	-133.327112	-0.613985	-0.650928	0.446448	0.779866	-0.587540	0.215883	0.121782	0.480718	0.868377	0	0	0
14182	0	0	0	0	0	4.433491	2.004677	8.554670	0.002423	0.001166	0.010250	-0.768066	0.050781	-0.512939	0.408324	-0.162164	-0.198807	-0.876042	13.962136	-26.518071	-133.324941	-0.613949	-0.650939	0.446480	0.779896	-0.587495	0.215896	0.121769	0.480758	0.868357	0	0	0
14183	0	0	0	0	0	4.466492	2.065557	8.577580	-0.002144	0.005958	0.005631	-0.775635	0.055664	-0.509521	0.408331	-0.162157	-0.198798	-0.876042	13.961138	-26.517041	-133.323801	-0.613942	-0.650957	0.446464	0.779903	-0.587491	0.215883	0.121763	0.480738	0.868369	0	0	0
14184	0	0	0	0	0	4.442406	2.043999	8.564320	-0.003345	0.003616	0.007949	-0.765869	0.050781	-0.519043	0.408337	-0.162164	-0.198788	-0.876040	13.959455	-26.517426	-133.322682	-0.613927	-0.650967	0.446470	0.779912	-0.587488	0.215857	0.121780	0.480728	0.868372	0	0	0
14185	0	0	0	0	0	4.442054	2.066403	8.529092	-0.002659	0.004942	0.007632	-0.776367	0.052979	-0.519287	0.408343	-0.162168	-0.198775	-0.876040	13.957679	-26.517337	-133.321617	-0.613915	-0.650979	0.446469	0.779919	-0.587489	0.215830	0.121794	0.480711	0.868380	0	0	0
14186	0	0	0	0	0	4.437050	2.057244	8.507012	-0.002659	0.004942	0.007632	-0.763428	0.055664	-0.512451	0.408349	-0.162168	-0.198766	-0.876039	13.956386	-26.516941	-133.320490	-0.613905	-0.650993	0.446462	0.779927	-0.587486	0.215811	0.121799	0.480696	0.868387	0	0	0
14187	0	0	0	0	0	4.422523	2.029729	8.573997	-0.005457	0.006322	0.007322	-0.765869	0.049805	-0.514404	0.408358	-0.162169	-0.198739	-0.876041	13.952979	-26.516004	-133.318720	-0.613890	-0.651018	0.446448	0.779935	-0.587493	0.215761	0.121820	0.480654	0.868407	0	0	0
14188	0	0	0	0	0	4.431790	2.024317	8.520794	-0.002829	0.004632	0.005949	-0.764160	0.050293	-0.520752	0.408357	-0.162169	-0.198731	-0.876043	13.952076	-26.515547	-133.318686	-0.613892	-0.651021	0.446441	0.779933	-0.587501	0.215749	0.121828	0.480640	0.868414	0	0	0
14189	0	0	0	0	0	4.436227	2.032316	8.543448	-0.004058	0.005632	0.007478	-0.769043	0.044189	-0.515381	0.408368	-0.162170	-0.198713	-0.876042	13.949535	-26.514930	-133.316754	-0.613873	-0.651045	0.446431	0.779946	-0.587498	0.215711	0.121840	0.480611	0.868428	0	0	0
14190	0	0	0	0	0	4.445607	2.003926	8.525725	-0.001801	0.006576	0.008999	-0.767822	0.059326	-0.508057	0.408383	-0.162162	-0.198702	-0.876039	13.948241	-26.513814	-133.314525	-0.613854	-0.651075	0.446414	0.779963	-0.587481	0.215694	0.121827	0.480590	0.868442	0	0	0
14191	0	0	0	0	0	4.440572	1.995043	8.503593	0.001885	0.003578	0.004415	-0.770508	0.053467	-0.508301	0.408372	-0.162160	-0.198715	-0.876041	13.950080	-26.514061	-133.316262	-0.613872	-0.651055	0.446417	0.779949	-0.587489	0.215721	0.121819	0.480608	0.868433	0	0	0
14192	0	0	0	0	0	4.416123	2.041914	8.517490	0.000486	0.004268	0.004260	-0.767822	0.049072	-0.514648	0.408366	-0.162153	-0.198723	-0.876044	13.951570	-26.513574	-133.317334	-0.613887	-0.651046	0.446410	0.779940	-0.587492	0.215745	0.121803	0.480616	0.868431	0	0	0
14193	0	0	0	0	0	4.435172	2.031244	8.544250	0.002597	0.001562	0.004887	-0.766113	0.052002	-0.511230	0.408354	-0.162160	-0.198742	-0.876044	13.953834	-26.515020	-133.319348	-0.613902	-0.651016	0.446432	0.779928	-0.587497	0.215776	0.121804	0.480651	0.868412	0	0	0
14194	0	0	0	0	0	4.449363	2.035027	8.513174	0.000315	0.003959	0.002577	-0.767090	0.051270	-0.514404	0.408340	-0.162153	-0.198752	-0.876049	13.955714	-26.514472	-133.321513	-0.613930	-0.650996	0.446424	0.779909	-0.587512	0.215806	0.121791	0.480659	0.868409	0	0	0
14195	0	0	0	0	0	4.449113	2.034965	8.513319	0.001885	0.003578	0.004415	-0.770020	0.050293	-0.510742	0.408334	-0.162150	-0.198765	-0.876050	13.957549	-26.514676	-133.322723	-0.613942	-0.650982	0.446427	0.779901	-0.587512	0.215833	0.121778	0.480678	0.868400	0	0	0
14196	0	0	0	0	0	4.439044	2.062483	8.531608	-0.003711	0.006340	0.003795	-0.780518	0.046631	-0.514893	0.408324	-0.162141	-0.198751	-0.876059	13.956621	-26.512973	-133.323764	-0.613963	-0.650981	0.446400	0.779884	-0.587539	0.215822	0.121782	0.480647	0.868417	0	0	0
14197	0	0	0	0	0	4.453081	2.042834	8.536250	-0.002142	0.005958	0.005633	-0.767090	0.052246	-0.510254	0.408307	-0.162142	-0.198738	-0.876070	13.955709	-26.512129	-133.325854	-0.613991	-0.650963	0.446387	0.779858	-0.587578	0.215810	0.121803	0.480624	0.868426	0	0	0
14198	0	0	0	0	0	4.452840	2.042205	8.536526	-0.005431	0.002982	0.008112	-0.769287	0.047852	-0.514893	0.408311	-0.162156	-0.198720	-0.876069	13.952829	-26.512889	-133.324731	-0.613975	-0.650971	0.446399	0.779865	-0.587584	0.215765	0.121840	0.480606	0.868431	0	0	0
14199	0	0	0	0	0	4.433537	2.029223	8.545579	-0.000743	0.005267	0.005789	-0.770020	0.056641	-0.510010	0.408306	-0.162154	-0.198716	-0.876073	13.952688	-26.512368	-133.325430	-0.613985	-0.650966	0.446391	0.779857	-0.587596	0.215764	0.121843	0.480597	0.868436	0	0	0
14200	0	0	0	0	0	4.414202	2.016515	8.554581	-0.000031	0.003252	0.006261	-0.763428	0.054443	-0.511719	0.408307	-0.162154	-0.198723	-0.876071	13.953396	-26.512722	-133.325416	-0.613983	-0.650964	0.446397	0.779859	-0.587589	0.215774	0.121837	0.480608	0.868431	0	0	0
14201	0	0	0	0	0	4.452148	2.041029	8.537168	-0.000742	0.005267	0.005789	-0.772461	0.047852	-0.513916	0.408309	-0.162150	-0.198720	-0.876072	13.953166	-26.512210	-133.325086	-0.613982	-0.650971	0.446389	0.779861	-0.587588	0.215771	0.121832	0.480601	0.868435	0	0	0
14202	0	0	0	0	0	4.437423	2.059837	8.533090	-0.001259	0.004251	0.007789	-0.762207	0.051270	-0.518311	0.408317	-0.162150	-0.198718	-0.876068	13.952678	-26.512220	-133.323968	-0.613970	-0.650983	0.446389	0.779871	-0.587577	0.215764	0.121829	0.480598	0.868437	0	0	0
14203	0	0	0	0	0	4.466132	2.020991	8.541926	-0.001259	0.004251	0.007790	-0.764160	0.048096	-0.515381	0.408325	-0.162153	-0.198713	-0.876065	13.951760	-26.512466	-133.322793	-0.613955	-0.650994	0.446393	0.779882	-0.587568	0.215750	0.121834	0.480594	0.868439	0	0	0
14204	0	0	0	0	0	4.446682	2.031186	8.515492	-0.000572	0.005576	0.007473	-0.770020	0.042236	-0.512939	0.408333	-0.162145	-0.198712	-0.876063	13.951662	-26.511696	-133.321667	-0.613946	-0.651010	0.446380	0.779891	-0.587556	0.215750	0.121818	0.480587	0.868445	0	0	0
14205	0	0	0	0	0	4.417476	2.068992	8.507168	-0.006313	0.004690	0.005958	-0.775879	0.052002	-0.515381	0.408319	-0.162158	-0.198684	-0.876074	13.948398	-26.511481	-133.322904	-0.613961	-0.650998	0.446377	0.779871	-0.587600	0.215701	0.121871	0.480548	0.868459	0	0	0
14206	0	0	0	0	0	4.431769	2.026147	8.547226	-0.001259	0.004251	0.007790	-0.771729	0.047852	-0.517090	0.408327	-0.162157	-0.198682	-0.876071	13.947910	-26.511491	-133.321785	-0.613949	-0.651010	0.446377	0.779882	-0.587589	0.215693	0.121868	0.480546	0.868461	0	0	0
14207	0	0	0	0	0	4.445899	2.029666	8.516263	0.000487	0.004267	0.004262	-0.774414	0.052246	-0.514160	0.408313	-0.162156	-0.198687	-0.876076	13.948972	-26.511320	-133.323735	-0.613972	-0.650990	0.446375	0.779863	-0.587607	0.215710	0.121868	0.480551	0.868458	0	0	0
14208	0	0	0	0	0	4.426418	2.040052	8.489803	-0.000742	0.005267	0.005790	-0.767578	0.052002	-0.513428	0.408314	-0.162148	-0.198687	-0.876077	13.949265	-26.510489	-133.323702	-0.613976	-0.650995	0.446362	0.779862	-0.587607	0.215716	0.121855	0.480545	0.868463	0	0	0
14209	0	0	0	0	0	4.426073	2.016663	8.525580	-0.001282	0.007592	0.007002	-0.768799	0.054932	-0.514648	0.408317	-0.162138	-0.198675	-0.876080	13.948287	-26.508856	-133.323045	-0.613977	-0.651012	0.446336	0.779863	-0.587611	0.215704	0.121846	0.480518	0.868479	0	0	0
14210	0	0	0	0	0	4.416023	2.044126	8.543877	-0.000201	0.002942	0.004579	-0.766113	0.051270	-0.520264	0.408311	-0.162138	-0.198683	-0.876082	13.949386	-26.509151	-133.324124	-0.613988	-0.650999	0.446341	0.779855	-0.587615	0.215720	0.121843	0.480530	0.868473	0	0	0
14211	0	0	0	0	0	4.434853	2.056197	8.535304	-0.002140	0.005958	0.005636	-0.763672	0.050537	-0.509521	0.408318	-0.162131	-0.198674	-0.876082	13.948382	-26.508128	-133.322986	-0.613980	-0.651017	0.446325	0.779862	-0.587611	0.215707	0.121837	0.480511	0.868484	0	0	0
14212	0	0	0	0	0	4.434525	2.056025	8.535515	0.004142	0.004518	0.005940	-0.772461	0.046875	-0.518555	0.408322	-0.162117	-0.198696	-0.876077	13.951483	-26.507734	-133.322975	-0.613982	-0.651019	0.446319	0.779867	-0.587586	0.215754	0.121790	0.480539	0.868476	0	0	0
14213	0	0	0	0	0	4.443946	2.027947	8.517692	-0.004056	0.005634	0.007481	-0.766602	0.051270	-0.507568	0.408322	-0.162122	-0.198676	-0.876081	13.948969	-26.507219	-133.322563	-0.613980	-0.651026	0.446311	0.779865	-0.587603	0.215717	0.121816	0.480508	0.868489	0	0	0
14214	0	0	0	0	0	4.448343	2.035846	8.540389	-0.004056	0.005634	0.007481	-0.765137	0.054688	-0.518555	0.408327	-0.162121	-0.198659	-0.876082	13.946869	-26.506418	-133.321424	-0.613972	-0.651043	0.446298	0.779870	-0.587607	0.215687	0.121826	0.480480	0.868503	0	0	0
14215	0	0	0	0	0	4.428937	2.022803	8.549486	-0.002487	0.005251	0.009320	-0.765381	0.046631	-0.518311	0.408344	-0.162124	-0.198646	-0.876077	13.944697	-26.506359	-133.318871	-0.613943	-0.651071	0.446297	0.779891	-0.587591	0.215654	0.121834	0.480463	0.868511	0	0	0
14216	0	0	0	0	0	4.414218	2.064349	8.509986	-0.004743	0.004309	0.007798	-0.764404	0.044189	-0.518555	0.408349	-0.162130	-0.198628	-0.876078	13.942206	-26.506338	-133.317739	-0.613930	-0.651083	0.446297	0.779898	-0.587596	0.215616	0.121858	0.480439	0.868521	0	0	0
14217	0	0	0	0	0	4.447513	2.033911	8.541282	-0.002139	0.005959	0.005637	-0.768555	0.051758	-0.520996	0.408348	-0.162125	-0.198618	-0.876081	13.941326	-26.505272	-133.317687	-0.613935	-0.651089	0.446280	0.779894	-0.587606	0.215605	0.121859	0.480419	0.868532	0	0	0
14218	0	0	0	0	0	4.442515	2.024832	8.519179	-0.003515	0.003309	0.006270	-0.766357	0.052734	-0.509521	0.408346	-0.162132	-0.198610	-0.876083	13.940031	-26.505596	-133.317659	-0.613933	-0.651088	0.446285	0.779892	-0.587615	0.215585	0.121879	0.480409	0.868535	0	0	0
14219	0	0	0	0	0	4.423097	2.011854	8.528260	-0.003367	0.006959	0.007166	-0.766602	0.046387	-0.522461	0.408354	-0.162127	-0.198591	-0.876084	13.937848	-26.504274	-133.316153	-0.613923	-0.651112	0.446265	0.779899	-0.587617	0.215554	0.121883	0.480375	0.868553	0	0	0
14220	0	0	0	0	0	4.441947	2.023675	8.519750	-0.001947	0.002926	0.008109	-0.766357	0.056885	-0.517578	0.408362	-0.162134	-0.198588	-0.876080	13.936968	-26.505065	-133.315040	-0.613906	-0.651119	0.446277	0.779911	-0.587607	0.215539	0.121894	0.480377	0.868550	0	0	0
14221	0	0	0	0	0	4.461040	2.012590	8.546569	-0.000718	0.001926	0.006581	-0.769043	0.051758	-0.508789	0.408373	-0.162143	-0.198593	-0.876072	13.936815	-26.506362	-133.313611	-0.613883	-0.651127	0.446297	0.779929	-0.587585	0.215535	0.121897	0.480393	0.868541	0	0	0
14222	0	0	0	0	0	4.412698	2.038440	8.546952	0.001155	0.008932	0.003161	-0.763916	0.054932	-0.513184	0.408367	-0.162112	-0.198596	-0.876080	13.938672	-26.503130	-133.314647	-0.613912	-0.651134	0.446247	0.779914	-0.587593	0.215569	0.121847	0.480374	0.868559	0	0	0
14223	0	0	0	0	0	4.440980	2.022800	8.520462	-0.002138	0.005959	0.005638	-0.767822	0.049072	-0.520508	0.408364	-0.162109	-0.198585	-0.876084	13.937669	-26.502222	-133.314851	-0.613919	-0.651137	0.446233	0.779907	-0.587606	0.215555	0.121853	0.480353	0.868569	0	0	0
14224	0	0	0	0	0	4.430943	2.050267	8.538761	0.000658	0.004575	0.005949	-0.775391	0.063721	-0.512207	0.408365	-0.162102	-0.198592	-0.876083	13.938768	-26.501798	-133.314826	-0.613921	-0.651140	0.446226	0.779908	-0.587598	0.215573	0.121833	0.480360	0.868568	0	0	0
14225	0	0	0	0	0	4.416215	2.069251	8.534655	-0.000910	0.004958	0.004110	-0.769287	0.052002	-0.519287	0.408363	-0.162097	-0.198591	-0.876085	13.938914	-26.501200	-133.315090	-0.613928	-0.651140	0.446217	0.779905	-0.587602	0.215576	0.121827	0.480354	0.868572	0	0	0
14226	0	0	0	0	0	4.468594	2.051410	8.557133	-0.002996	0.004326	0.004270	-0.765381	0.052002	-0.513184	0.408355	-0.162097	-0.198584	-0.876091	13.938401	-26.500683	-133.316147	-0.613942	-0.651132	0.446208	0.779891	-0.587622	0.215569	0.121838	0.480341	0.868578	0	0	0
14227	0	0	0	0	0	4.430055	2.049175	8.539483	-0.002657	0.004943	0.007639	-0.762451	0.056885	-0.516357	0.408364	-0.162099	-0.198572	-0.876089	13.936637	-26.500531	-133.314552	-0.613925	-0.651150	0.446206	0.779903	-0.587615	0.215543	0.121847	0.480325	0.868586	0	0	0
14228	0	0	0	0	0	4.420480	2.008402	8.530430	-0.004203	0.001985	0.006586	-0.764648	0.045166	-0.520752	0.408362	-0.162114	-0.198563	-0.876089	13.934951	-26.501635	-133.314531	-0.613919	-0.651144	0.446223	0.779903	-0.587626	0.215515	0.121881	0.480320	0.868584	0	0	0
14229	0	0	0	0	0	4.439424	1.997142	8.557361	-0.004394	0.005018	0.004115	-0.764404	0.058105	-0.514893	0.408362	-0.162114	-0.198547	-0.876093	13.933172	-26.500866	-133.314228	-0.613920	-0.651152	0.446211	0.779900	-0.587639	0.215490	0.121895	0.480294	0.868596	0	0	0
14230	0	0	0	0	0	4.448547	2.059897	8.531440	0.000998	0.005191	0.009319	-0.768311	0.045898	-0.513672	0.408379	-0.162106	-0.198552	-0.876085	13.933489	-26.500564	-133.312014	-0.613896	-0.651177	0.446207	0.779923	-0.587607	0.215495	0.121869	0.480298	0.868597	0	0	0
14231	0	0	0	0	0	4.443720	2.027864	8.544693	-0.002806	0.001293	0.006742	-0.771729	0.046387	-0.512207	0.408379	-0.162125	-0.198547	-0.876083	13.932140	-26.502346	-133.311879	-0.613885	-0.651168	0.446234	0.779926	-0.587612	0.215471	0.121905	0.480304	0.868589	0	0	0
14232	0	0	0	0	0	4.419778	2.006460	8.531251	-0.001428	0.003942	0.006111	-0.766357	0.044434	-0.524658	0.408379	-0.162125	-0.198546	-0.876083	13.932041	-26.502296	-133.311851	-0.613885	-0.651169	0.446234	0.779926	-0.587612	0.215470	0.121905	0.480303	0.868590	0	0	0
14233	0	0	0	0	0	4.424283	2.037846	8.518323	0.001887	0.003574	0.004422	-0.773193	0.057861	-0.518311	0.408367	-0.162122	-0.198559	-0.876086	13.933979	-26.502450	-133.313800	-0.613906	-0.651147	0.446236	0.779911	-0.587622	0.215499	0.121897	0.480320	0.868581	0	0	0
14234	0	0	0	0	0	4.443173	2.027031	8.545175	0.000829	0.004883	0.007635	-0.773438	0.056641	-0.521729	0.408376	-0.162115	-0.198565	-0.876082	13.934686	-26.502088	-133.312680	-0.613895	-0.651161	0.446230	0.779923	-0.587602	0.215510	0.121874	0.480326	0.868581	0	0	0
14235	0	0	0	0	0	4.423792	2.014390	8.554135	-0.001767	0.003326	0.002742	-0.769531	0.052246	-0.524170	0.408371	-0.162116	-0.198565	-0.876084	13.934816	-26.502167	-133.313338	-0.613902	-0.651154	0.446232	0.779916	-0.587610	0.215512	0.121879	0.480327	0.868580	0	0	0
14236	0	0	0	0	0	4.428266	2.045599	8.541268	-0.002826	0.004634	0.005956	-0.768555	0.051270	-0.509766	0.408370	-0.162116	-0.198557	-0.876086	13.933912	-26.501711	-133.313300	-0.613904	-0.651157	0.446225	0.779914	-0.587618	0.215499	0.121886	0.480313	0.868587	0	0	0
14237	0	0	0	0	0	4.437627	2.017340	8.523503	-0.002136	0.005959	0.005640	-0.771729	0.048828	-0.511475	0.408371	-0.162111	-0.198547	-0.876089	13.932936	-26.500732	-133.313032	-0.613907	-0.651165	0.446209	0.779912	-0.587625	0.215486	0.121887	0.480292	0.868598	0	0	0
14238	0	0	0	0	0	4.408582	2.032370	8.550521	-0.000719	0.001925	0.006583	-0.769287	0.042969	-0.516602	0.408371	-0.162119	-0.198553	-0.876086	13.933251	-26.501869	-133.313022	-0.613900	-0.651159	0.446227	0.779915	-0.587619	0.215489	0.121894	0.480308	0.868588	0	0	0
14239	0	0	0	0	0	4.456452	2.028909	8.515092	-0.003854	0.002694	0.002902	-0.769775	0.048096	-0.516846	0.408338	-0.162134	-0.198542	-0.876101	13.932378	-26.502406	-133.317189	-0.613945	-0.651111	0.446235	0.779872	-0.587682	0.215475	0.121946	0.480296	0.868588	0	0	0
14240	0	0	0	0	0	4.437026	2.016127	8.524103	-0.002306	0.005651	0.003956	-0.765625	0.048828	-0.513672	0.408330	-0.162126	-0.198535	-0.876108	13.932256	-26.501109	-133.318237	-0.613964	-0.651107	0.446215	0.779858	-0.587701	0.215475	0.121943	0.480278	0.868598	0	0	0
14241	0	0	0	0	0	4.426992	2.043509	8.542429	-0.002995	0.004326	0.004272	-0.769043	0.049561	-0.513672	0.408315	-0.162130	-0.198525	-0.876116	13.931332	-26.500866	-133.319958	-0.613985	-0.651090	0.446211	0.779838	-0.587733	0.215462	0.121968	0.480263	0.868603	0	0	0
14242	0	0	0	0	0	4.445919	2.055333	8.533910	-0.003345	0.003618	0.007957	-0.761230	0.050293	-0.510742	0.408322	-0.162137	-0.198515	-0.876115	13.929646	-26.501252	-133.318833	-0.613970	-0.651100	0.446217	0.779847	-0.587730	0.215435	0.121985	0.480252	0.868607	0	0	0
14243	0	0	0	0	0	4.421849	2.033722	8.520572	-0.006479	0.004387	0.004276	-0.765381	0.047607	-0.515869	0.408305	-0.162149	-0.198489	-0.876126	13.926693	-26.500999	-133.320482	-0.613990	-0.651084	0.446213	0.779823	-0.587778	0.215391	0.122037	0.480215	0.868620	0	0	0
14244	0	0	0	0	0	4.469615	2.006920	8.520717	-0.001608	0.003541	0.011482	-0.760010	0.054199	-0.515869	0.408328	-0.162156	-0.198484	-0.876115	13.925029	-26.501913	-133.317179	-0.613947	-0.651114	0.446228	0.779855	-0.587745	0.215364	0.122041	0.480215	0.868619	0	0	0
14245	0	0	0	0	0	4.440454	2.021818	8.547823	-0.003013	0.007668	0.003486	-0.761475	0.050537	-0.513184	0.408325	-0.162142	-0.198469	-0.876123	13.924033	-26.499628	-133.317384	-0.613962	-0.651125	0.446192	0.779845	-0.587762	0.215353	0.122033	0.480180	0.868640	0	0	0
14246	0	0	0	0	0	4.425695	2.040500	8.543820	-0.003175	0.003926	0.009642	-0.766846	0.053467	-0.503906	0.408339	-0.162149	-0.198458	-0.876117	13.921955	-26.500075	-133.315164	-0.613934	-0.651146	0.446199	0.779865	-0.587748	0.215321	0.122047	0.480168	0.868645	0	0	0
14247	0	0	0	0	0	4.425553	2.039832	8.544053	-0.003345	0.003618	0.007958	-0.765137	0.051025	-0.517578	0.408338	-0.162162	-0.198444	-0.876119	13.919798	-26.500815	-133.314888	-0.613927	-0.651145	0.446211	0.779865	-0.587760	0.215287	0.122082	0.480155	0.868647	0	0	0
14248	0	0	0	0	0	4.410949	2.058501	8.539976	-0.002824	0.004634	0.005958	-0.760498	0.043701	-0.516113	0.408337	-0.162162	-0.198436	-0.876121	13.918894	-26.500360	-133.314849	-0.613929	-0.651148	0.446203	0.779862	-0.587769	0.215274	0.122089	0.480140	0.868654	0	0	0
14249	0	0	0	0	0	4.434695	2.010970	8.526534	-0.001965	0.006266	0.007328	-0.766602	0.047852	-0.518311	0.408345	-0.162156	-0.198424	-0.876121	13.917590	-26.499370	-133.313519	-0.613919	-0.651168	0.446188	0.779871	-0.587764	0.215256	0.122085	0.480119	0.868666	0	0	0
14250	0	0	0	0	0	4.429572	1.978965	8.539890	-0.000737	0.005266	0.005799	-0.771484	0.058838	-0.510254	0.408346	-0.162149	-0.198424	-0.876122	13.917882	-26.498542	-133.313482	-0.613923	-0.651173	0.446175	0.779869	-0.587763	0.215262	0.122073	0.480113	0.868671	0	0	0
14251	0	0	0	0	0	4.429004	2.046648	8.567496	0.001519	0.006205	0.007325	-0.772949	0.055908	-0.510986	0.408355	-0.162138	-0.198428	-0.876119	13.918489	-26.497712	-133.312412	-0.613916	-0.651189	0.446162	0.779880	-0.587746	0.215273	0.122047	0.480112	0.868675	0	0	0
14252	0	0	0	0	0	4.419292	2.029436	8.522920	0.001888	0.003572	0.004425	-0.770508	0.050049	-0.516357	0.408350	-0.162131	-0.198443	-0.876119	13.920783	-26.497637	-133.313489	-0.613928	-0.651178	0.446161	0.779873	-0.587742	0.215308	0.122024	0.480133	0.868667	0	0	0
14253	0	0	0	0	0	4.447556	2.058653	8.559145	-0.002134	0.005959	0.005643	-0.769043	0.051025	-0.511719	0.408343	-0.162129	-0.198432	-0.876125	13.919791	-26.496758	-133.314157	-0.613941	-0.651176	0.446147	0.779862	-0.587762	0.215294	0.122034	0.480111	0.868678	0	0	0
14254	0	0	0	0	0	4.418776	2.028811	8.523336	-0.000719	0.001924	0.006585	-0.768555	0.047852	-0.517578	0.408344	-0.162137	-0.198438	-0.876122	13.920105	-26.497896	-133.314146	-0.613934	-0.651169	0.446165	0.779866	-0.587756	0.215297	0.122041	0.480127	0.868668	0	0	0
14255	0	0	0	0	0	4.452142	2.021370	8.519139	-0.003882	0.005944	0.009173	-0.770508	0.049316	-0.519043	0.408350	-0.162141	-0.198417	-0.876123	13.917188	-26.497459	-133.312724	-0.613921	-0.651187	0.446158	0.779873	-0.587762	0.215254	0.122064	0.480095	0.868682	0	0	0
14256	0	0	0	0	0	4.437364	2.017007	8.550564	-0.000567	0.005573	0.007485	-0.758057	0.051758	-0.511719	0.408359	-0.162134	-0.198415	-0.876121	13.917090	-26.496691	-133.311591	-0.613912	-0.651203	0.446146	0.779882	-0.587749	0.215254	0.122048	0.480088	0.868688	0	0	0
14257	0	0	0	0	0	4.441845	2.048161	8.537755	-0.002824	0.004635	0.005959	-0.767578	0.058594	-0.512695	0.408359	-0.162136	-0.198404	-0.876122	13.915734	-26.496467	-133.311234	-0.613909	-0.651209	0.446143	0.779883	-0.587757	0.215233	0.122061	0.480073	0.868695	0	0	0
14258	0	0	0	0	0	4.432051	2.007636	8.528694	-0.000906	0.004958	0.004115	-0.761475	0.050537	-0.513184	0.408352	-0.162128	-0.198405	-0.876127	13.916418	-26.495577	-133.312290	-0.613926	-0.651202	0.446129	0.779871	-0.587768	0.215246	0.122052	0.480068	0.868699	0	0	0
14259	0	0	0	0	0	4.436353	2.015629	8.551414	-0.007015	0.006715	0.005492	-0.772705	0.047607	-0.514893	0.408352	-0.162130	-0.198373	-0.876134	13.912582	-26.494179	-133.311609	-0.613925	-0.651217	0.446107	0.779866	-0.587794	0.215190	0.122084	0.480014	0.868724	0	0	0
14260	0	0	0	0	0	4.417030	2.025889	8.524937	0.002765	0.001861	0.006583	-0.772949	0.051758	-0.518799	0.408355	-0.162131	-0.198394	-0.876128	13.914897	-26.495352	-133.311609	-0.613919	-0.651211	0.446125	0.779874	-0.587772	0.215223	0.122064	0.480051	0.868707	0	0	0
14261	0	0	0	0	0	4.455143	2.050395	8.507617	-0.002472	0.005344	0.002274	-0.763672	0.045898	-0.507813	0.408331	-0.162129	-0.198385	-0.876141	13.914743	-26.494311	-133.314713	-0.613960	-0.651183	0.446109	0.779839	-0.587818	0.215223	0.122082	0.480031	0.868715	0	0	0
14262	0	0	0	0	0	4.411681	1.993849	8.538396	0.000661	0.004572	0.005957	-0.769043	0.054443	-0.519287	0.408333	-0.162121	-0.198392	-0.876140	13.915840	-26.493890	-133.314684	-0.613962	-0.651186	0.446102	0.779841	-0.587810	0.215240	0.122062	0.480038	0.868714	0	0	0
14263	0	0	0	0	0	4.464240	1.998792	8.525444	-0.003866	0.002603	0.009960	-0.766113	0.049316	-0.516113	0.408342	-0.162141	-0.198377	-0.876136	13.912928	-26.495410	-133.313010	-0.613935	-0.651195	0.446126	0.779856	-0.587807	0.215193	0.122103	0.480028	0.868714	0	0	0
14264	0	0	0	0	0	4.396983	2.012251	8.534434	0.002579	0.004895	0.004113	-0.762695	0.046387	-0.511963	0.408337	-0.162126	-0.198394	-0.876137	13.915613	-26.494556	-133.314077	-0.613951	-0.651189	0.446113	0.779848	-0.587801	0.215235	0.122067	0.480044	0.868710	0	0	0
14265	0	0	0	0	0	4.449285	1.994567	8.556915	0.000492	0.004264	0.004272	-0.768799	0.052979	-0.514160	0.408326	-0.162124	-0.198399	-0.876142	13.916696	-26.494336	-133.315775	-0.613972	-0.651172	0.446109	0.779833	-0.587816	0.215252	0.122064	0.480049	0.868708	0	0	0
14266	0	0	0	0	0	4.458696	2.057662	8.530908	0.001029	0.001939	0.003057	-0.766846	0.045654	-0.512695	0.408312	-0.162124	-0.198415	-0.876144	13.918989	-26.494979	-133.317954	-0.613993	-0.651145	0.446119	0.779817	-0.587825	0.215286	0.122058	0.480075	0.868694	0	0	0
14267	0	0	0	0	0	4.444110	2.076914	8.526691	0.002579	0.004895	0.004113	-0.770508	0.047607	-0.516846	0.408300	-0.162116	-0.198428	-0.876148	13.921247	-26.494442	-133.319997	-0.614019	-0.651126	0.446111	0.779799	-0.587835	0.215321	0.122039	0.480088	0.868690	0	0	0
14268	0	0	0	0	0	4.448584	2.017234	8.521977	-0.003360	0.006961	0.007175	-0.768799	0.059082	-0.510498	0.408306	-0.162107	-0.198412	-0.876151	13.919538	-26.492861	-133.318843	-0.614015	-0.651147	0.446086	0.779803	-0.587838	0.215298	0.122036	0.480056	0.868708	0	0	0
14269	0	0	0	0	0	4.457740	2.033835	8.566984	-0.000720	0.001924	0.006587	-0.772705	0.056885	-0.511719	0.408304	-0.162120	-0.198414	-0.876149	13.919358	-26.494333	-133.319133	-0.614010	-0.651136	0.446109	0.779804	-0.587840	0.215292	0.122056	0.480069	0.868698	0	0	0
14270	0	0	0	0	0	4.448226	2.016350	8.522373	-0.001257	0.004249	0.007802	-0.764893	0.054688	-0.509277	0.408312	-0.162120	-0.198412	-0.876146	13.918867	-26.494346	-133.318007	-0.613997	-0.651148	0.446110	0.779814	-0.587828	0.215285	0.122053	0.480067	0.868699	0	0	0
14271	0	0	0	0	0	4.419176	2.031572	8.549320	0.001889	0.003570	0.004428	-0.773682	0.053467	-0.504639	0.408303	-0.162119	-0.198425	-0.876147	13.920627	-26.494653	-133.319422	-0.614012	-0.651131	0.446114	0.779804	-0.587832	0.215311	0.122044	0.480085	0.868690	0	0	0
14272	0	0	0	0	0	4.418934	2.031451	8.549474	0.000662	0.004572	0.005958	-0.771729	0.058594	-0.517334	0.408305	-0.162111	-0.198432	-0.876146	13.921724	-26.494233	-133.319392	-0.614014	-0.651134	0.446108	0.779806	-0.587823	0.215328	0.122025	0.480092	0.868690	0	0	0
14273	0	0	0	0	0	4.466648	2.028081	8.514182	-0.000904	0.004958	0.004116	-0.775146	0.049316	-0.509277	0.408291	-0.162110	-0.198429	-0.876153	13.921877	-26.493764	-133.321262	-0.614037	-0.651116	0.446100	0.779786	-0.587849	0.215332	0.122034	0.480084	0.868693	0	0	0
14274	0	0	0	0	0	4.432802	2.011649	8.554192	-0.000720	0.001924	0.006587	-0.764648	0.043457	-0.515381	0.408292	-0.162118	-0.198435	-0.876150	13.922190	-26.494903	-133.321249	-0.614031	-0.651110	0.446118	0.779790	-0.587843	0.215334	0.122041	0.480100	0.868683	0	0	0
14275	0	0	0	0	0	4.451977	2.023712	8.545530	0.000508	0.000923	0.005058	-0.772949	0.052002	-0.511719	0.408268	-0.162134	-0.198445	-0.876156	13.923328	-26.496750	-133.324537	-0.614059	-0.651064	0.446147	0.779763	-0.587873	0.215348	0.122072	0.480125	0.868664	0	0	0
14276	0	0	0	0	0	4.437524	2.042868	8.541269	0.001889	0.003570	0.004429	-0.758057	0.044922	-0.507324	0.408264	-0.162127	-0.198460	-0.876156	13.925621	-26.496676	-133.325612	-0.614071	-0.651053	0.446146	0.779757	-0.587869	0.215383	0.122049	0.480146	0.868656	0	0	0
14277	0	0	0	0	0	4.418164	2.030531	8.550091	0.003455	0.003184	0.006271	-0.762695	0.049561	-0.513916	0.408255	-0.162128	-0.198478	-0.876156	13.927913	-26.497426	-133.327184	-0.614085	-0.651032	0.446158	0.779747	-0.587869	0.215416	0.122039	0.480174	0.868642	0	0	0
14278	0	0	0	0	0	4.432443	2.034224	8.519110	0.000662	0.004572	0.005959	-0.768311	0.041504	-0.510498	0.408257	-0.162121	-0.198485	-0.876155	13.929010	-26.497006	-133.327154	-0.614087	-0.651035	0.446151	0.779749	-0.587860	0.215434	0.122020	0.480181	0.868641	0	0	0
14279	0	0	0	0	0	4.427476	2.025507	8.496909	0.000493	0.004264	0.004273	-0.768555	0.060791	-0.510010	0.408238	-0.162120	-0.198489	-0.876163	13.930131	-26.496828	-133.329791	-0.614118	-0.651008	0.446148	0.779724	-0.587887	0.215451	0.122025	0.480185	0.868638	0	0	0
14280	0	0	0	0	0	4.436668	2.065528	8.506430	0.001184	0.005588	0.003959	-0.762939	0.049072	-0.514160	0.408232	-0.162105	-0.198498	-0.876166	13.932011	-26.495567	-133.330847	-0.614137	-0.651003	0.446129	0.779714	-0.587890	0.215482	0.121995	0.480188	0.868641	0	0	0
14281	0	0	0	0	0	4.426693	2.002140	8.532768	-0.001595	0.003635	0.004431	-0.770508	0.054688	-0.517822	0.408227	-0.162108	-0.198496	-0.876168	13.931773	-26.495762	-133.331448	-0.614142	-0.650996	0.446132	0.779708	-0.587899	0.215478	0.122005	0.480186	0.868640	0	0	0
14282	0	0	0	0	0	4.435949	2.041914	8.542315	-0.000565	0.005574	0.007489	-0.765381	0.058105	-0.506104	0.408236	-0.162101	-0.198495	-0.876166	13.931673	-26.494996	-133.330313	-0.614134	-0.651012	0.446120	0.779717	-0.587887	0.215478	0.121989	0.480179	0.868646	0	0	0
14283	0	0	0	0	0	4.435679	2.064598	8.507172	-0.001439	0.007284	0.005333	-0.774170	0.048096	-0.510986	0.408238	-0.162089	-0.198485	-0.876169	13.931004	-26.493316	-133.329891	-0.614138	-0.651026	0.446093	0.779716	-0.587891	0.215471	0.121977	0.480155	0.868662	0	0	0
14284	0	0	0	0	0	4.401761	1.980300	8.519877	0.002228	0.004185	0.007803	-0.766113	0.052002	-0.513184	0.408249	-0.162082	-0.198498	-0.876163	13.932513	-26.493366	-133.328775	-0.614125	-0.651038	0.446094	0.779730	-0.587863	0.215494	0.121948	0.480173	0.868656	0	0	0
14285	0	0	0	0	0	4.454102	2.053189	8.534385	-0.004049	0.005639	0.007491	-0.767090	0.047852	-0.507568	0.408243	-0.162088	-0.198477	-0.876169	13.929975	-26.492928	-133.329023	-0.614130	-0.651038	0.446087	0.779721	-0.587889	0.215456	0.121980	0.480142	0.868668	0	0	0
14286	0	0	0	0	0	4.434416	2.017197	8.578874	-0.004387	0.005024	0.004119	-0.763428	0.054443	-0.510498	0.408233	-0.162088	-0.198463	-0.876177	13.928658	-26.492004	-133.330067	-0.614147	-0.651032	0.446073	0.779705	-0.587917	0.215438	0.121997	0.480116	0.868680	0	0	0
14287	0	0	0	0	0	4.472825	1.996532	8.498850	-0.000029	0.003248	0.006275	-0.762451	0.057129	-0.519531	0.408226	-0.162094	-0.198465	-0.876178	13.928901	-26.492719	-133.331052	-0.614154	-0.651017	0.446084	0.779698	-0.587926	0.215440	0.122009	0.480124	0.868674	0	0	0
14288	0	0	0	0	0	4.395832	2.037900	8.525864	-0.002130	0.005960	0.005648	-0.767334	0.052490	-0.512207	0.408225	-0.162086	-0.198458	-0.876182	13.928389	-26.491485	-133.331001	-0.614160	-0.651025	0.446065	0.779694	-0.587933	0.215435	0.122003	0.480105	0.868685	0	0	0
14289	0	0	0	0	0	4.471884	2.040617	8.562207	-0.002130	0.005960	0.005648	-0.775391	0.049072	-0.515381	0.408235	-0.162079	-0.198449	-0.876181	13.927347	-26.490470	-133.329539	-0.614149	-0.651046	0.446049	0.779704	-0.587925	0.215421	0.121994	0.480087	0.868697	0	0	0
14290	0	0	0	0	0	4.404787	2.009250	8.508379	-0.001425	0.003942	0.006119	-0.771240	0.044922	-0.510010	0.408235	-0.162079	-0.198448	-0.876181	13.927246	-26.490423	-133.329506	-0.614149	-0.651047	0.446048	0.779704	-0.587925	0.215419	0.121995	0.480085	0.868698	0	0	0
14291	0	0	0	0	0	4.433059	2.038188	8.544705	-0.001961	0.006268	0.007335	-0.767334	0.053223	-0.515381	0.408223	-0.162080	-0.198434	-0.876190	13.925962	-26.489644	-133.330821	-0.614168	-0.651037	0.446036	0.779686	-0.587956	0.215401	0.122015	0.480061	0.868708	0	0	0
14292	0	0	0	0	0	4.442377	2.009879	8.526951	-0.002821	0.004637	0.005962	-0.766602	0.049805	-0.518555	0.408222	-0.162080	-0.198425	-0.876192	13.925057	-26.489189	-133.330779	-0.614170	-0.651040	0.446029	0.779683	-0.587964	0.215388	0.122023	0.480046	0.868715	0	0	0
14293	0	0	0	0	0	4.417968	2.033490	8.576323	-0.001594	0.003635	0.004433	-0.769775	0.050537	-0.512695	0.408218	-0.162082	-0.198424	-0.876194	13.924876	-26.489309	-133.331261	-0.614175	-0.651034	0.446031	0.779678	-0.587972	0.215386	0.122030	0.480045	0.868715	0	0	0
14294	0	0	0	0	0	4.446696	2.017586	8.549727	-0.000383	0.002539	0.009963	-0.768311	0.053955	-0.516602	0.408234	-0.162090	-0.198427	-0.876184	13.924404	-26.490573	-133.329056	-0.614143	-0.651051	0.446051	0.779703	-0.587943	0.215376	0.122031	0.480059	0.868707	0	0	0
14295	0	0	0	0	0	4.427534	2.027847	8.523182	-0.002821	0.004637	0.005963	-0.766846	0.048096	-0.511230	0.408232	-0.162094	-0.198416	-0.876187	13.923020	-26.490417	-133.329170	-0.614145	-0.651051	0.446048	0.779698	-0.587956	0.215355	0.122050	0.480042	0.868714	0	0	0
14296	0	0	0	0	0	4.451148	2.048179	8.537129	-0.002821	0.004637	0.005963	-0.770752	0.051758	-0.525635	0.408231	-0.162093	-0.198408	-0.876189	13.922115	-26.489962	-133.329127	-0.614147	-0.651054	0.446041	0.779696	-0.587964	0.215342	0.122057	0.480028	0.868720	0	0	0
14297	0	0	0	0	0	4.446029	2.016139	8.550415	-0.001425	0.003942	0.006120	-0.770752	0.051514	-0.516113	0.408232	-0.162096	-0.198404	-0.876189	13.921572	-26.490143	-133.328869	-0.614143	-0.651055	0.446044	0.779698	-0.587965	0.215334	0.122064	0.480025	0.868721	0	0	0
14298	0	0	0	0	0	4.445847	2.015801	8.550590	-0.000029	0.003247	0.006276	-0.770508	0.051025	-0.514160	0.408233	-0.162096	-0.198411	-0.876187	13.922275	-26.490504	-133.328846	-0.614141	-0.651054	0.446049	0.779700	-0.587958	0.215344	0.122058	0.480036	0.868716	0	0	0
14299	0	0	0	0	0	4.445837	2.038588	8.515319	0.000832	0.004878	0.007650	-0.763672	0.049072	-0.514404	0.408238	-0.162094	-0.198413	-0.876185	13.922519	-26.490461	-133.328263	-0.614135	-0.651060	0.446049	0.779707	-0.587948	0.215348	0.122049	0.480040	0.868715	0	0	0
14300	0	0	0	0	0	4.426504	2.026120	8.524127	0.000169	0.000307	0.001687	-0.764893	0.054932	-0.512939	0.408216	-0.162102	-0.198431	-0.876189	13.924810	-26.491824	-133.331544	-0.614165	-0.651017	0.446070	0.779682	-0.587970	0.215380	0.122060	0.480071	0.868696	0	0	0
14301	0	0	0	0	0	4.435837	2.043030	8.568964	0.001536	0.002860	0.008120	-0.770264	0.051270	-0.510010	0.408229	-0.162106	-0.198441	-0.876180	13.925444	-26.492913	-133.330078	-0.614142	-0.651027	0.446087	0.779701	-0.587941	0.215387	0.122050	0.480093	0.868686	0	0	0
14302	0	0	0	0	0	4.416628	1.985652	8.515029	-0.000209	0.006282	0.003806	-0.773926	0.055908	-0.514160	0.408222	-0.162091	-0.198442	-0.876186	13.926520	-26.491246	-133.331122	-0.614163	-0.651025	0.446061	0.779688	-0.587951	0.215407	0.122027	0.480083	0.868694	0	0	0
14303	0	0	0	0	0	4.440420	2.029161	8.493526	-0.003513	0.003315	0.006277	-0.767578	0.056152	-0.516602	0.408212	-0.162105	-0.198430	-0.876191	13.924728	-26.491958	-133.332051	-0.614170	-0.651011	0.446072	0.779677	-0.587977	0.215378	0.122066	0.480071	0.868695	0	0	0
14304	0	0	0	0	0	4.444658	2.014293	8.551563	0.002921	0.005506	0.007494	-0.769531	0.050537	-0.518066	0.408223	-0.162090	-0.198444	-0.876185	13.926628	-26.491231	-133.330923	-0.614161	-0.651027	0.446061	0.779690	-0.587948	0.215408	0.122024	0.480085	0.868694	0	0	0
14305	0	0	0	0	0	4.372524	1.928578	8.546092	-0.000028	0.003247	0.006277	-0.775146	0.045654	-0.516846	0.408230	-0.162093	-0.198448	-0.876181	13.926831	-26.491836	-133.330145	-0.614149	-0.651032	0.446070	0.779700	-0.587934	0.215410	0.122021	0.480095	0.868688	0	0	0
14306	0	0	0	0	0	4.482554	2.106662	8.561831	0.006068	0.004824	0.004120	-0.770996	0.052002	-0.512451	0.408228	-0.162072	-0.198480	-0.876178	13.931516	-26.491023	-133.331219	-0.614165	-0.651025	0.446058	0.779697	-0.587911	0.215483	0.121957	0.480132	0.868677	0	0	0
14307	0	0	0	0	0	4.405728	2.012992	8.533835	0.006603	0.002498	0.002904	-0.766357	0.058838	-0.511230	0.408207	-0.162065	-0.198515	-0.876181	13.936590	-26.491690	-133.334987	-0.614204	-0.650981	0.446068	0.779671	-0.587918	0.215559	0.121927	0.480183	0.868653	0	0	0
14308	0	0	0	0	0	4.439081	2.006135	8.529550	0.002229	0.004183	0.007808	-0.770508	0.054199	-0.506836	0.408217	-0.162059	-0.198529	-0.876175	13.938097	-26.491743	-133.333868	-0.614191	-0.650993	0.446069	0.779686	-0.587890	0.215581	0.121898	0.480202	0.868647	0	0	0
14309	0	0	0	0	0	4.443644	2.014766	8.551979	0.005910	0.001175	0.003218	-0.757813	0.048828	-0.518311	0.408204	-0.162058	-0.198564	-0.876173	13.942644	-26.493228	-133.336439	-0.614213	-0.650957	0.446092	0.779673	-0.587883	0.215648	0.121873	0.480259	0.868618	0	0	0
14310	0	0	0	0	0	4.376487	2.120268	8.552601	0.008681	0.006467	0.001964	-0.767822	0.056152	-0.514404	0.408197	-0.162023	-0.198606	-0.876173	13.949311	-26.491204	-133.338599	-0.614248	-0.650945	0.446060	0.779660	-0.587862	0.215752	0.121779	0.480301	0.868609	0	0	0
14311	0	0	0	0	0	4.467129	2.059458	8.530360	0.001891	0.003568	0.004434	-0.764648	0.053223	-0.518799	0.408202	-0.162017	-0.198621	-0.876169	13.951105	-26.491317	-133.338298	-0.614244	-0.650948	0.446062	0.779667	-0.587843	0.215779	0.121753	0.480321	0.868601	0	0	0
14312	0	0	0	0	0	4.442960	2.038458	8.516852	-0.000732	0.005267	0.005807	-0.764893	0.053467	-0.506836	0.408202	-0.162009	-0.198620	-0.876170	13.951397	-26.490491	-133.338255	-0.614248	-0.650953	0.446049	0.779666	-0.587842	0.215785	0.121740	0.480315	0.868606	0	0	0
14313	0	0	0	0	0	4.408927	2.022056	8.556865	-0.001424	0.003944	0.006121	-0.773682	0.058594	-0.515381	0.408205	-0.162012	-0.198617	-0.876169	13.950790	-26.490722	-133.337816	-0.614242	-0.650956	0.446053	0.779670	-0.587840	0.215776	0.121747	0.480312	0.868607	0	0	0
14314	0	0	0	0	0	4.461463	2.026943	8.544036	-0.001424	0.003944	0.006121	-0.767578	0.050293	-0.503174	0.408205	-0.162012	-0.198616	-0.876169	13.950689	-26.490674	-133.337782	-0.614242	-0.650957	0.446052	0.779670	-0.587841	0.215774	0.121748	0.480311	0.868607	0	0	0
14315	0	0	0	0	0	4.461247	2.026399	8.544278	-0.004908	0.004012	0.006120	-0.765625	0.042480	-0.514160	0.408193	-0.162026	-0.198596	-0.876177	13.948076	-26.491009	-133.338869	-0.614252	-0.650943	0.446057	0.779654	-0.587877	0.215734	0.121796	0.480285	0.868615	0	0	0
14316	0	0	0	0	0	4.427657	2.056051	8.513418	0.001357	0.005894	0.005651	-0.766602	0.053711	-0.520508	0.408195	-0.162011	-0.198603	-0.876177	13.949564	-26.489812	-133.338826	-0.614258	-0.650950	0.446039	0.779654	-0.587867	0.215759	0.121763	0.480288	0.868618	0	0	0
14317	0	0	0	0	0	4.441184	1.990291	8.588912	-0.000918	0.004866	0.011183	-0.768799	0.054443	-0.513184	0.408219	-0.162014	-0.198596	-0.876167	13.947868	-26.490164	-133.335447	-0.614218	-0.650985	0.446044	0.779686	-0.587834	0.215733	0.121761	0.480281	0.868622	0	0	0
14318	0	0	0	0	0	4.450737	2.052950	8.563073	-0.002126	0.005962	0.005651	-0.769775	0.062012	-0.519287	0.408218	-0.162006	-0.198589	-0.876170	13.947356	-26.488929	-133.335394	-0.614224	-0.650992	0.446025	0.779683	-0.587841	0.215727	0.121755	0.480262	0.868633	0	0	0
14319	0	0	0	0	0	4.445754	2.044040	8.540931	-0.001592	0.003636	0.004434	-0.773682	0.052979	-0.515381	0.408221	-0.162008	-0.198587	-0.876169	13.947064	-26.489091	-133.335013	-0.614219	-0.650995	0.446027	0.779686	-0.587838	0.215722	0.121758	0.480262	0.868633	0	0	0
14320	0	0	0	0	0	4.445538	2.043676	8.541130	-0.001424	0.003944	0.006122	-0.769775	0.057617	-0.517090	0.408221	-0.162008	-0.198586	-0.876169	13.946962	-26.489044	-133.334978	-0.614218	-0.650996	0.446027	0.779686	-0.587838	0.215721	0.121758	0.480261	0.868634	0	0	0
14321	0	0	0	0	0	4.435669	2.070905	8.559433	-0.006304	0.004708	0.005963	-0.764160	0.055908	-0.510742	0.408219	-0.162018	-0.198560	-0.876174	13.943529	-26.488854	-133.334543	-0.614215	-0.651002	0.446024	0.779683	-0.587862	0.215669	0.121799	0.480224	0.868648	0	0	0
14322	0	0	0	0	0	4.449887	2.073893	8.528712	-0.005610	0.006031	0.005650	-0.770996	0.055176	-0.516113	0.408216	-0.162017	-0.198537	-0.876181	13.941016	-26.487581	-133.334480	-0.614221	-0.651010	0.446004	0.779675	-0.587885	0.215633	0.121820	0.480185	0.868667	0	0	0
14323	0	0	0	0	0	4.420711	2.020713	8.528416	-0.006135	0.005016	0.007651	-0.775146	0.059814	-0.521729	0.408223	-0.162026	-0.198510	-0.876182	13.937185	-26.487453	-133.332871	-0.614203	-0.651028	0.446002	0.779683	-0.587896	0.215576	0.121857	0.480147	0.868683	0	0	0
14324	0	0	0	0	0	4.453869	2.013013	8.524446	-0.003690	0.006351	0.003807	-0.762207	0.060791	-0.516113	0.408213	-0.162018	-0.198496	-0.876191	13.936261	-26.485748	-133.333903	-0.614224	-0.651026	0.445975	0.779666	-0.587922	0.215565	0.121860	0.480117	0.868699	0	0	0
14325	0	0	0	0	0	4.438933	2.008612	8.555872	-0.006303	0.004709	0.005964	-0.770508	0.053223	-0.512939	0.408228	-0.162024	-0.198472	-0.876189	13.932742	-26.485468	-133.331362	-0.614196	-0.651055	0.445971	0.779684	-0.587918	0.215512	0.121884	0.480083	0.868714	0	0	0
14326	0	0	0	0	0	4.405522	2.038130	8.524967	-0.000722	0.001924	0.006593	-0.760986	0.050537	-0.515869	0.408229	-0.162032	-0.198478	-0.876186	13.933050	-26.486609	-133.331345	-0.614190	-0.651049	0.445989	0.779688	-0.587912	0.215515	0.121892	0.480099	0.868705	0	0	0
14327	0	0	0	0	0	4.453158	2.011273	8.525228	-0.004046	0.005642	0.007496	-0.775391	0.052490	-0.511719	0.408234	-0.162035	-0.198458	-0.876187	13.930480	-26.486073	-133.330137	-0.614179	-0.651065	0.445980	0.779693	-0.587919	0.215477	0.121911	0.480069	0.868718	0	0	0
14328	0	0	0	0	0	4.414418	2.054086	8.570252	-0.001255	0.004250	0.007811	-0.760498	0.052734	-0.517822	0.408242	-0.162035	-0.198456	-0.876184	13.929985	-26.486089	-133.329005	-0.614166	-0.651077	0.445981	0.779704	-0.587907	0.215469	0.121908	0.480067	0.868720	0	0	0
14329	0	0	0	0	0	4.443031	2.037904	8.543814	-0.006303	0.004709	0.005965	-0.767578	0.051514	-0.510742	0.408237	-0.162045	-0.198429	-0.876190	13.926602	-26.485883	-133.329016	-0.614168	-0.651078	0.445977	0.779696	-0.587936	0.215418	0.121952	0.480030	0.868734	0	0	0
14330	0	0	0	0	0	4.438140	2.028551	8.521729	-0.006996	0.003386	0.006278	-0.769531	0.054443	-0.510742	0.408233	-0.162059	-0.198405	-0.876195	13.923302	-26.486167	-133.328970	-0.614166	-0.651077	0.445982	0.779690	-0.587963	0.215368	0.122000	0.479999	0.868745	0	0	0
14331	0	0	0	0	0	4.437631	2.004639	8.557479	-0.006302	0.004709	0.005965	-0.769287	0.053223	-0.509521	0.408221	-0.162072	-0.198378	-0.876205	13.919918	-26.486044	-133.329888	-0.614177	-0.651068	0.445980	0.779673	-0.588004	0.215316	0.122052	0.479961	0.868758	0	0	0
14332	0	0	0	0	0	4.413471	1.983080	8.544060	-0.004739	0.004320	0.007810	-0.765625	0.050537	-0.508301	0.408226	-0.162078	-0.198360	-0.876205	13.917423	-26.486020	-133.328746	-0.614164	-0.651080	0.445979	0.779680	-0.588009	0.215279	0.122076	0.479937	0.868768	0	0	0
14333	0	0	0	0	0	4.422979	2.022624	8.553622	-0.000722	0.001924	0.006594	-0.766602	0.053223	-0.509277	0.408215	-0.162093	-0.198362	-0.876207	13.917272	-26.487551	-133.330163	-0.614172	-0.651056	0.446003	0.779669	-0.588026	0.215274	0.122106	0.479950	0.868757	0	0	0
14334	0	0	0	0	0	4.432377	1.994406	8.535784	-0.002124	0.005962	0.005655	-0.763184	0.061035	-0.511230	0.408215	-0.162086	-0.198354	-0.876210	13.916759	-26.486317	-133.330108	-0.614178	-0.651064	0.445984	0.779665	-0.588033	0.215268	0.122100	0.479931	0.868768	0	0	0
14335	0	0	0	0	0	4.427453	2.053520	8.541010	-0.000365	0.002633	0.002906	-0.774170	0.055664	-0.510010	0.408203	-0.162090	-0.198360	-0.876214	13.917694	-26.486883	-133.331868	-0.614195	-0.651042	0.445993	0.779650	-0.588047	0.215281	0.122108	0.479943	0.868760	0	0	0
14336	0	0	0	0	0	4.436600	2.002248	8.558573	-0.003512	0.003317	0.006280	-0.763916	0.052490	-0.506592	0.408201	-0.162097	-0.198351	-0.876215	13.916394	-26.487207	-133.331831	-0.614193	-0.651040	0.445998	0.779649	-0.588057	0.215261	0.122129	0.479933	0.868763	0	0	0
14337	0	0	0	0	0	4.422471	2.044067	8.518997	-0.003512	0.003317	0.006280	-0.766357	0.048340	-0.511475	0.408189	-0.162111	-0.198338	-0.876221	13.914604	-26.487945	-133.333121	-0.614203	-0.651022	0.446010	0.779634	-0.588087	0.215232	0.122171	0.479920	0.868764	0	0	0
14338	0	0	0	0	0	4.441227	2.032619	8.546010	-0.004907	0.004013	0.006123	-0.764648	0.045654	-0.518066	0.408186	-0.162118	-0.198322	-0.876225	13.912501	-26.487860	-133.333074	-0.614203	-0.651023	0.446008	0.779629	-0.588104	0.215201	0.122199	0.479898	0.868772	0	0	0
14339	0	0	0	0	0	4.421822	2.019776	8.554894	-0.002117	0.002620	0.006438	-0.758789	0.048340	-0.517334	0.408179	-0.162130	-0.198317	-0.876227	13.911620	-26.488846	-133.333908	-0.614207	-0.651009	0.446024	0.779621	-0.588120	0.215185	0.122228	0.479898	0.868768	0	0	0
14340	0	0	0	0	0	4.450492	2.003728	8.528396	-0.002817	0.004639	0.005968	-0.766113	0.055420	-0.513428	0.408178	-0.162130	-0.198309	-0.876230	13.910714	-26.488391	-133.333861	-0.614209	-0.651012	0.446016	0.779619	-0.588129	0.215173	0.122235	0.479884	0.868775	0	0	0
14341	0	0	0	0	0	4.426333	1.982483	8.514893	-0.001254	0.004249	0.007814	-0.770752	0.050781	-0.512207	0.408191	-0.162132	-0.198305	-0.876224	13.909747	-26.488609	-133.331927	-0.614186	-0.651031	0.446020	0.779637	-0.588110	0.215157	0.122234	0.479880	0.868777	0	0	0
14342	0	0	0	0	0	4.440465	2.030915	8.546811	0.003120	0.002561	0.002909	-0.765137	0.052979	-0.507813	0.408180	-0.162125	-0.198329	-0.876225	13.913233	-26.488889	-133.334101	-0.614209	-0.651006	0.446024	0.779623	-0.588109	0.215210	0.122208	0.479915	0.868762	0	0	0
14343	0	0	0	0	0	4.440252	2.030701	8.546973	-0.002649	0.004946	0.007657	-0.766113	0.050537	-0.510498	0.408177	-0.162131	-0.198316	-0.876228	13.911475	-26.488867	-133.334208	-0.614211	-0.651005	0.446024	0.779618	-0.588126	0.215183	0.122233	0.479896	0.868769	0	0	0
14344	0	0	0	0	0	4.416031	2.009676	8.533447	0.002588	0.004887	0.004128	-0.766357	0.056152	-0.511475	0.408172	-0.162117	-0.198332	-0.876229	13.914159	-26.488021	-133.335266	-0.614227	-0.650999	0.446011	0.779611	-0.588120	0.215225	0.122196	0.479912	0.868765	0	0	0
14345	0	0	0	0	0	4.435017	2.021905	8.524934	0.002062	0.003871	0.006129	-0.775879	0.048096	-0.507324	0.408171	-0.162115	-0.198343	-0.876228	13.915569	-26.488345	-133.335677	-0.614230	-0.650993	0.446016	0.779610	-0.588113	0.215246	0.122184	0.479929	0.868757	0	0	0
14346	0	0	0	0	0	4.439475	2.030312	8.547469	0.002062	0.003871	0.006129	-0.770020	0.056396	-0.511963	0.408174	-0.162108	-0.198358	-0.876224	13.917466	-26.488340	-133.335649	-0.614230	-0.650993	0.446016	0.779615	-0.588097	0.215275	0.122158	0.479949	0.868750	0	0	0
14347	0	0	0	0	0	4.439233	2.030190	8.547624	0.000499	0.004261	0.004283	-0.764893	0.053467	-0.509766	0.408152	-0.162110	-0.198361	-0.876234	13.918495	-26.488301	-133.338718	-0.614265	-0.650960	0.446015	0.779585	-0.588130	0.215291	0.122169	0.479952	0.868747	0	0	0
14348	0	0	0	0	0	4.462879	2.050619	8.561593	-0.002817	0.004640	0.005969	-0.761475	0.042480	-0.516602	0.408151	-0.162109	-0.198353	-0.876236	13.917588	-26.487846	-133.338670	-0.614267	-0.650963	0.446008	0.779583	-0.588138	0.215278	0.122176	0.479938	0.868753	0	0	0
14349	0	0	0	0	0	4.443714	1.993163	8.507579	0.001535	0.002855	0.008130	-0.765381	0.045654	-0.512695	0.408156	-0.162114	-0.198362	-0.876230	13.918293	-26.488932	-133.338104	-0.614255	-0.650963	0.446025	0.779593	-0.588121	0.215286	0.122173	0.479959	0.868743	0	0	0
14350	0	0	0	0	0	4.433943	2.020776	8.525760	0.000667	0.004568	0.005972	-0.772705	0.043701	-0.510254	0.408158	-0.162107	-0.198370	-0.876229	13.919386	-26.488517	-133.338066	-0.614256	-0.650966	0.446018	0.779595	-0.588113	0.215304	0.122154	0.479965	0.868742	0	0	0
14351	0	0	0	0	0	4.404749	2.036068	8.552697	-0.002290	0.005656	0.003969	-0.768799	0.053223	-0.513184	0.408130	-0.162108	-0.198358	-0.876245	13.918923	-26.487579	-133.341644	-0.614302	-0.650933	0.446004	0.779554	-0.588168	0.215298	0.122180	0.479943	0.868750	0	0	0
14352	0	0	0	0	0	4.438024	2.028716	8.548601	0.001367	0.002548	0.006442	-0.771729	0.053467	-0.507080	0.408132	-0.162108	-0.198372	-0.876240	13.920426	-26.488353	-133.341625	-0.614298	-0.650929	0.446016	0.779560	-0.588153	0.215320	0.122168	0.479967	0.868739	0	0	0
14353	0	0	0	0	0	4.437817	2.028621	8.548731	0.002757	0.005193	0.005818	-0.771973	0.058105	-0.510010	0.408126	-0.162101	-0.198383	-0.876242	13.922231	-26.487962	-133.342767	-0.614313	-0.650919	0.446010	0.779551	-0.588154	0.215348	0.122149	0.479978	0.868735	0	0	0
14354	0	0	0	0	0	4.433302	2.043104	8.491024	0.001367	0.002549	0.006442	-0.769043	0.051025	-0.505127	0.408129	-0.162102	-0.198397	-0.876238	13.923734	-26.488736	-133.342748	-0.614308	-0.650915	0.446022	0.779556	-0.588140	0.215369	0.122136	0.480002	0.868724	0	0	0
14355	0	0	0	0	0	4.423240	2.047634	8.544605	-0.000027	0.003246	0.006285	-0.767578	0.053467	-0.514893	0.408118	-0.162110	-0.198399	-0.876241	13.923931	-26.489539	-133.344228	-0.614321	-0.650894	0.446034	0.779544	-0.588156	0.215371	0.122154	0.480010	0.868717	0	0	0
14356	0	0	0	0	0	4.437279	2.027906	8.549180	-0.002816	0.004640	0.005970	-0.768311	0.054688	-0.509033	0.408117	-0.162109	-0.198391	-0.876243	13.923024	-26.489084	-133.344180	-0.614323	-0.650897	0.446027	0.779541	-0.588164	0.215358	0.122161	0.479996	0.868724	0	0	0
14357	0	0	0	0	0	4.432347	2.019050	8.526999	0.000668	0.004568	0.005973	-0.764160	0.060547	-0.511963	0.408116	-0.162107	-0.198395	-0.876243	13.923615	-26.488994	-133.344346	-0.614325	-0.650896	0.446026	0.779540	-0.588162	0.215367	0.122154	0.480001	0.868722	0	0	0
14358	0	0	0	0	0	4.422538	2.046554	8.545228	-0.003847	0.002705	0.002904	-0.763184	0.053223	-0.506836	0.408099	-0.162114	-0.198388	-0.876251	13.923101	-26.489193	-133.346501	-0.614349	-0.650872	0.446029	0.779518	-0.588195	0.215359	0.122181	0.479993	0.868722	0	0	0
14359	0	0	0	0	0	4.450717	2.007557	8.554212	-0.000200	0.006281	0.003815	-0.773193	0.058594	-0.525635	0.408096	-0.162102	-0.198387	-0.876255	13.923625	-26.487843	-133.347021	-0.614362	-0.650874	0.446008	0.779510	-0.588201	0.215369	0.122164	0.479982	0.868731	0	0	0
14360	0	0	0	0	0	4.440727	2.035170	8.572509	-0.000895	0.004959	0.004127	-0.767822	0.052979	-0.512939	0.408088	-0.162095	-0.198388	-0.876260	13.924308	-26.486958	-133.348069	-0.614378	-0.650868	0.445994	0.779498	-0.588212	0.215381	0.122154	0.479977	0.868735	0	0	0
14361	0	0	0	0	0	4.445318	1.998575	8.532303	-0.000895	0.004959	0.004127	-0.770020	0.053711	-0.515137	0.408090	-0.162089	-0.198388	-0.876260	13.924460	-26.486293	-133.347821	-0.614379	-0.650874	0.445984	0.779499	-0.588209	0.215385	0.122143	0.479972	0.868739	0	0	0
14362	0	0	0	0	0	4.435329	2.026189	8.550599	-0.000199	0.006281	0.003815	-0.770752	0.056152	-0.510010	0.408084	-0.162073	-0.198389	-0.876266	13.925537	-26.484630	-133.348859	-0.614400	-0.650872	0.445958	0.779487	-0.588219	0.215404	0.122120	0.479963	0.868748	0	0	0
14363	0	0	0	0	0	4.416031	2.036809	8.524075	-0.000895	0.004959	0.004127	-0.766113	0.054199	-0.509521	0.408073	-0.162071	-0.198387	-0.876272	13.925709	-26.484088	-133.350248	-0.614418	-0.650860	0.445949	0.779472	-0.588238	0.215408	0.122124	0.479955	0.868751	0	0	0
14364	0	0	0	0	0	4.434565	2.025769	8.551095	0.001363	0.005890	0.005662	-0.771973	0.052002	-0.513428	0.408076	-0.162056	-0.198395	-0.876271	13.927196	-26.482897	-133.350199	-0.614424	-0.650868	0.445931	0.779472	-0.588228	0.215433	0.122091	0.479958	0.868755	0	0	0
14365	0	0	0	0	0	4.415374	2.036320	8.524533	-0.001254	0.004250	0.007817	-0.765137	0.060791	-0.507813	0.408077	-0.162062	-0.198389	-0.876271	13.926218	-26.483262	-133.349803	-0.614418	-0.650870	0.445936	0.779475	-0.588230	0.215417	0.122104	0.479952	0.868756	0	0	0
14366	0	0	0	0	0	4.434259	2.048126	8.516198	-0.002987	0.007676	0.003500	-0.767334	0.055908	-0.503906	0.408068	-0.162046	-0.198376	-0.876281	13.925688	-26.480779	-133.350821	-0.614443	-0.650873	0.445898	0.779457	-0.588255	0.215414	0.122094	0.479917	0.868776	0	0	0
14367	0	0	0	0	0	4.409479	2.003798	8.538216	-0.004210	0.005339	0.005813	-0.766113	0.053955	-0.510742	0.408062	-0.162051	-0.198356	-0.876287	13.923412	-26.480325	-133.351182	-0.614449	-0.650872	0.445890	0.779447	-0.588280	0.215380	0.122124	0.479888	0.868788	0	0	0
14368	0	0	0	0	0	4.443049	2.019337	8.498806	-0.000894	0.004959	0.004128	-0.761963	0.053223	-0.515381	0.408055	-0.162044	-0.198357	-0.876292	13.924095	-26.479440	-133.352230	-0.614466	-0.650865	0.445877	0.779436	-0.588291	0.215392	0.122114	0.479883	0.868792	0	0	0
14369	0	0	0	0	0	4.418518	2.043113	8.548130	-0.003151	0.004028	0.002593	-0.765625	0.045898	-0.512695	0.408042	-0.162046	-0.198349	-0.876299	13.923477	-26.479114	-133.353870	-0.614486	-0.650850	0.445872	0.779417	-0.588319	0.215383	0.122133	0.479870	0.868797	0	0	0
14370	0	0	0	0	0	4.432502	2.023379	8.552730	-0.001422	0.003943	0.006129	-0.763184	0.058838	-0.520996	0.408042	-0.162046	-0.198348	-0.876300	13.923373	-26.479069	-133.353831	-0.614486	-0.650850	0.445871	0.779417	-0.588320	0.215382	0.122133	0.479868	0.868798	0	0	0
14371	0	0	0	0	0	4.451603	2.035275	8.544269	-0.000028	0.003245	0.006287	-0.767334	0.048096	-0.509521	0.408050	-0.162048	-0.198353	-0.876294	13.923593	-26.479625	-133.352814	-0.614471	-0.650858	0.445880	0.779429	-0.588303	0.215384	0.122128	0.479879	0.868793	0	0	0
14372	0	0	0	0	0	4.417812	2.041884	8.548789	-0.005604	0.006037	0.005656	-0.769043	0.053467	-0.505615	0.408047	-0.162047	-0.198330	-0.876301	13.921080	-26.478351	-133.352746	-0.614477	-0.650866	0.445860	0.779421	-0.588326	0.215348	0.122148	0.479839	0.868812	0	0	0
14373	0	0	0	0	0	4.427060	2.013577	8.531039	0.000668	0.004567	0.005976	-0.767090	0.052490	-0.512695	0.408033	-0.162048	-0.198332	-0.876307	13.921734	-26.478347	-133.354667	-0.614499	-0.650846	0.445860	0.779403	-0.588347	0.215358	0.122155	0.479842	0.868810	0	0	0
14374	0	0	0	0	0	4.435927	2.030248	8.576160	-0.002986	0.007676	0.003502	-0.764160	0.054443	-0.514404	0.408024	-0.162032	-0.198319	-0.876317	13.921205	-26.475865	-133.355685	-0.614524	-0.650849	0.445821	0.779385	-0.588372	0.215355	0.122145	0.479807	0.868830	0	0	0
14375	0	0	0	0	0	4.435940	2.052936	8.541039	-0.001422	0.003943	0.006130	-0.773926	0.054443	-0.511475	0.408026	-0.162035	-0.198316	-0.876316	13.920608	-26.476086	-133.355339	-0.614519	-0.650851	0.445824	0.779388	-0.588372	0.215346	0.122152	0.479804	0.868831	0	0	0
14376	0	0	0	0	0	4.425570	1.989358	8.567285	-0.002983	0.004335	0.004283	-0.764648	0.053223	-0.515137	0.408017	-0.162035	-0.198309	-0.876322	13.920093	-26.475569	-133.356387	-0.614534	-0.650843	0.445816	0.779375	-0.588392	0.215339	0.122163	0.479791	0.868837	0	0	0
14377	0	0	0	0	0	4.430737	2.043677	8.519099	-0.000893	0.004958	0.004129	-0.769287	0.056396	-0.505859	0.408007	-0.162032	-0.198307	-0.876328	13.920283	-26.475001	-133.357709	-0.614552	-0.650832	0.445807	0.779360	-0.588409	0.215343	0.122165	0.479784	0.868840	0	0	0
14378	0	0	0	0	0	4.425401	2.011741	8.532332	-0.001254	0.004249	0.007820	-0.757813	0.052979	-0.513916	0.408015	-0.162032	-0.198304	-0.876325	13.919786	-26.475020	-133.356573	-0.614539	-0.650844	0.445808	0.779371	-0.588398	0.215335	0.122163	0.479781	0.868842	0	0	0
14379	0	0	0	0	0	4.434960	2.051378	8.541922	-0.002285	0.002315	0.004752	-0.764648	0.048584	-0.515381	0.408007	-0.162044	-0.198301	-0.876327	13.919168	-26.475997	-133.357557	-0.614545	-0.650828	0.445823	0.779362	-0.588414	0.215324	0.122190	0.479783	0.868837	0	0	0
14380	0	0	0	0	0	4.429798	2.019332	8.555087	-0.001950	0.002927	0.008131	-0.764893	0.053711	-0.514648	0.408014	-0.162051	-0.198299	-0.876323	13.918276	-26.476794	-133.356431	-0.614528	-0.650835	0.445835	0.779373	-0.588404	0.215309	0.122201	0.479785	0.868834	0	0	0
14381	0	0	0	0	0	4.429525	2.018976	8.555313	-0.000197	0.006280	0.003819	-0.764404	0.054443	-0.516357	0.408009	-0.162039	-0.198298	-0.876328	13.918897	-26.475361	-133.357218	-0.614544	-0.650835	0.445813	0.779363	-0.588413	0.215321	0.122184	0.479774	0.868843	0	0	0
14382	0	0	0	0	0	4.434006	1.982403	8.515154	0.000138	0.006892	0.007198	-0.765137	0.052979	-0.509277	0.408018	-0.162024	-0.198297	-0.876326	13.919188	-26.473823	-133.356060	-0.614539	-0.650856	0.445789	0.779371	-0.588399	0.215328	0.122154	0.479763	0.868853	0	0	0
14383	0	0	0	0	0	4.428771	2.018466	8.555823	-0.000195	0.002938	0.004599	-0.770752	0.050293	-0.514160	0.408013	-0.162028	-0.198302	-0.876327	13.919782	-26.474397	-133.356841	-0.614545	-0.650845	0.445798	0.779366	-0.588404	0.215336	0.122159	0.479774	0.868847	0	0	0
14384	0	0	0	0	0	4.428967	2.041437	8.520556	0.002758	0.005190	0.005825	-0.763184	0.051758	-0.515869	0.408016	-0.162013	-0.198317	-0.876325	13.922071	-26.473618	-133.356798	-0.614549	-0.650849	0.445786	0.779369	-0.588386	0.215372	0.122119	0.479789	0.868844	0	0	0
14385	0	0	0	0	0	4.452671	2.061990	8.534511	-0.000028	0.003245	0.006289	-0.764160	0.055176	-0.507324	0.408016	-0.162017	-0.198321	-0.876323	13.922318	-26.474244	-133.356926	-0.614547	-0.650845	0.445795	0.779370	-0.588384	0.215375	0.122123	0.479798	0.868838	0	0	0
14386	0	0	0	0	0	4.442798	2.021645	8.525244	-0.000028	0.003245	0.006289	-0.769043	0.050537	-0.514648	0.408017	-0.162018	-0.198327	-0.876321	13.923015	-26.474610	-133.356894	-0.614545	-0.650843	0.445801	0.779373	-0.588377	0.215385	0.122117	0.479809	0.868833	0	0	0
14387	0	0	0	0	0	4.447732	2.052792	8.512422	-0.003511	0.003320	0.006284	-0.762939	0.052979	-0.513428	0.408011	-0.162030	-0.198315	-0.876325	13.921235	-26.475262	-133.357438	-0.614547	-0.650833	0.445811	0.779365	-0.588397	0.215357	0.122153	0.479797	0.868835	0	0	0
