// General information: 
//  MT Manager version: 2022.2.0 
//  XDA version: 2022.2.0 build 7381 rev 124627 built on 2023-07-19
// Device information: 
//  DeviceId: 10B426EE
//  ProductCode: MTW2-3A7G6
//  Firmware Version: 4.14.0
//  Hardware Version: 3.0.0
// Device settings: 
//  Filter Profile: human(46.1)
//  Option Flags: Orientation Smoother Disabled, Position/Velocity Smoother Disabled, Continuous Zero Rotation Update Disabled, AHS Disabled, ICC Disabled
// Coordinate system: ENU
PacketCounter	SampleTimeFine	Year	Month	Day	Second	Acc_X	Acc_Y	Acc_Z	Gyr_X	Gyr_Y	Gyr_Z	Mag_X	Mag_Y	Mag_Z	Quat_q0	Quat_q1	Quat_q2	Quat_q3	Roll	Pitch	Yaw	Mat[1][1]	Mat[2][1]	Mat[3][1]	Mat[1][2]	Mat[2][2]	Mat[3][2]	Mat[1][3]	Mat[2][3]	Mat[3][3]	Vel_E	Vel_N	Vel_U
13933	0	0	0	0	0	4.462520	-2.868650	8.269143	-0.001796	0.003011	0.007924	-0.628662	0.165527	-0.435059	0.175431	-0.259793	0.106764	-0.943575	-19.159921	-26.923986	-154.308356	-0.803464	-0.386537	0.452808	0.275591	-0.915651	-0.292631	0.527727	-0.110329	0.842218	0	0	0
13934	0	0	0	0	0	4.495380	-2.862316	8.276027	0.003675	-0.000918	0.009182	-0.620605	0.160889	-0.433105	0.175458	-0.259798	0.106757	-0.943569	-19.160019	-26.924258	-154.304957	-0.803439	-0.386583	0.452812	0.275643	-0.915635	-0.292632	0.527737	-0.110297	0.842216	0	0	0
13935	0	0	0	0	0	4.461880	-2.869041	8.269353	0.001500	0.003701	0.004326	-0.620117	0.161133	-0.439209	0.175462	-0.259787	0.106755	-0.943571	-19.159536	-26.923020	-154.304904	-0.803447	-0.386588	0.452793	0.275654	-0.915633	-0.292628	0.527719	-0.110297	0.842228	0	0	0
13936	0	0	0	0	0	4.479756	-2.881431	8.280133	0.000737	0.001695	0.004847	-0.614990	0.162842	-0.446289	0.175463	-0.259785	0.106758	-0.943571	-19.159875	-26.922694	-154.304687	-0.803448	-0.386593	0.452788	0.275656	-0.915631	-0.292634	0.527717	-0.110303	0.842228	0	0	0
13937	0	0	0	0	0	4.443064	-2.857012	8.258955	0.001395	0.000372	0.005230	-0.619141	0.157715	-0.427246	0.175460	-0.259787	0.106759	-0.943571	-19.159961	-26.922925	-154.305023	-0.803449	-0.386587	0.452791	0.275648	-0.915633	-0.292634	0.527719	-0.110306	0.842226	0	0	0
13938	0	0	0	0	0	4.463464	-2.831800	8.309098	0.001825	-0.000614	0.007274	-0.614014	0.160400	-0.422852	0.175476	-0.259794	0.106758	-0.943567	-19.160565	-26.923392	-154.302845	-0.803431	-0.386616	0.452799	0.275675	-0.915622	-0.292642	0.527733	-0.110292	0.842220	0	0	0
13939	0	0	0	0	0	4.454520	-2.860193	8.291385	0.001500	0.003701	0.004325	-0.625000	0.162598	-0.439209	0.175481	-0.259784	0.106756	-0.943569	-19.160074	-26.922197	-154.302627	-0.803438	-0.386623	0.452780	0.275689	-0.915619	-0.292638	0.527715	-0.110290	0.842231	0	0	0
13940	0	0	0	0	0	4.460601	-2.869694	8.269817	0.000632	-0.001634	0.005751	-0.615234	0.170166	-0.433105	0.175488	-0.259797	0.106758	-0.943564	-19.161040	-26.923502	-154.301159	-0.803419	-0.386639	0.452800	0.275698	-0.915613	-0.292649	0.527740	-0.110284	0.842216	0	0	0
13941	0	0	0	0	0	4.472447	-2.872582	8.302138	0.005121	0.000074	0.003676	-0.618896	0.166748	-0.435791	0.175495	-0.259800	0.106736	-0.943564	-19.158672	-26.924289	-154.300819	-0.803411	-0.386641	0.452813	0.275721	-0.915618	-0.292612	0.527739	-0.110238	0.842223	0	0	0
13942	0	0	0	0	0	4.454108	-2.860040	8.291659	0.005121	0.000074	0.003676	-0.623535	0.161133	-0.430664	0.175498	-0.259803	0.106716	-0.943565	-19.156333	-26.925060	-154.300971	-0.803406	-0.386637	0.452825	0.275737	-0.915625	-0.292576	0.527738	-0.110197	0.842229	0	0	0
13943	0	0	0	0	0	4.456950	-2.838132	8.255709	0.002588	0.001392	0.006753	-0.617432	0.164307	-0.435059	0.175515	-0.259800	0.106710	-0.943563	-19.156120	-26.924599	-154.298971	-0.803396	-0.386666	0.452818	0.275773	-0.915615	-0.292574	0.527735	-0.110178	0.842233	0	0	0
13944	0	0	0	0	0	4.468570	-2.841025	8.288150	0.004236	0.001736	0.004954	-0.620605	0.163818	-0.436279	0.175522	-0.259795	0.106697	-0.943565	-19.154481	-26.924231	-154.298698	-0.803397	-0.386671	0.452812	0.275794	-0.915616	-0.292550	0.527722	-0.110151	0.842244	0	0	0
13945	0	0	0	0	0	4.474587	-2.850380	8.266670	0.000308	0.002681	0.002801	-0.625732	0.157959	-0.435303	0.175514	-0.259790	0.106699	-0.943567	-19.154352	-26.923770	-154.299784	-0.803408	-0.386658	0.452805	0.275780	-0.915620	-0.292550	0.527714	-0.110162	0.842249	0	0	0
13946	0	0	0	0	0	4.486158	-2.853298	8.299129	0.003579	0.003059	0.004570	-0.622314	0.158447	-0.429199	0.175517	-0.259780	0.106690	-0.943571	-19.152858	-26.922757	-154.300022	-0.803416	-0.386658	0.452789	0.275794	-0.915622	-0.292530	0.527693	-0.110147	0.842264	0	0	0
13947	0	0	0	0	0	4.480311	-2.859858	8.245307	0.000404	-0.001295	0.007411	-0.617432	0.163574	-0.435547	0.175533	-0.259791	0.106694	-0.943564	-19.154274	-26.923661	-154.297567	-0.803393	-0.386689	0.452803	0.275817	-0.915609	-0.292549	0.527716	-0.110141	0.842250	0	0	0
13948	0	0	0	0	0	4.425518	-2.876208	8.264057	0.000844	0.005025	0.003941	-0.626953	0.157227	-0.432617	0.175528	-0.259774	0.106698	-0.943569	-19.153986	-26.921703	-154.298602	-0.803414	-0.386681	0.452772	0.275812	-0.915610	-0.292550	0.527687	-0.110159	0.842266	0	0	0
13949	0	0	0	0	0	4.443207	-2.888457	8.274989	0.004342	0.005065	0.004049	-0.620361	0.159668	-0.431396	0.175529	-0.259754	0.106685	-0.943576	-19.151630	-26.919761	-154.299559	-0.803435	-0.386675	0.452742	0.275827	-0.915615	-0.292520	0.527648	-0.110142	0.842292	0	0	0
13950	0	0	0	0	0	4.457933	-2.869243	8.271412	0.005576	-0.000602	0.000354	-0.621826	0.161377	-0.425293	0.175517	-0.259761	0.106658	-0.943579	-19.148182	-26.921522	-154.301585	-0.803436	-0.386640	0.452770	0.275818	-0.915636	-0.292465	0.527651	-0.110095	0.842297	0	0	0
13951	0	0	0	0	0	4.487846	-2.831227	8.263865	0.003902	-0.001255	0.007519	-0.617432	0.154785	-0.434082	0.175543	-0.259770	0.106644	-0.943574	-19.147663	-26.922404	-154.298452	-0.803408	-0.386681	0.452783	0.275869	-0.915623	-0.292455	0.527666	-0.110052	0.842293	0	0	0
13952	0	0	0	0	0	4.418207	-2.866239	8.286440	0.002386	0.002040	0.003046	-0.623535	0.166992	-0.432129	0.175538	-0.259766	0.106637	-0.943576	-19.146530	-26.922230	-154.299401	-0.803416	-0.386668	0.452781	0.275865	-0.915630	-0.292439	0.527656	-0.110044	0.842300	0	0	0
13953	0	0	0	0	0	4.481110	-2.821659	8.285802	0.004034	0.002383	0.001248	-0.622559	0.160156	-0.445313	0.175527	-0.259760	0.106620	-0.943582	-19.143846	-26.922261	-154.301411	-0.803429	-0.386640	0.452781	0.275858	-0.915645	-0.292399	0.527640	-0.110019	0.842313	0	0	0
13954	0	0	0	0	0	4.472276	-2.849808	8.268118	0.001623	0.000034	0.003568	-0.624512	0.154541	-0.432129	0.175525	-0.259766	0.106616	-0.943581	-19.143485	-26.923074	-154.301620	-0.803425	-0.386634	0.452794	0.275854	-0.915648	-0.292392	0.527649	-0.110010	0.842309	0	0	0
13955	0	0	0	0	0	4.457119	-2.868687	8.272043	0.002386	0.002040	0.003046	-0.619385	0.156006	-0.440918	0.175513	-0.259761	0.106610	-0.943585	-19.142212	-26.922914	-154.303415	-0.803438	-0.386610	0.452791	0.275838	-0.915659	-0.292374	0.527637	-0.110007	0.842317	0	0	0
13956	0	0	0	0	0	4.450567	-2.859417	8.293775	-0.000683	0.001015	0.004983	-0.621094	0.152100	-0.437256	0.175514	-0.259764	0.106619	-0.943584	-19.143467	-26.922931	-154.302972	-0.803435	-0.386616	0.452792	0.275833	-0.915654	-0.292392	0.527644	-0.110023	0.842310	0	0	0
13957	0	0	0	0	0	4.456699	-2.869056	8.272141	-0.000026	-0.000309	0.005366	-0.621338	0.158936	-0.440918	0.175507	-0.259770	0.106626	-0.943582	-19.144403	-26.923577	-154.303442	-0.803434	-0.386607	0.452802	0.275814	-0.915656	-0.292404	0.527656	-0.110038	0.842301	0	0	0
13958	0	0	0	0	0	4.462760	-2.878657	8.250559	-0.002198	0.004309	0.000510	-0.627197	0.156982	-0.432861	0.175483	-0.259761	0.106640	-0.943588	-19.144983	-26.922651	-154.306409	-0.803460	-0.386569	0.452787	0.275765	-0.915667	-0.292415	0.527641	-0.110081	0.842305	0	0	0
13959	0	0	0	0	0	4.480625	-2.891065	8.261346	0.002159	0.002378	0.004707	-0.618652	0.167725	-0.435303	0.175482	-0.259754	0.106636	-0.943590	-19.144284	-26.922026	-154.306863	-0.803468	-0.386564	0.452777	0.275767	-0.915670	-0.292406	0.527628	-0.110078	0.842313	0	0	0
13960	0	0	0	0	0	4.470687	-2.850660	8.268683	-0.000146	0.003358	0.006122	-0.621582	0.166504	-0.438965	0.175487	-0.259744	0.106647	-0.943591	-19.145322	-26.920560	-154.306223	-0.803474	-0.386578	0.452755	0.275775	-0.915661	-0.292425	0.527615	-0.110098	0.842319	0	0	0
13961	0	0	0	0	0	4.457677	-2.832202	8.312067	-0.001340	0.002339	0.004599	-0.620117	0.164795	-0.438477	0.175489	-0.259742	0.106658	-0.943590	-19.146696	-26.919944	-154.305786	-0.803475	-0.386587	0.452745	0.275772	-0.915655	-0.292447	0.527615	-0.110120	0.842316	0	0	0
13962	0	0	0	0	0	4.469925	-2.851296	8.268876	-0.001996	0.003662	0.004215	-0.625488	0.164063	-0.426270	0.175483	-0.259734	0.106675	-0.943591	-19.148240	-26.918672	-154.306367	-0.803488	-0.386583	0.452725	0.275754	-0.915652	-0.292473	0.527604	-0.110158	0.842318	0	0	0
13963	0	0	0	0	0	4.466407	-2.873566	8.305049	-0.003645	0.003319	0.006013	-0.614014	0.157715	-0.434570	0.175490	-0.259729	0.106699	-0.943589	-19.151221	-26.917333	-154.304967	-0.803488	-0.386607	0.452704	0.275755	-0.915637	-0.292520	0.527603	-0.110201	0.842313	0	0	0
13964	0	0	0	0	0	4.457344	-2.849479	8.236585	-0.004516	-0.002015	0.007440	-0.619873	0.154541	-0.438721	0.175499	-0.259747	0.106727	-0.943579	-19.155637	-26.918528	-154.302394	-0.803463	-0.386639	0.452723	0.275750	-0.915619	-0.292582	0.527645	-0.110240	0.842281	0	0	0
13965	0	0	0	0	0	4.487247	-2.865148	8.279459	-0.002198	0.004310	0.000510	-0.623291	0.157227	-0.439941	0.175467	-0.259737	0.106742	-0.943586	-19.156073	-26.917594	-154.306366	-0.803496	-0.386587	0.452709	0.275687	-0.915635	-0.292591	0.527627	-0.110290	0.842286	0	0	0
13966	0	0	0	0	0	4.429204	-2.850382	8.283701	-0.000481	0.000367	0.008687	-0.617676	0.161377	-0.441406	0.175486	-0.259740	0.106755	-0.943580	-19.158293	-26.917264	-154.303538	-0.803479	-0.386627	0.452703	0.275714	-0.915616	-0.292625	0.527639	-0.110301	0.842277	0	0	0
13967	0	0	0	0	0	4.465358	-2.875303	8.305012	-0.001112	0.002000	0.002938	-0.624512	0.164307	-0.435303	0.175469	-0.259738	0.106765	-0.943582	-19.159012	-26.917110	-154.305416	-0.803493	-0.386602	0.452701	0.275678	-0.915623	-0.292636	0.527637	-0.110331	0.842274	0	0	0
13968	0	0	0	0	0	4.461885	-2.844195	8.290664	0.002387	0.002039	0.003046	-0.623291	0.154541	-0.429199	0.175464	-0.259734	0.106758	-0.943585	-19.157879	-26.916936	-154.306365	-0.803501	-0.386589	0.452698	0.275674	-0.915630	-0.292619	0.527627	-0.110323	0.842282	0	0	0
13969	0	0	0	0	0	4.431638	-2.882019	8.298423	0.000738	0.001696	0.004844	-0.626465	0.157715	-0.435303	0.175468	-0.259733	0.106760	-0.943585	-19.158132	-26.916708	-154.305874	-0.803499	-0.386596	0.452695	0.275680	-0.915626	-0.292624	0.527627	-0.110324	0.842282	0	0	0
13970	0	0	0	0	0	4.494512	-2.837748	8.297750	0.002159	0.002377	0.004707	-0.615723	0.159912	-0.432861	0.175471	-0.259727	0.106756	-0.943586	-19.157553	-26.916039	-154.305886	-0.803504	-0.386599	0.452684	0.275688	-0.915626	-0.292617	0.527615	-0.110319	0.842290	0	0	0
13971	0	0	0	0	0	4.449050	-2.841491	8.258814	0.001932	0.002715	0.006367	-0.617920	0.152588	-0.435303	0.175480	-0.259719	0.106756	-0.943587	-19.157428	-26.914930	-154.305098	-0.803506	-0.386613	0.452667	0.275707	-0.915620	-0.292618	0.527601	-0.110317	0.842299	0	0	0
13972	0	0	0	0	0	4.485304	-2.866133	8.280171	0.002935	-0.002614	0.004335	-0.624023	0.151855	-0.436035	0.175484	-0.259735	0.106744	-0.943583	-19.156778	-26.917033	-154.304283	-0.803486	-0.386618	0.452700	0.275717	-0.915622	-0.292603	0.527627	-0.110285	0.842286	0	0	0
13973	0	0	0	0	0	4.427460	-2.851130	8.284376	0.000511	0.002034	0.006505	-0.623047	0.161621	-0.434570	0.175484	-0.259730	0.106752	-0.943583	-19.157496	-26.916247	-154.304262	-0.803491	-0.386621	0.452688	0.275714	-0.915619	-0.292615	0.527621	-0.110302	0.842289	0	0	0
13974	0	0	0	0	0	4.481572	-2.835204	8.265905	0.001503	0.003701	0.004323	-0.622070	0.156494	-0.438477	0.175483	-0.259718	0.106752	-0.943587	-19.157061	-26.914934	-154.304787	-0.803504	-0.386618	0.452667	0.275716	-0.915619	-0.292613	0.527600	-0.110308	0.842301	0	0	0
13975	0	0	0	0	0	4.453766	-2.835412	8.313069	0.000858	-0.001971	0.004089	-0.618652	0.155762	-0.436035	0.175481	-0.259734	0.106750	-0.943583	-19.157367	-26.916775	-154.304535	-0.803489	-0.386615	0.452696	0.275708	-0.915622	-0.292612	0.527626	-0.110299	0.842285	0	0	0
13976	0	0	0	0	0	4.469520	-2.885340	8.284302	0.004893	0.000410	0.005336	-0.619873	0.163086	-0.437988	0.175491	-0.259734	0.106733	-0.943583	-19.155582	-26.917053	-154.303750	-0.803482	-0.386625	0.452700	0.275736	-0.915622	-0.292585	0.527623	-0.110261	0.842292	0	0	0
13977	0	0	0	0	0	4.466129	-2.853985	8.269999	0.004893	0.000410	0.005336	-0.622803	0.160889	-0.442139	0.175498	-0.259734	0.106716	-0.943584	-19.153693	-26.917341	-154.303384	-0.803478	-0.386629	0.452705	0.275758	-0.915624	-0.292557	0.527618	-0.110226	0.842300	0	0	0
13978	0	0	0	0	0	4.444586	-2.863331	8.295632	0.004237	0.001734	0.004952	-0.623535	0.161377	-0.430420	0.175504	-0.259729	0.106703	-0.943586	-19.152052	-26.916974	-154.303112	-0.803478	-0.386634	0.452699	0.275779	-0.915625	-0.292534	0.527606	-0.110200	0.842311	0	0	0
13979	0	0	0	0	0	4.465472	-2.853792	8.270420	0.002697	0.004720	0.005845	-0.626465	0.153564	-0.437256	0.175512	-0.259711	0.106700	-0.943589	-19.151172	-26.914872	-154.302871	-0.803492	-0.386645	0.452666	0.275801	-0.915621	-0.292526	0.527575	-0.110197	0.842331	0	0	0
13980	0	0	0	0	0	4.443840	-2.863063	8.296125	0.006770	0.000413	0.001877	-0.614990	0.160645	-0.434814	0.175508	-0.259711	0.106669	-0.943594	-19.147361	-26.915798	-154.304187	-0.803494	-0.386623	0.452681	0.275811	-0.915637	-0.292468	0.527566	-0.110142	0.842344	0	0	0
13981	0	0	0	0	0	4.483203	-2.865673	8.281468	0.000966	0.001358	0.003183	-0.629150	0.163330	-0.429443	0.175498	-0.259711	0.106669	-0.943595	-19.147021	-26.916000	-154.305425	-0.803501	-0.386605	0.452684	0.275793	-0.915644	-0.292462	0.527565	-0.110147	0.842344	0	0	0
13982	0	0	0	0	0	4.443362	-2.862884	8.296442	0.003354	0.003396	0.006228	-0.623535	0.157471	-0.440918	0.175509	-0.259698	0.106663	-0.943598	-19.146079	-26.914494	-154.304728	-0.803507	-0.386620	0.452660	0.275820	-0.915639	-0.292452	0.527541	-0.110135	0.842360	0	0	0
13983	0	0	0	0	0	4.452578	-2.850537	8.238796	0.000857	-0.001971	0.004089	-0.622559	0.164551	-0.431152	0.175511	-0.259714	0.106660	-0.943593	-19.146408	-26.916381	-154.303955	-0.803488	-0.386625	0.452690	0.275820	-0.915639	-0.292452	0.527570	-0.110121	0.842344	0	0	0
13984	0	0	0	0	0	4.443089	-2.863052	8.296531	0.001395	0.000372	0.005227	-0.626221	0.162354	-0.443848	0.175516	-0.259718	0.106659	-0.943591	-19.146601	-26.916699	-154.303229	-0.803481	-0.386634	0.452695	0.275829	-0.915636	-0.292454	0.527576	-0.110115	0.842341	0	0	0
13985	0	0	0	0	0	4.472919	-2.825418	8.288946	0.001395	0.000372	0.005227	-0.617432	0.162109	-0.426025	0.175524	-0.259722	0.106657	-0.943589	-19.146733	-26.917063	-154.302225	-0.803472	-0.386646	0.452700	0.275842	-0.915632	-0.292455	0.527583	-0.110106	0.842337	0	0	0
13986	0	0	0	0	0	4.463991	-2.853823	8.271209	0.000739	0.001697	0.004843	-0.617676	0.155273	-0.434570	0.175525	-0.259720	0.106660	-0.943589	-19.147070	-26.916737	-154.302011	-0.803473	-0.386651	0.452695	0.275844	-0.915629	-0.292461	0.527581	-0.110111	0.842338	0	0	0
13987	0	0	0	0	0	4.475798	-2.856684	8.303556	0.004583	-0.002273	0.002537	-0.626221	0.160400	-0.438965	0.175525	-0.259735	0.106637	-0.943587	-19.144867	-26.919065	-154.302164	-0.803457	-0.386640	0.452731	0.275851	-0.915639	-0.292423	0.527601	-0.110063	0.842332	0	0	0
13988	0	0	0	0	0	4.430562	-2.860122	8.264593	0.003153	0.004043	0.002523	-0.612061	0.163330	-0.431641	0.175517	-0.259722	0.106628	-0.943594	-19.142960	-26.917904	-154.303853	-0.803477	-0.386621	0.452713	0.275847	-0.915649	-0.292398	0.527573	-0.110055	0.842350	0	0	0
13989	0	0	0	0	0	4.463370	-2.853576	8.271630	0.002362	0.001731	0.008409	-0.625244	0.162109	-0.431641	0.175539	-0.259716	0.106627	-0.943591	-19.143273	-26.916919	-154.301386	-0.803467	-0.386659	0.452698	0.275888	-0.915634	-0.292405	0.527566	-0.110044	0.842356	0	0	0
13990	0	0	0	0	0	4.469346	-2.863004	8.250165	0.001959	0.003024	0.001000	-0.625000	0.155762	-0.426270	0.175523	-0.259709	0.106620	-0.943597	-19.141728	-26.916596	-154.303784	-0.803486	-0.386626	0.452693	0.275865	-0.915648	-0.292383	0.527550	-0.110043	0.842367	0	0	0
13991	0	0	0	0	0	4.465958	-2.831741	8.235829	0.003472	-0.000271	0.005473	-0.617188	0.161621	-0.435547	0.175538	-0.259716	0.106607	-0.943594	-19.140788	-26.917362	-154.302066	-0.803469	-0.386648	0.452705	0.275898	-0.915643	-0.292367	0.527559	-0.110007	0.842366	0	0	0
13992	0	0	0	0	0	4.444510	-2.841313	8.261319	-0.000026	-0.000308	0.005364	-0.620117	0.165527	-0.426514	0.175542	-0.259723	0.106612	-0.943590	-19.141898	-26.918023	-154.301114	-0.803457	-0.386659	0.452715	0.275900	-0.915638	-0.292382	0.527575	-0.110012	0.842355	0	0	0
13993	0	0	0	0	0	4.474495	-2.856594	8.304290	0.003700	-0.000610	0.003813	-0.614746	0.166016	-0.429932	0.175550	-0.259732	0.106596	-0.943588	-19.140441	-26.919211	-154.300280	-0.803443	-0.386666	0.452734	0.275921	-0.915639	-0.292357	0.527585	-0.109974	0.842354	0	0	0
13994	0	0	0	0	0	4.477514	-2.834693	8.268279	0.003044	0.000714	0.003428	-0.621338	0.164063	-0.433350	0.175548	-0.259733	0.106585	-0.943589	-19.139162	-26.919682	-154.300718	-0.803443	-0.386659	0.452741	0.275924	-0.915645	-0.292337	0.527585	-0.109954	0.842357	0	0	0
13995	0	0	0	0	0	4.462371	-2.853525	8.272186	0.001623	0.000034	0.003566	-0.624756	0.154785	-0.445557	0.175553	-0.259740	0.106579	-0.943587	-19.138777	-26.920556	-154.300103	-0.803433	-0.386664	0.452755	0.275933	-0.915644	-0.292329	0.527595	-0.109937	0.842352	0	0	0
13996	0	0	0	0	0	4.474015	-2.856684	8.304517	-0.001136	0.001695	0.008300	-0.618896	0.163330	-0.431152	0.175568	-0.259738	0.106595	-0.943583	-19.141139	-26.919581	-154.297789	-0.803424	-0.386700	0.452739	0.275953	-0.915627	-0.292366	0.527598	-0.109959	0.842347	0	0	0
13997	0	0	0	0	0	4.440467	-2.863373	8.297823	0.003810	0.002718	0.002906	-0.624023	0.158691	-0.433350	0.175560	-0.259729	0.106582	-0.943589	-19.138970	-26.919079	-154.299520	-0.803439	-0.386677	0.452732	0.275947	-0.915638	-0.292336	0.527578	-0.109944	0.842362	0	0	0
13998	0	0	0	0	0	4.455242	-2.844479	8.294139	-0.000883	0.001663	0.001276	-0.625977	0.168457	-0.424561	0.175542	-0.259731	0.106588	-0.943591	-19.139259	-26.919441	-154.301465	-0.803450	-0.386649	0.452737	0.275912	-0.915648	-0.292339	0.527580	-0.109964	0.842358	0	0	0
13999	0	0	0	0	0	4.461370	-2.854005	8.272561	0.001395	0.000373	0.005226	-0.626465	0.161133	-0.438965	0.175558	-0.259736	0.106584	-0.943587	-19.139426	-26.919904	-154.299480	-0.803433	-0.386675	0.452744	0.275940	-0.915639	-0.292340	0.527591	-0.109946	0.842354	0	0	0
14000	0	0	0	0	0	4.469854	-2.825873	8.290444	0.000740	0.001697	0.004842	-0.623535	0.156494	-0.434326	0.175559	-0.259735	0.106587	-0.943587	-19.139762	-26.919578	-154.299266	-0.803434	-0.386679	0.452739	0.275942	-0.915636	-0.292346	0.527589	-0.109951	0.842354	0	0	0
14001	0	0	0	0	0	4.454644	-2.844827	8.294340	0.001623	0.000034	0.003566	-0.622070	0.157715	-0.430664	0.175555	-0.259740	0.106582	-0.943587	-19.139289	-26.920447	-154.299734	-0.803431	-0.386670	0.452753	0.275935	-0.915641	-0.292337	0.527597	-0.109942	0.842350	0	0	0
14002	0	0	0	0	0	4.472688	-2.857218	8.305048	0.001395	0.000373	0.005226	-0.618408	0.163330	-0.437744	0.175560	-0.259744	0.106582	-0.943585	-19.139481	-26.920765	-154.299008	-0.803424	-0.386679	0.452758	0.275943	-0.915638	-0.292339	0.527604	-0.109937	0.842347	0	0	0
14003	0	0	0	0	0	4.460751	-2.854309	8.272789	0.002505	-0.001629	0.002290	-0.625977	0.162109	-0.438232	0.175554	-0.259758	0.106569	-0.943583	-19.138337	-26.922765	-154.299618	-0.803414	-0.386663	0.452789	0.275935	-0.915648	-0.292317	0.527624	-0.109911	0.842338	0	0	0
14004	0	0	0	0	0	4.466952	-2.864017	8.251109	-0.003979	0.000335	0.008575	-0.615234	0.158203	-0.439209	0.175567	-0.259764	0.106598	-0.943576	-19.142533	-26.922475	-154.296851	-0.803397	-0.386703	0.452784	0.275942	-0.915626	-0.292379	0.527645	-0.109955	0.842319	0	0	0
14005	0	0	0	0	0	4.439034	-2.864331	8.298260	0.003810	0.002718	0.002906	-0.622314	0.158691	-0.434326	0.175559	-0.259755	0.106585	-0.943581	-19.140372	-26.921958	-154.298556	-0.803412	-0.386681	0.452776	0.275937	-0.915637	-0.292349	0.527625	-0.109939	0.842333	0	0	0
14006	0	0	0	0	0	4.453854	-2.845531	8.294523	-0.001876	-0.000002	0.003457	-0.620850	0.156250	-0.441895	0.175552	-0.259764	0.106597	-0.943579	-19.141989	-26.922811	-154.298825	-0.803408	-0.386674	0.452790	0.275913	-0.915637	-0.292371	0.527643	-0.109962	0.842319	0	0	0
14007	0	0	0	0	0	4.484441	-2.876871	8.261958	0.000312	0.002682	0.002798	-0.618164	0.157715	-0.433350	0.175537	-0.259759	0.106601	-0.943583	-19.141781	-26.922349	-154.300796	-0.803425	-0.386648	0.452783	0.275886	-0.915646	-0.292369	0.527632	-0.109980	0.842323	0	0	0
14008	0	0	0	0	0	4.468464	-2.827045	8.290794	-0.000026	-0.000307	0.005363	-0.624756	0.164307	-0.432861	0.175541	-0.259767	0.106607	-0.943579	-19.142890	-26.923010	-154.299844	-0.803413	-0.386659	0.452793	0.275888	-0.915641	-0.292383	0.527648	-0.109985	0.842313	0	0	0
14009	0	0	0	0	0	4.462734	-2.833714	8.236898	0.001396	0.000373	0.005226	-0.632568	0.160156	-0.438232	0.175549	-0.259771	0.106605	-0.943577	-19.143010	-26.923399	-154.298817	-0.803404	-0.386673	0.452799	0.275901	-0.915636	-0.292384	0.527656	-0.109975	0.842309	0	0	0
14010	0	0	0	0	0	4.459346	-2.855599	8.273101	0.000312	0.002682	0.002797	-0.620361	0.159180	-0.429688	0.175539	-0.259766	0.106608	-0.943580	-19.142935	-26.922923	-154.300052	-0.803415	-0.386657	0.452791	0.275885	-0.915641	-0.292384	0.527647	-0.109988	0.842313	0	0	0
14011	0	0	0	0	0	4.459169	-2.855723	8.273154	0.000201	-0.000646	0.003704	-0.623535	0.160400	-0.434814	0.175538	-0.259777	0.106608	-0.943577	-19.143401	-26.924179	-154.299785	-0.803405	-0.386656	0.452811	0.275879	-0.915642	-0.292388	0.527666	-0.109985	0.842301	0	0	0
14012	0	0	0	0	0	4.444162	-2.874629	8.276950	0.002933	-0.002615	0.004334	-0.623291	0.160645	-0.430176	0.175543	-0.259794	0.106597	-0.943573	-19.142752	-26.926282	-154.298971	-0.803384	-0.386660	0.452844	0.275888	-0.915644	-0.292373	0.527693	-0.109953	0.842289	0	0	0
14013	0	0	0	0	0	4.455983	-2.824595	8.258671	0.000968	0.001358	0.003181	-0.621826	0.152588	-0.426758	0.175540	-0.259795	0.106594	-0.943573	-19.142459	-26.926541	-154.299311	-0.803385	-0.386655	0.452848	0.275884	-0.915647	-0.292368	0.527694	-0.109950	0.842289	0	0	0
14014	0	0	0	0	0	4.446269	-2.837149	8.316489	-0.001337	0.002342	0.004595	-0.628418	0.159180	-0.434570	0.175537	-0.259792	0.106607	-0.943573	-19.143855	-26.925913	-154.299383	-0.803390	-0.386656	0.452838	0.275873	-0.915643	-0.292390	0.527692	-0.109977	0.842286	0	0	0
14015	0	0	0	0	0	4.473610	-2.837375	8.269473	0.001169	0.000712	0.006885	-0.625732	0.158203	-0.433105	0.175550	-0.259794	0.106609	-0.943570	-19.144485	-26.925858	-154.297645	-0.803378	-0.386681	0.452837	0.275895	-0.915633	-0.292399	0.527698	-0.109972	0.842283	0	0	0
14016	0	0	0	0	0	4.470227	-2.859286	8.305661	0.000968	0.001358	0.003181	-0.619873	0.155518	-0.431641	0.175545	-0.259794	0.106608	-0.943571	-19.144266	-26.926028	-154.298368	-0.803382	-0.386670	0.452840	0.275885	-0.915638	-0.292396	0.527698	-0.109974	0.842283	0	0	0
14017	0	0	0	0	0	4.451836	-2.847126	8.295059	-0.000681	0.001018	0.004979	-0.625244	0.163818	-0.433594	0.175545	-0.259797	0.106617	-0.943569	-19.145405	-26.926127	-154.298036	-0.803379	-0.386674	0.452841	0.275879	-0.915634	-0.292412	0.527705	-0.109988	0.842277	0	0	0
14018	0	0	0	0	0	4.479254	-2.847264	8.248035	0.000968	0.001358	0.003181	-0.620605	0.164795	-0.431641	0.175539	-0.259798	0.106616	-0.943570	-19.145186	-26.926297	-154.298759	-0.803383	-0.386663	0.452844	0.275869	-0.915638	-0.292408	0.527705	-0.109990	0.842276	0	0	0
14019	0	0	0	0	0	4.463916	-2.866074	8.252038	0.003156	0.004041	0.002521	-0.627930	0.151123	-0.432373	0.175538	-0.259785	0.106604	-0.943575	-19.143241	-26.925220	-154.299628	-0.803396	-0.386655	0.452827	0.275878	-0.915644	-0.292383	0.527680	-0.109974	0.842294	0	0	0
14020	0	0	0	0	0	4.435973	-2.865916	8.299349	0.004466	0.001392	0.003290	-0.621338	0.160400	-0.428467	0.175537	-0.259782	0.106587	-0.943578	-19.141044	-26.925351	-154.300293	-0.803400	-0.386645	0.452829	0.275887	-0.915652	-0.292350	0.527670	-0.109944	0.842305	0	0	0
14021	0	0	0	0	0	4.457148	-2.856235	8.274066	0.005122	0.000068	0.003674	-0.617432	0.155029	-0.435303	0.175540	-0.259786	0.106565	-0.943579	-19.138587	-26.926245	-154.300386	-0.803394	-0.386641	0.452843	0.275904	-0.915659	-0.292312	0.527669	-0.109900	0.842311	0	0	0
14022	0	0	0	0	0	4.432541	-2.834445	8.285118	0.001824	-0.000612	0.007269	-0.623779	0.159424	-0.430908	0.175556	-0.259792	0.106565	-0.943574	-19.139190	-26.926713	-154.298213	-0.803376	-0.386670	0.452850	0.275931	-0.915648	-0.292319	0.527683	-0.109887	0.842304	0	0	0
14023	0	0	0	0	0	4.465572	-2.828045	8.292011	0.000968	0.001358	0.003181	-0.625000	0.156006	-0.443359	0.175548	-0.259793	0.106563	-0.943576	-19.138856	-26.926938	-154.299196	-0.803381	-0.386655	0.452854	0.275917	-0.915654	-0.292314	0.527682	-0.109889	0.842304	0	0	0
14024	0	0	0	0	0	4.477905	-2.846922	8.248885	0.002163	0.002377	0.004702	-0.625000	0.157227	-0.435303	0.175551	-0.259786	0.106560	-0.943577	-19.138274	-26.926270	-154.299210	-0.803386	-0.386657	0.452844	0.275926	-0.915654	-0.292307	0.527670	-0.109884	0.842312	0	0	0
14025	0	0	0	0	0	4.464950	-2.828196	8.292294	0.002364	0.001731	0.008405	-0.622070	0.159668	-0.433838	0.175564	-0.259780	0.106561	-0.943576	-19.138509	-26.925275	-154.297699	-0.803383	-0.386682	0.452828	0.275952	-0.915644	-0.292313	0.527661	-0.109880	0.842318	0	0	0
14026	0	0	0	0	0	4.480348	-2.878516	8.263605	-0.000480	0.000373	0.008681	-0.629150	0.165039	-0.439941	0.175583	-0.259783	0.106573	-0.943570	-19.140726	-26.924945	-154.294876	-0.803366	-0.386722	0.452823	0.275978	-0.915625	-0.292346	0.527673	-0.109892	0.842309	0	0	0
14027	0	0	0	0	0	4.434184	-2.866437	8.300125	0.001508	0.003701	0.004318	-0.626221	0.162598	-0.437012	0.175584	-0.259772	0.106573	-0.943573	-19.140213	-26.923687	-154.295188	-0.803377	-0.386722	0.452803	0.275984	-0.915625	-0.292342	0.527653	-0.109895	0.842321	0	0	0
14028	0	0	0	0	0	4.455243	-2.857022	8.274821	0.003473	-0.000272	0.005471	-0.619629	0.163574	-0.437988	0.175593	-0.259777	0.106562	-0.943572	-19.139344	-26.924308	-154.294178	-0.803366	-0.386734	0.452813	0.276005	-0.915623	-0.292328	0.527659	-0.109867	0.842321	0	0	0
14029	0	0	0	0	0	4.454924	-2.856944	8.275019	0.002503	0.005365	0.002136	-0.630127	0.165039	-0.426758	0.175584	-0.259758	0.106555	-0.943580	-19.137508	-26.922530	-154.296272	-0.803393	-0.386711	0.452785	0.275997	-0.915633	-0.292305	0.527623	-0.109869	0.842344	0	0	0
14030	0	0	0	0	0	4.475937	-2.847279	8.249830	0.004266	0.002037	-0.000414	-0.616943	0.158447	-0.434814	0.175565	-0.259754	0.106535	-0.943586	-19.134346	-26.923007	-154.299321	-0.803410	-0.386667	0.452793	0.275975	-0.915655	-0.292258	0.527608	-0.109843	0.842356	0	0	0
14031	0	0	0	0	0	4.448073	-2.847166	8.297064	0.003019	0.000407	0.008789	-0.621338	0.158447	-0.441162	0.175595	-0.259755	0.106529	-0.943581	-19.134532	-26.922748	-154.295668	-0.803387	-0.386719	0.452789	0.276033	-0.915636	-0.292261	0.527613	-0.109814	0.842357	0	0	0
14032	0	0	0	0	0	4.477908	-2.809550	8.289525	0.002818	0.001052	0.005086	-0.619629	0.154541	-0.433594	0.175601	-0.259755	0.106522	-0.943581	-19.133807	-26.922725	-154.295171	-0.803384	-0.386726	0.452788	0.276048	-0.915635	-0.292250	0.527610	-0.109798	0.842361	0	0	0
14033	0	0	0	0	0	4.453820	-2.856775	8.275672	0.000514	0.002037	0.006499	-0.623291	0.160400	-0.439209	0.175603	-0.259749	0.106529	-0.943581	-19.134552	-26.921909	-154.294891	-0.803388	-0.386733	0.452776	0.276049	-0.915630	-0.292264	0.527603	-0.109813	0.842363	0	0	0
14034	0	0	0	0	0	4.462269	-2.828883	8.293503	-0.002330	0.000679	0.006774	-0.619873	0.157959	-0.439941	0.175610	-0.259754	0.106548	-0.943576	-19.137275	-26.921771	-154.293290	-0.803378	-0.386756	0.452774	0.276050	-0.915617	-0.292304	0.527617	-0.109842	0.842351	0	0	0
14035	0	0	0	0	0	4.480283	-2.841684	8.304095	-0.001021	-0.001970	0.007543	-0.629639	0.168701	-0.434814	0.175618	-0.259769	0.106561	-0.943569	-19.139589	-26.922913	-154.291375	-0.803357	-0.386779	0.452791	0.276054	-0.915606	-0.292335	0.527647	-0.109854	0.842330	0	0	0
14036	0	0	0	0	0	4.434892	-2.845738	8.264965	-0.002444	0.004347	0.007526	-0.618896	0.160156	-0.442383	0.175627	-0.259755	0.106584	-0.943569	-19.142234	-26.920648	-154.290090	-0.803364	-0.386804	0.452756	0.276061	-0.915590	-0.292380	0.527633	-0.109899	0.842334	0	0	0
14037	0	0	0	0	0	4.470749	-2.870820	8.286417	0.000515	0.002037	0.006498	-0.624268	0.157959	-0.431641	0.175638	-0.259752	0.106590	-0.943567	-19.143063	-26.919852	-154.288708	-0.803361	-0.386826	0.452744	0.276079	-0.915580	-0.292394	0.527629	-0.109905	0.842335	0	0	0
14038	0	0	0	0	0	4.464097	-2.861644	8.308146	0.000515	0.002037	0.006498	-0.626465	0.160889	-0.436523	0.175647	-0.259747	0.106596	-0.943566	-19.143951	-26.919031	-154.287561	-0.803359	-0.386845	0.452731	0.276093	-0.915571	-0.292409	0.527624	-0.109914	0.842337	0	0	0
14039	0	0	0	0	0	4.451979	-2.858795	8.275965	0.003045	0.000712	0.003427	-0.618164	0.161133	-0.435791	0.175647	-0.259750	0.106584	-0.943567	-19.142576	-26.919592	-154.287840	-0.803357	-0.386839	0.452740	0.276098	-0.915576	-0.292387	0.527625	-0.109891	0.842340	0	0	0
14040	0	0	0	0	0	4.451746	-2.858788	8.276093	0.002591	0.001391	0.006745	-0.621094	0.157471	-0.427979	0.175660	-0.259746	0.106581	-0.943566	-19.142403	-26.919074	-154.286407	-0.803351	-0.386861	0.452732	0.276125	-0.915568	-0.292386	0.527620	-0.109878	0.842345	0	0	0
14041	0	0	0	0	0	4.506059	-2.842971	8.257601	0.000969	0.001358	0.003180	-0.625488	0.163818	-0.438477	0.175655	-0.259747	0.106579	-0.943566	-19.142096	-26.919310	-154.286995	-0.803353	-0.386852	0.452735	0.276118	-0.915572	-0.292381	0.527620	-0.109877	0.842344	0	0	0
14042	0	0	0	0	0	4.433093	-2.846755	8.265579	-0.000480	0.000374	0.008679	-0.623535	0.153320	-0.436523	0.175674	-0.259751	0.106592	-0.943560	-19.144312	-26.918979	-154.284173	-0.803336	-0.386893	0.452730	0.276144	-0.915554	-0.292415	0.527632	-0.109889	0.842336	0	0	0
14043	0	0	0	0	0	4.451095	-2.859420	8.276224	0.000628	-0.001630	0.005746	-0.632568	0.155273	-0.434814	0.175678	-0.259764	0.106593	-0.943556	-19.145157	-26.920324	-154.283129	-0.803320	-0.386903	0.452751	0.276147	-0.915550	-0.292424	0.527656	-0.109884	0.842321	0	0	0
14044	0	0	0	0	0	4.462828	-2.862586	8.308503	-0.000680	0.001019	0.004977	-0.615234	0.163574	-0.440430	0.175679	-0.259766	0.106603	-0.943554	-19.146408	-26.920340	-154.282692	-0.803317	-0.386909	0.452751	0.276142	-0.915545	-0.292442	0.527663	-0.109900	0.842315	0	0	0
14045	0	0	0	0	0	4.457121	-2.869438	8.254542	-0.001021	-0.001969	0.007542	-0.625000	0.157227	-0.436279	0.175690	-0.259782	0.106614	-0.943546	-19.148733	-26.921523	-154.280415	-0.803293	-0.386937	0.452770	0.276151	-0.915533	-0.292473	0.527694	-0.109908	0.842294	0	0	0
14046	0	0	0	0	0	4.459433	-2.832177	8.293905	-0.000480	0.000374	0.008678	-0.619385	0.158936	-0.430176	0.175709	-0.259785	0.106627	-0.943541	-19.150948	-26.921193	-154.277594	-0.803276	-0.386978	0.452765	0.276178	-0.915514	-0.292506	0.527706	-0.109920	0.842285	0	0	0
14047	0	0	0	0	0	4.465398	-2.841914	8.272352	0.000088	0.003022	0.004454	-0.627686	0.155762	-0.429443	0.175707	-0.259778	0.106633	-0.943542	-19.151317	-26.920293	-154.277971	-0.803285	-0.386975	0.452751	0.276172	-0.915513	-0.292514	0.527695	-0.109935	0.842290	0	0	0
14048	0	0	0	0	0	4.437447	-2.842254	8.319458	-0.001902	-0.000305	0.008816	-0.625977	0.156494	-0.436035	0.175725	-0.259786	0.106651	-0.943535	-19.154449	-26.920304	-154.274924	-0.803264	-0.387018	0.452751	0.276192	-0.915492	-0.292560	0.527716	-0.109957	0.842274	0	0	0
14049	0	0	0	0	0	4.468095	-2.821115	8.236181	-0.003752	0.000002	0.006910	-0.629639	0.159424	-0.437744	0.175731	-0.259795	0.106676	-0.943528	-19.157962	-26.920622	-154.273165	-0.803250	-0.387042	0.452756	0.276186	-0.915478	-0.292611	0.527740	-0.109995	0.842254	0	0	0
14050	0	0	0	0	0	4.449621	-2.862314	8.276017	-0.003752	0.000002	0.006910	-0.624023	0.158936	-0.430420	0.175737	-0.259804	0.106701	-0.943522	-19.161602	-26.920824	-154.271339	-0.803237	-0.387067	0.452759	0.276181	-0.915463	-0.292664	0.527764	-0.110035	0.842233	0	0	0
14051	0	0	0	0	0	4.437414	-2.860046	8.243681	-0.003436	0.002685	0.009705	-0.622559	0.166260	-0.436279	0.175757	-0.259799	0.106729	-0.943516	-19.165474	-26.919147	-154.268209	-0.803227	-0.387116	0.452733	0.276203	-0.915436	-0.292725	0.527767	-0.110079	0.842226	0	0	0
14052	0	0	0	0	0	4.461577	-2.882547	8.232627	-0.004520	-0.002001	0.007432	-0.622559	0.162109	-0.428955	0.175766	-0.259818	0.106757	-0.943506	-19.169888	-26.920335	-154.265644	-0.803202	-0.387148	0.452751	0.276198	-0.915418	-0.292787	0.527809	-0.110118	0.842195	0	0	0
14053	0	0	0	0	0	4.442598	-2.854681	8.297415	-0.000880	0.001665	0.001274	-0.616699	0.158447	-0.429932	0.175756	-0.259821	0.106761	-0.943507	-19.170140	-26.920778	-154.266764	-0.803206	-0.387131	0.452758	0.276176	-0.915424	-0.292790	0.527814	-0.110130	0.842190	0	0	0
14054	0	0	0	0	0	4.457446	-2.836137	8.293619	-0.000479	0.000373	0.008677	-0.627441	0.158203	-0.434814	0.175774	-0.259824	0.106774	-0.943501	-19.172355	-26.920447	-154.263943	-0.803189	-0.387172	0.452753	0.276202	-0.915405	-0.292823	0.527825	-0.110141	0.842181	0	0	0
14055	0	0	0	0	0	4.450792	-2.827064	8.315318	-0.000137	0.003362	0.006112	-0.614014	0.160889	-0.433594	0.175780	-0.259815	0.106783	-0.943501	-19.173278	-26.919058	-154.263310	-0.803195	-0.387185	0.452731	0.276210	-0.915398	-0.292840	0.527813	-0.110159	0.842187	0	0	0
14056	0	0	0	0	0	4.487489	-2.868062	8.261165	-0.002102	0.000341	0.005113	-0.615967	0.160645	-0.436523	0.175780	-0.259822	0.106798	-0.943498	-19.175447	-26.919415	-154.262646	-0.803188	-0.387193	0.452737	0.276199	-0.915391	-0.292871	0.527829	-0.110185	0.842173	0	0	0
14057	0	0	0	0	0	4.441506	-2.856164	8.297489	-0.003751	0.000003	0.006909	-0.624268	0.153320	-0.432861	0.175784	-0.259830	0.106824	-0.943492	-19.178993	-26.919599	-154.261176	-0.803177	-0.387213	0.452740	0.276189	-0.915377	-0.292923	0.527851	-0.110227	0.842154	0	0	0
14058	0	0	0	0	0	4.453732	-2.875687	8.254197	-0.003435	0.002685	0.009704	-0.625000	0.163086	-0.443359	0.175802	-0.259825	0.106854	-0.943487	-19.182963	-26.917824	-154.258220	-0.803169	-0.387261	0.452712	0.276208	-0.915352	-0.292986	0.527853	-0.110275	0.842147	0	0	0
14059	0	0	0	0	0	4.462150	-2.848048	8.271995	-0.002329	0.000681	0.006771	-0.612305	0.158936	-0.436035	0.175805	-0.259829	0.106873	-0.943483	-19.185549	-26.917713	-154.257251	-0.803163	-0.387275	0.452710	0.276200	-0.915342	-0.293024	0.527866	-0.110308	0.842134	0	0	0
14060	0	0	0	0	0	4.431582	-2.885943	8.279757	0.002709	0.004717	0.005837	-0.622314	0.166504	-0.425049	0.175812	-0.259810	0.106871	-0.943487	-19.184741	-26.915565	-154.257072	-0.803178	-0.387285	0.452677	0.276220	-0.915338	-0.293018	0.527834	-0.110307	0.842154	0	0	0
14061	0	0	0	0	0	4.446359	-2.867356	8.276024	-0.001022	-0.001970	0.007540	-0.621582	0.159180	-0.429932	0.175831	-0.259827	0.106880	-0.943478	-19.187131	-26.916777	-154.253831	-0.803147	-0.387326	0.452696	0.276244	-0.915320	-0.293050	0.527867	-0.110307	0.842133	0	0	0
14062	0	0	0	0	0	4.446103	-2.867565	8.276090	0.003363	0.003392	0.006221	-0.621826	0.161621	-0.434570	0.175842	-0.259814	0.106874	-0.943480	-19.186181	-26.915274	-154.253139	-0.803153	-0.387341	0.452672	0.276271	-0.915315	-0.293040	0.527844	-0.110295	0.842149	0	0	0
14063	0	0	0	0	0	4.445795	-2.867514	8.276273	0.003046	0.000709	0.003426	-0.619629	0.158203	-0.438721	0.175842	-0.259816	0.106862	-0.943481	-19.184819	-26.915826	-154.253307	-0.803150	-0.387337	0.452681	0.276278	-0.915320	-0.293018	0.527845	-0.110272	0.842152	0	0	0
14064	0	0	0	0	0	4.475785	-2.829731	8.268789	0.004469	0.001387	0.003288	-0.619141	0.153564	-0.437500	0.175842	-0.259813	0.106845	-0.943483	-19.182621	-26.915961	-154.253971	-0.803154	-0.387327	0.452683	0.276287	-0.915328	-0.292986	0.527835	-0.110242	0.842162	0	0	0
14065	0	0	0	0	0	4.460516	-2.848517	8.272715	0.001824	-0.000614	0.007264	-0.622803	0.154785	-0.433105	0.175847	-0.259818	0.106846	-0.943481	-19.183055	-26.916411	-154.253040	-0.803144	-0.387338	0.452690	0.276296	-0.915323	-0.292991	0.527844	-0.110237	0.842157	0	0	0
14066	0	0	0	0	0	4.463343	-2.879728	8.287319	0.004243	0.001727	0.004946	-0.624756	0.158691	-0.433594	0.175854	-0.259813	0.106832	-0.943483	-19.181410	-26.916050	-154.252770	-0.803145	-0.387343	0.452684	0.276317	-0.915324	-0.292968	0.527832	-0.110211	0.842168	0	0	0
14067	0	0	0	0	0	4.444937	-2.867386	8.276778	0.001171	0.000711	0.006880	-0.620605	0.161865	-0.439453	0.175864	-0.259815	0.106835	-0.943480	-19.182024	-26.915956	-154.251376	-0.803136	-0.387363	0.452683	0.276334	-0.915316	-0.292977	0.527837	-0.110208	0.842165	0	0	0
14068	0	0	0	0	0	4.481336	-2.839320	8.247511	0.001080	-0.002311	0.002427	-0.624512	0.162354	-0.427979	0.175857	-0.259833	0.106829	-0.943477	-19.181884	-26.918253	-154.251783	-0.803123	-0.387350	0.452719	0.276319	-0.915324	-0.292969	0.527866	-0.110195	0.842149	0	0	0
14069	0	0	0	0	0	4.429647	-2.886404	8.280632	0.002367	0.001729	0.008400	-0.618652	0.156982	-0.435059	0.175881	-0.259828	0.106828	-0.943474	-19.182196	-26.917308	-154.249016	-0.803111	-0.387392	0.452704	0.276364	-0.915308	-0.292976	0.527860	-0.110181	0.842154	0	0	0
14070	0	0	0	0	0	4.432606	-2.864520	8.244714	0.006119	0.001724	0.001492	-0.621094	0.159912	-0.435303	0.175874	-0.259823	0.106801	-0.943480	-19.178526	-26.917598	-154.250841	-0.803121	-0.387365	0.452709	0.276368	-0.915324	-0.292921	0.527842	-0.110137	0.842171	0	0	0
14071	0	0	0	0	0	4.456108	-2.870222	8.309476	0.000970	0.001357	0.003179	-0.626221	0.153320	-0.431885	0.175864	-0.259823	0.106800	-0.943482	-19.178186	-26.917792	-154.252020	-0.803128	-0.387348	0.452712	0.276351	-0.915331	-0.292916	0.527841	-0.110141	0.842171	0	0	0
14072	0	0	0	0	0	4.465480	-2.857811	8.251855	0.005122	0.000061	0.003672	-0.625000	0.159912	-0.433350	0.175867	-0.259826	0.106780	-0.943483	-19.175846	-26.918572	-154.252172	-0.803123	-0.387343	0.452724	0.276367	-0.915338	-0.292879	0.527840	-0.110100	0.842178	0	0	0
14073	0	0	0	0	0	4.452667	-2.838756	8.295290	0.003590	0.003052	0.004561	-0.620605	0.161621	-0.430420	0.175870	-0.259815	0.106769	-0.943486	-19.174217	-26.917674	-154.252504	-0.803132	-0.387341	0.452710	0.276380	-0.915341	-0.292858	0.527819	-0.110083	0.842193	0	0	0
14074	0	0	0	0	0	4.458655	-2.848037	8.273883	0.004469	0.001386	0.003288	-0.624268	0.162109	-0.429199	0.175869	-0.259813	0.106752	-0.943489	-19.172018	-26.917808	-154.253169	-0.803135	-0.387332	0.452712	0.276389	-0.915348	-0.292825	0.527809	-0.110053	0.842203	0	0	0
14075	0	0	0	0	0	4.498095	-2.850897	8.259210	0.002503	-0.001633	0.002289	-0.627441	0.162598	-0.437744	0.175870	-0.259828	0.106738	-0.943486	-19.170913	-26.919881	-154.252909	-0.803119	-0.387328	0.452744	0.276394	-0.915354	-0.292803	0.527832	-0.110020	0.842193	0	0	0
14076	0	0	0	0	0	4.443284	-2.866730	8.277893	0.001715	0.003055	0.008015	-0.624512	0.162842	-0.438477	0.175887	-0.259817	0.106742	-0.943486	-19.171432	-26.918224	-154.251057	-0.803118	-0.387360	0.452718	0.276427	-0.915340	-0.292815	0.527816	-0.110022	0.842203	0	0	0
14077	0	0	0	0	0	4.458100	-2.847940	8.274216	0.003273	0.000369	0.001767	-0.623535	0.159180	-0.435547	0.175879	-0.259821	0.106727	-0.943488	-19.169520	-26.919235	-154.252336	-0.803119	-0.387338	0.452734	0.276419	-0.915352	-0.292785	0.527818	-0.109997	0.842205	0	0	0
14078	0	0	0	0	0	4.457996	-2.847964	8.274264	-0.000026	-0.000305	0.005358	-0.622314	0.158691	-0.430420	0.175883	-0.259829	0.106732	-0.943484	-19.170628	-26.919895	-154.251387	-0.803108	-0.387349	0.452744	0.276421	-0.915347	-0.292799	0.527834	-0.110001	0.842194	0	0	0
14079	0	0	0	0	0	4.454815	-2.816957	8.259781	0.001397	0.000372	0.005221	-0.618652	0.165039	-0.434814	0.175888	-0.259833	0.106730	-0.943482	-19.170717	-26.920293	-154.250602	-0.803100	-0.387359	0.452751	0.276431	-0.915344	-0.292799	0.527841	-0.109993	0.842191	0	0	0
14080	0	0	0	0	0	4.448844	-2.876504	8.256548	0.001397	0.000372	0.005221	-0.621094	0.158447	-0.428223	0.175893	-0.259837	0.106729	-0.943480	-19.170907	-26.920613	-154.249879	-0.803093	-0.387368	0.452756	0.276439	-0.915341	-0.292801	0.527847	-0.109987	0.842188	0	0	0
14081	0	0	0	0	0	4.463704	-2.857814	8.252815	0.000318	0.002683	0.002793	-0.626953	0.154053	-0.434326	0.175888	-0.259832	0.106731	-0.943482	-19.170768	-26.920209	-154.250605	-0.803101	-0.387359	0.452749	0.276431	-0.915344	-0.292800	0.527840	-0.109994	0.842191	0	0	0
14082	0	0	0	0	0	4.442143	-2.867289	8.278312	0.000200	-0.000645	0.003700	-0.618896	0.163086	-0.439453	0.175885	-0.259843	0.106733	-0.943480	-19.171323	-26.921366	-154.250591	-0.803092	-0.387356	0.452767	0.276421	-0.915345	-0.292805	0.527858	-0.109996	0.842180	0	0	0
14083	0	0	0	0	0	4.472122	-2.829973	8.270688	-0.001558	0.002686	0.006247	-0.628662	0.166504	-0.429199	0.175886	-0.259837	0.106749	-0.943480	-19.173141	-26.920266	-154.250262	-0.803098	-0.387364	0.452750	0.276414	-0.915338	-0.292835	0.527853	-0.110029	0.842179	0	0	0
14084	0	0	0	0	0	4.474905	-2.861410	8.285234	-0.000226	0.000340	0.001658	-0.620361	0.163574	-0.434082	0.175872	-0.259844	0.106752	-0.943480	-19.173284	-26.921273	-154.251696	-0.803101	-0.387340	0.452766	0.276385	-0.915346	-0.292835	0.527864	-0.110038	0.842170	0	0	0
14085	0	0	0	0	0	4.456605	-2.849279	8.274560	-0.000478	0.000376	0.008674	-0.629639	0.161133	-0.432617	0.175900	-0.259849	0.106761	-0.943472	-19.175481	-26.921054	-154.247645	-0.803075	-0.387398	0.452762	0.276431	-0.915322	-0.292867	0.527880	-0.110037	0.842161	0	0	0
14086	0	0	0	0	0	4.456416	-2.849646	8.274535	-0.001876	0.000004	0.003453	-0.619873	0.153320	-0.433838	0.175893	-0.259858	0.106773	-0.943470	-19.177096	-26.921906	-154.247917	-0.803071	-0.387391	0.452776	0.276408	-0.915322	-0.292889	0.527898	-0.110060	0.842146	0	0	0
14087	0	0	0	0	0	4.422976	-2.856358	8.267686	-0.001331	0.002346	0.004589	-0.621338	0.164063	-0.437012	0.175889	-0.259856	0.106785	-0.943470	-19.178361	-26.921368	-154.248156	-0.803076	-0.387390	0.452767	0.276395	-0.915320	-0.292909	0.527897	-0.110086	0.842144	0	0	0
14088	0	0	0	0	0	4.459043	-2.881548	8.289000	-0.002872	-0.001659	0.005633	-0.622559	0.156494	-0.436035	0.175892	-0.259872	0.106803	-0.943463	-19.181304	-26.922709	-154.246755	-0.803057	-0.387405	0.452788	0.276384	-0.915310	-0.292949	0.527931	-0.110111	0.842119	0	0	0
14089	0	0	0	0	0	4.462133	-2.860066	8.252884	0.002168	0.002374	0.004698	-0.618896	0.153076	-0.436279	0.175892	-0.259866	0.106800	-0.943465	-19.180612	-26.922063	-154.247081	-0.803064	-0.387402	0.452778	0.276388	-0.915312	-0.292940	0.527919	-0.110107	0.842127	0	0	0
14090	0	0	0	0	0	4.455511	-2.850757	8.274640	0.000519	0.002038	0.006493	-0.619141	0.157959	-0.431396	0.175901	-0.259862	0.106806	-0.943463	-19.181495	-26.921242	-154.245938	-0.803062	-0.387421	0.452765	0.276402	-0.915303	-0.292955	0.527914	-0.110116	0.842129	0	0	0
14091	0	0	0	0	0	4.452165	-2.819849	8.260223	-0.001331	0.002346	0.004588	-0.624756	0.161865	-0.430176	0.175891	-0.259858	0.106820	-0.943465	-19.182732	-26.920641	-154.246833	-0.803072	-0.387411	0.452756	0.276379	-0.915303	-0.292975	0.527911	-0.110148	0.842127	0	0	0
14092	0	0	0	0	0	4.473113	-2.863696	8.285412	0.000627	-0.001631	0.005742	-0.613281	0.157471	-0.431641	0.175899	-0.259871	0.106822	-0.943459	-19.183698	-26.921946	-154.245371	-0.803053	-0.387427	0.452776	0.276387	-0.915297	-0.292986	0.527936	-0.110142	0.842112	0	0	0
14093	0	0	0	0	0	4.427904	-2.867483	8.246210	-0.002328	0.000684	0.006768	-0.621094	0.163086	-0.441895	0.175908	-0.259876	0.106839	-0.943454	-19.186333	-26.921875	-154.243544	-0.803041	-0.387453	0.452775	0.276393	-0.915283	-0.293025	0.527951	-0.110167	0.842099	0	0	0
14094	0	0	0	0	0	4.469796	-2.833259	8.270820	-0.001875	0.000004	0.003453	-0.629883	0.164063	-0.430176	0.175901	-0.259885	0.106851	-0.943452	-19.187948	-26.922727	-154.243817	-0.803037	-0.387446	0.452788	0.276369	-0.915283	-0.293046	0.527969	-0.110190	0.842085	0	0	0
14095	0	0	0	0	0	4.463796	-2.893115	8.267464	-0.001901	-0.000301	0.008810	-0.633789	0.162354	-0.442383	0.175922	-0.259894	0.106869	-0.943443	-19.191019	-26.922796	-154.240321	-0.803013	-0.387495	0.452789	0.276397	-0.915261	-0.293091	0.527992	-0.110207	0.842068	0	0	0
14096	0	0	0	0	0	4.454267	-2.852829	8.274596	0.000745	0.001697	0.004835	-0.618164	0.161621	-0.434570	0.175924	-0.259892	0.106872	-0.943443	-19.191350	-26.922471	-154.240113	-0.803014	-0.387499	0.452784	0.276398	-0.915258	-0.293097	0.527989	-0.110212	0.842069	0	0	0
14097	0	0	0	0	0	4.478379	-2.874835	8.263754	0.000745	0.001697	0.004835	-0.621338	0.159668	-0.434814	0.175925	-0.259890	0.106874	-0.943443	-19.191586	-26.922178	-154.240026	-0.803015	-0.387501	0.452780	0.276399	-0.915257	-0.293101	0.527987	-0.110217	0.842070	0	0	0
14098	0	0	0	0	0	4.465547	-2.856092	8.307089	0.000745	0.001697	0.004835	-0.625000	0.154785	-0.435059	0.175926	-0.259888	0.106877	-0.943443	-19.191916	-26.921853	-154.239818	-0.803016	-0.387505	0.452775	0.276401	-0.915255	-0.293107	0.527985	-0.110222	0.842071	0	0	0
14099	0	0	0	0	0	4.438387	-2.872117	8.278652	-0.000026	-0.000305	0.005357	-0.629150	0.153076	-0.431152	0.175926	-0.259896	0.106882	-0.943441	-19.192885	-26.922566	-154.239384	-0.803008	-0.387509	0.452786	0.276395	-0.915252	-0.293119	0.528000	-0.110229	0.842061	0	0	0
14100	0	0	0	0	0	4.465015	-2.856462	8.307248	0.000865	0.005025	0.003928	-0.614990	0.159424	-0.429932	0.175922	-0.259879	0.106886	-0.943446	-19.192580	-26.920612	-154.240429	-0.803029	-0.387501	0.452755	0.276391	-0.915254	-0.293120	0.527970	-0.110246	0.842077	0	0	0
14101	0	0	0	0	0	4.444053	-2.881750	8.257298	0.004125	-0.001604	0.005851	-0.612549	0.167480	-0.433105	0.175934	-0.259889	0.106871	-0.943442	-19.191441	-26.921985	-154.239009	-0.803010	-0.387516	0.452777	0.276417	-0.915252	-0.293100	0.527986	-0.110206	0.842072	0	0	0
14102	0	0	0	0	0	4.485800	-2.847172	8.282125	0.000213	0.006351	0.003543	-0.620117	0.164063	-0.442383	0.175926	-0.259867	0.106879	-0.943449	-19.191276	-26.919386	-154.240568	-0.803039	-0.387503	0.452736	0.276406	-0.915254	-0.293104	0.527947	-0.110235	0.842093	0	0	0
14103	0	0	0	0	0	4.452101	-2.853659	8.275475	0.002595	0.001388	0.006739	-0.627441	0.160889	-0.426514	0.175940	-0.259863	0.106875	-0.943448	-19.191058	-26.918818	-154.239070	-0.803033	-0.387526	0.452728	0.276435	-0.915246	-0.293102	0.527942	-0.110221	0.842098	0	0	0
14104	0	0	0	0	0	4.470003	-2.866123	8.286251	0.001624	0.000031	0.003562	-0.619385	0.164063	-0.432373	0.175937	-0.259869	0.106870	-0.943447	-19.190695	-26.919635	-154.239283	-0.803028	-0.387520	0.452740	0.276431	-0.915249	-0.293095	0.527950	-0.110212	0.842094	0	0	0
14105	0	0	0	0	0	4.484922	-2.847399	8.282522	0.002595	0.001388	0.006739	-0.622070	0.163330	-0.433594	0.175959	-0.259868	0.106864	-0.943444	-19.190480	-26.919254	-154.236747	-0.803014	-0.387557	0.452734	0.276475	-0.915237	-0.293093	0.527949	-0.110188	0.842098	0	0	0
14106	0	0	0	0	0	4.433287	-2.841334	8.265141	0.004245	0.001724	0.004944	-0.631348	0.163818	-0.436279	0.175966	-0.259863	0.106850	-0.943446	-19.188832	-26.918895	-154.236477	-0.803015	-0.387562	0.452729	0.276496	-0.915238	-0.293069	0.527937	-0.110161	0.842109	0	0	0
14107	0	0	0	0	0	4.442145	-2.881850	8.258290	0.004791	0.004066	0.006079	-0.625977	0.152100	-0.434082	0.175983	-0.259847	0.106836	-0.943449	-19.186906	-26.917143	-154.235351	-0.803019	-0.387584	0.452702	0.276540	-0.915232	-0.293045	0.527907	-0.110131	0.842132	0	0	0
14108	0	0	0	0	0	4.456853	-2.863026	8.254711	0.002170	0.002374	0.004696	-0.621582	0.162354	-0.433594	0.175985	-0.259840	0.106833	-0.943451	-19.186318	-26.916479	-154.235369	-0.803024	-0.387586	0.452691	0.276548	-0.915232	-0.293039	0.527895	-0.110126	0.842140	0	0	0
14109	0	0	0	0	0	4.465313	-2.834807	8.272711	0.003367	0.003390	0.006216	-0.619629	0.155518	-0.433594	0.175993	-0.259827	0.106826	-0.943453	-19.185229	-26.915052	-154.235021	-0.803032	-0.387596	0.452669	0.276570	-0.915229	-0.293026	0.527872	-0.110115	0.842156	0	0	0
14110	0	0	0	0	0	4.474141	-2.875543	8.265804	0.002370	0.001729	0.008395	-0.624756	0.161377	-0.435547	0.176014	-0.259822	0.106826	-0.943451	-19.185604	-26.914040	-154.232659	-0.803023	-0.387632	0.452653	0.276609	-0.915215	-0.293034	0.527864	-0.110105	0.842161	0	0	0
14111	0	0	0	0	0	4.449340	-2.853479	8.277022	0.008091	0.004737	0.002488	-0.625000	0.155273	-0.438721	0.176010	-0.259801	0.106793	-0.943461	-19.180669	-26.912562	-154.234848	-0.803049	-0.387606	0.452630	0.276627	-0.915232	-0.292966	0.527817	-0.110056	0.842198	0	0	0
14112	0	0	0	0	0	4.455254	-2.862488	8.255760	0.005895	0.002059	0.003148	-0.620850	0.161133	-0.440918	0.176010	-0.259793	0.106770	-0.943466	-19.177551	-26.912359	-154.235739	-0.803056	-0.387595	0.452627	0.276642	-0.915241	-0.292920	0.527797	-0.110016	0.842215	0	0	0
14113	0	0	0	0	0	4.451608	-2.883820	8.292206	0.006667	0.004061	0.002626	-0.625977	0.161133	-0.429199	0.175999	-0.259775	0.106746	-0.943476	-19.173503	-26.911155	-154.238423	-0.803083	-0.387561	0.452608	0.276642	-0.915259	-0.292864	0.527757	-0.109984	0.842245	0	0	0
14114	0	0	0	0	0	4.481439	-2.845780	8.284964	0.008091	0.004736	0.002488	-0.621338	0.160645	-0.436523	0.175997	-0.259753	0.106714	-0.943486	-19.168690	-26.909627	-154.240281	-0.803106	-0.387540	0.452585	0.276664	-0.915274	-0.292797	0.527710	-0.109934	0.842281	0	0	0
14115	0	0	0	0	0	4.438937	-2.879939	8.260681	0.005244	0.003385	0.002763	-0.620361	0.159180	-0.432861	0.175998	-0.259742	0.106692	-0.943491	-19.165638	-26.908870	-154.241248	-0.803118	-0.387529	0.452573	0.276680	-0.915283	-0.292754	0.527683	-0.109899	0.842302	0	0	0
14116	0	0	0	0	0	4.465617	-2.863597	8.289489	0.009621	0.001744	0.001601	-0.621826	0.157471	-0.436035	0.175996	-0.259733	0.106649	-0.943499	-19.159990	-26.909129	-154.243012	-0.803128	-0.387504	0.452577	0.276702	-0.915303	-0.292671	0.527656	-0.109823	0.842329	0	0	0
14117	0	0	0	0	0	4.447323	-2.850851	8.279011	0.000972	0.001358	0.003176	-0.622314	0.155273	-0.433350	0.175987	-0.259734	0.106648	-0.943500	-19.159649	-26.909344	-154.244058	-0.803134	-0.387488	0.452580	0.276688	-0.915309	-0.292665	0.527655	-0.109826	0.842329	0	0	0
14118	0	0	0	0	0	4.458971	-2.853659	8.311456	0.006972	-0.000252	0.005575	-0.625244	0.153564	-0.435303	0.176001	-0.259735	0.106621	-0.943500	-19.156801	-26.909935	-154.242989	-0.803122	-0.387501	0.452589	0.276728	-0.915311	-0.292622	0.527651	-0.109767	0.842339	0	0	0
14119	0	0	0	0	0	4.446892	-2.850369	8.279409	0.004818	0.004370	0.000720	-0.624756	0.162109	-0.435547	0.175981	-0.259719	0.106602	-0.943511	-19.153244	-26.909008	-154.246601	-0.803153	-0.387454	0.452575	0.276708	-0.915333	-0.292572	0.527615	-0.109749	0.842364	0	0	0
14120	0	0	0	0	0	4.470932	-2.871728	8.268865	0.008970	0.003069	0.001215	-0.619141	0.166748	-0.441406	0.175976	-0.259705	0.106563	-0.943520	-19.147737	-26.908622	-154.248879	-0.803172	-0.387423	0.452569	0.276724	-0.915354	-0.292492	0.527579	-0.109684	0.842395	0	0	0
14121	0	0	0	0	0	4.476963	-2.880613	8.247599	0.005696	0.002703	-0.000552	-0.623047	0.162354	-0.433105	0.175959	-0.259697	0.106535	-0.943528	-19.143601	-26.908761	-154.251981	-0.803192	-0.387379	0.452571	0.276712	-0.915377	-0.292431	0.527555	-0.109646	0.842415	0	0	0
14122	0	0	0	0	0	4.464129	-2.861005	8.291185	0.010394	0.003745	0.001077	-0.620117	0.161865	-0.433350	0.175955	-0.259679	0.106490	-0.943539	-19.137176	-26.908035	-154.254486	-0.803214	-0.387347	0.452560	0.276734	-0.915400	-0.292338	0.527509	-0.109571	0.842454	0	0	0
14123	0	0	0	0	0	4.479016	-2.841503	8.287741	0.007772	0.002053	-0.000305	-0.622803	0.157471	-0.435791	0.175946	-0.259673	0.106451	-0.943547	-19.131980	-26.908552	-154.256920	-0.803226	-0.387311	0.452568	0.276741	-0.915423	-0.292260	0.527486	-0.109507	0.842476	0	0	0
14124	0	0	0	0	0	4.439227	-2.837723	8.302843	0.008318	0.004395	0.000829	-0.619385	0.161621	-0.438477	0.175937	-0.259654	0.106416	-0.943558	-19.126613	-26.907519	-154.259711	-0.803253	-0.387275	0.452552	0.276750	-0.915444	-0.292184	0.527441	-0.109454	0.842511	0	0	0
14125	0	0	0	0	0	4.484700	-2.849695	8.266905	0.007121	0.003378	-0.000690	-0.626709	0.159912	-0.444092	0.175916	-0.259641	0.106383	-0.943569	-19.121502	-26.907330	-154.263639	-0.803281	-0.387221	0.452549	0.276735	-0.915472	-0.292109	0.527407	-0.109409	0.842539	0	0	0
14126	0	0	0	0	0	4.438618	-2.836680	8.303525	0.003820	0.002710	0.002899	-0.627441	0.156494	-0.431396	0.175912	-0.259632	0.106370	-0.943574	-19.119442	-26.906821	-154.264818	-0.803292	-0.387206	0.452541	0.276738	-0.915481	-0.292080	0.527388	-0.109391	0.842553	0	0	0
14127	0	0	0	0	0	4.480855	-2.870700	8.303568	0.004272	0.002027	-0.000414	-0.614258	0.159912	-0.433350	0.175890	-0.259628	0.106349	-0.943581	-19.116149	-26.907363	-154.268239	-0.803311	-0.387156	0.452549	0.276711	-0.915505	-0.292031	0.527373	-0.109366	0.842566	0	0	0
14128	0	0	0	0	0	4.426435	-2.833139	8.271624	0.002423	0.002336	-0.002319	-0.624512	0.168701	-0.437744	0.175860	-0.259626	0.106336	-0.943589	-19.113492	-26.908036	-154.272507	-0.803335	-0.387094	0.452560	0.276664	-0.915532	-0.291990	0.527360	-0.109359	0.842574	0	0	0
14129	0	0	0	0	0	4.499052	-2.829458	8.264003	0.008198	0.001068	0.001738	-0.625244	0.157959	-0.436768	0.175861	-0.259622	0.106297	-0.943594	-19.108727	-26.908649	-154.273520	-0.803338	-0.387078	0.452569	0.276689	-0.915547	-0.291918	0.527344	-0.109288	0.842594	0	0	0
14130	0	0	0	0	0	4.428983	-2.863482	8.286676	0.003169	0.004036	0.002513	-0.615967	0.152344	-0.441406	0.175854	-0.259609	0.106288	-0.943600	-19.106809	-26.907494	-154.275213	-0.803358	-0.387058	0.452551	0.276685	-0.915557	-0.291893	0.527316	-0.109280	0.842612	0	0	0
14131	0	0	0	0	0	4.455497	-2.847422	8.315457	0.004593	0.004712	0.002375	-0.615723	0.159424	-0.433838	0.175836	-0.259589	0.106274	-0.943611	-19.103792	-26.905975	-154.278520	-0.803391	-0.387017	0.452528	0.276667	-0.915575	-0.291852	0.527275	-0.109272	0.842639	0	0	0
14132	0	0	0	0	0	4.476591	-2.837899	8.290286	0.004471	0.001384	0.003285	-0.614746	0.161377	-0.434814	0.175835	-0.259586	0.106257	-0.943614	-19.101591	-26.906111	-154.279186	-0.803394	-0.387007	0.452530	0.276676	-0.915583	-0.291820	0.527265	-0.109242	0.842649	0	0	0
14133	0	0	0	0	0	4.431199	-2.841171	8.251342	0.002517	0.005362	0.002127	-0.620117	0.157715	-0.442383	0.175824	-0.259566	0.106251	-0.943622	-19.099734	-26.904305	-154.281488	-0.803423	-0.386981	0.452502	0.276664	-0.915593	-0.291797	0.527227	-0.109245	0.842672	0	0	0
14134	0	0	0	0	0	4.475843	-2.837614	8.290788	0.001971	0.003019	0.000994	-0.621826	0.159180	-0.447266	0.175808	-0.259559	0.106244	-0.943627	-19.098181	-26.903985	-154.283889	-0.803441	-0.386948	0.452497	0.276642	-0.915607	-0.291775	0.527211	-0.109245	0.842683	0	0	0
14135	0	0	0	0	0	4.460407	-2.856359	8.294789	0.002594	0.001392	0.006736	-0.614014	0.160889	-0.430908	0.175809	-0.259553	0.106243	-0.943629	-19.097839	-26.903370	-154.284069	-0.803447	-0.386948	0.452487	0.276645	-0.915607	-0.291772	0.527201	-0.109245	0.842689	0	0	0
14136	0	0	0	0	0	4.426916	-2.862643	8.288070	0.004472	0.001384	0.003285	-0.624268	0.159668	-0.434326	0.175808	-0.259550	0.106226	-0.943632	-19.095638	-26.903506	-154.284736	-0.803450	-0.386938	0.452489	0.276654	-0.915615	-0.291739	0.527191	-0.109215	0.842699	0	0	0
14137	0	0	0	0	0	4.448114	-2.853091	8.262860	0.005896	0.002060	0.003146	-0.630859	0.152100	-0.441895	0.175811	-0.259544	0.106201	-0.943636	-19.092451	-26.903366	-154.285230	-0.803455	-0.386932	0.452487	0.276676	-0.915623	-0.291692	0.527173	-0.109169	0.842716	0	0	0
14138	0	0	0	0	0	4.444510	-2.874556	8.299227	0.002396	0.002035	0.003037	-0.626465	0.156738	-0.438721	0.175806	-0.259540	0.106194	-0.943639	-19.091309	-26.903196	-154.286184	-0.803462	-0.386919	0.452484	0.276672	-0.915630	-0.291676	0.527163	-0.109161	0.842724	0	0	0
14139	0	0	0	0	0	4.492595	-2.849292	8.302481	0.003396	0.003694	0.000856	-0.616455	0.162109	-0.439941	0.175782	-0.259527	0.106183	-0.943648	-19.088648	-26.902583	-154.289978	-0.803492	-0.386868	0.452475	0.276639	-0.915652	-0.291638	0.527135	-0.109157	0.842742	0	0	0
14140	0	0	0	0	0	4.480527	-2.846149	8.270389	0.004472	0.001384	0.003284	-0.619385	0.158936	-0.439453	0.175782	-0.259524	0.106166	-0.943651	-19.086447	-26.902718	-154.290645	-0.803496	-0.386858	0.452477	0.276648	-0.915659	-0.291606	0.527125	-0.109127	0.842752	0	0	0
14141	0	0	0	0	0	4.425504	-2.861590	8.289188	0.002518	0.005362	0.002126	-0.627197	0.157227	-0.435059	0.175766	-0.259504	0.106161	-0.943660	-19.084567	-26.900866	-154.293448	-0.803528	-0.386825	0.452448	0.276629	-0.915672	-0.291583	0.527086	-0.109135	0.842775	0	0	0
14142	0	0	0	0	0	4.473529	-2.836456	8.292432	0.000972	0.001359	0.003175	-0.621582	0.165039	-0.436279	0.175760	-0.259504	0.106160	-0.943661	-19.084344	-26.901036	-154.294176	-0.803532	-0.386814	0.452451	0.276618	-0.915677	-0.291579	0.527086	-0.109137	0.842775	0	0	0
14143	0	0	0	0	0	4.440117	-2.842649	8.285696	0.004273	0.002026	-0.000415	-0.622559	0.161133	-0.447754	0.175745	-0.259502	0.106138	-0.943667	-19.081112	-26.901593	-154.296789	-0.803545	-0.386776	0.452460	0.276604	-0.915697	-0.291530	0.527072	-0.109106	0.842787	0	0	0
14144	0	0	0	0	0	4.448747	-2.814254	8.303618	0.000320	0.002685	0.002788	-0.615723	0.158203	-0.441650	0.175736	-0.259496	0.106141	-0.943670	-19.081030	-26.901117	-154.298030	-0.803557	-0.386760	0.452452	0.276587	-0.915702	-0.291530	0.527063	-0.109119	0.842791	0	0	0
14145	0	0	0	0	0	4.451330	-2.845535	8.318335	-0.000331	0.004011	0.002402	-0.620850	0.162842	-0.438232	0.175713	-0.259483	0.106150	-0.943677	-19.080946	-26.899886	-154.301152	-0.803587	-0.386720	0.452433	0.276543	-0.915714	-0.291532	0.527041	-0.109154	0.842801	0	0	0
14146	0	0	0	0	0	4.460589	-2.833534	8.260736	0.000094	0.003027	0.004445	-0.622803	0.156250	-0.431152	0.175711	-0.259476	0.106157	-0.943678	-19.081416	-26.898914	-154.301460	-0.803596	-0.386719	0.452418	0.276539	-0.915713	-0.291542	0.527030	-0.109171	0.842806	0	0	0
14147	0	0	0	0	0	4.447970	-2.883590	8.279313	-0.000755	0.004995	0.000359	-0.625000	0.163086	-0.439209	0.175689	-0.259463	0.106163	-0.943685	-19.080980	-26.897711	-154.304438	-0.803624	-0.386682	0.452399	0.276501	-0.915725	-0.291538	0.527006	-0.109199	0.842817	0	0	0
14148	0	0	0	0	0	4.462908	-2.865010	8.275528	-0.001227	-0.001317	0.003837	-0.633545	0.162598	-0.437012	0.175685	-0.259477	0.106171	-0.943681	-19.082452	-26.899206	-154.304202	-0.803612	-0.386680	0.452422	0.276484	-0.915725	-0.291556	0.527033	-0.109211	0.842798	0	0	0
14149	0	0	0	0	0	4.450148	-2.846267	8.318717	0.000519	0.002044	0.006487	-0.624023	0.155762	-0.443359	0.175700	-0.259474	0.106175	-0.943679	-19.083279	-26.898479	-154.302416	-0.803605	-0.386707	0.452411	0.276508	-0.915713	-0.291570	0.527031	-0.109212	0.842800	0	0	0
14150	0	0	0	0	0	4.462526	-2.865331	8.275622	0.001425	0.000675	-0.000138	-0.624023	0.154541	-0.443359	0.175679	-0.259479	0.106168	-0.943682	-19.081951	-26.899639	-154.305012	-0.803615	-0.386667	0.452429	0.276474	-0.915731	-0.291548	0.527035	-0.109207	0.842798	0	0	0
14151	0	0	0	0	0	4.456082	-2.855599	8.297375	0.003623	0.003352	-0.000801	-0.623047	0.156250	-0.435303	0.175644	-0.259468	0.106154	-0.943693	-19.078733	-26.899436	-154.310212	-0.803651	-0.386595	0.452426	0.276421	-0.915761	-0.291501	0.527007	-0.109205	0.842816	0	0	0
14152	0	0	0	0	0	4.470965	-2.836474	8.293809	0.005472	0.003043	0.001104	-0.615234	0.156738	-0.439209	0.175633	-0.259458	0.106131	-0.943701	-19.075202	-26.899082	-154.312552	-0.803669	-0.386563	0.452420	0.276418	-0.915779	-0.291450	0.526981	-0.109172	0.842836	0	0	0
14153	0	0	0	0	0	4.452568	-2.823848	8.283322	0.001745	0.003361	0.002650	-0.618408	0.162109	-0.432617	0.175619	-0.259447	0.106128	-0.943706	-19.074062	-26.898270	-154.314751	-0.803690	-0.386535	0.452408	0.276397	-0.915790	-0.291435	0.526960	-0.109179	0.842848	0	0	0
14154	0	0	0	0	0	4.452313	-2.823785	8.283480	0.003047	0.000709	0.003423	-0.620850	0.163330	-0.438965	0.175618	-0.259449	0.106117	-0.943708	-19.072779	-26.898745	-154.315193	-0.803690	-0.386527	0.452415	0.276399	-0.915795	-0.291415	0.526959	-0.109160	0.842851	0	0	0
14155	0	0	0	0	0	4.461084	-2.795579	8.301261	0.000622	-0.001625	0.005742	-0.622803	0.161621	-0.437256	0.175630	-0.259463	0.106117	-0.943701	-19.073703	-26.900084	-154.313188	-0.803667	-0.386551	0.452436	0.276417	-0.915787	-0.291425	0.526985	-0.109148	0.842836	0	0	0
14156	0	0	0	0	0	4.443345	-2.852332	8.265688	-0.001227	-0.001317	0.003837	-0.630371	0.157715	-0.437988	0.175625	-0.259477	0.106126	-0.943697	-19.075175	-26.901579	-154.312952	-0.803654	-0.386549	0.452459	0.276400	-0.915786	-0.291443	0.527013	-0.109160	0.842818	0	0	0
14157	0	0	0	0	0	4.476475	-2.846161	8.272579	0.000972	0.001360	0.003174	-0.629150	0.154785	-0.444824	0.175621	-0.259478	0.106124	-0.943698	-19.074856	-26.901825	-154.313572	-0.803657	-0.386539	0.452463	0.276392	-0.915790	-0.291438	0.527013	-0.109159	0.842817	0	0	0
14158	0	0	0	0	0	4.469943	-2.836626	8.294308	0.001972	0.003018	0.000993	-0.626465	0.151367	-0.434326	0.175605	-0.259471	0.106117	-0.943704	-19.073303	-26.901504	-154.315973	-0.803675	-0.386507	0.452458	0.276369	-0.915804	-0.291416	0.526997	-0.109158	0.842828	0	0	0
14159	0	0	0	0	0	4.445654	-2.883678	8.280526	0.001169	0.000718	0.006873	-0.621094	0.162842	-0.442139	0.175608	-0.259471	0.106121	-0.943703	-19.073846	-26.901387	-154.315504	-0.803673	-0.386514	0.452456	0.276372	-0.915800	-0.291424	0.526999	-0.109163	0.842826	0	0	0
14160	0	0	0	0	0	4.460579	-2.864922	8.276814	0.004472	0.001384	0.003284	-0.622559	0.159912	-0.440918	0.175607	-0.259468	0.106104	-0.943706	-19.071644	-26.901522	-154.316171	-0.803677	-0.386504	0.452458	0.276381	-0.915808	-0.291391	0.526989	-0.109133	0.842836	0	0	0
14161	0	0	0	0	0	4.436031	-2.842836	8.287821	0.003047	0.000709	0.003422	-0.621094	0.165283	-0.434082	0.175603	-0.259469	0.106094	-0.943707	-19.070270	-26.901970	-154.316976	-0.803679	-0.386491	0.452465	0.276379	-0.915816	-0.291370	0.526987	-0.109116	0.842840	0	0	0
14162	0	0	0	0	0	4.487219	-2.848771	8.305566	0.003274	0.000366	0.001766	-0.625977	0.161865	-0.429443	0.175594	-0.259473	0.106080	-0.943710	-19.068434	-26.902940	-154.318352	-0.803681	-0.386469	0.452480	0.276370	-0.915828	-0.291340	0.526988	-0.109093	0.842842	0	0	0
14163	0	0	0	0	0	4.466065	-2.805066	8.280386	0.002397	0.002035	0.003036	-0.625244	0.157471	-0.431641	0.175601	-0.259471	0.106069	-0.943710	-19.067288	-26.902904	-154.317836	-0.803678	-0.386476	0.452480	0.276388	-0.915828	-0.291323	0.526983	-0.109070	0.842848	0	0	0
14164	0	0	0	0	0	4.459610	-2.795570	8.302057	-0.000226	0.000342	0.001656	-0.625000	0.156494	-0.439941	0.175587	-0.259478	0.106071	-0.943710	-19.067430	-26.903908	-154.319274	-0.803680	-0.386452	0.452496	0.276360	-0.915836	-0.291323	0.526994	-0.109079	0.842840	0	0	0
14165	0	0	0	0	0	4.472068	-2.814976	8.258818	-0.003331	-0.000964	0.008944	-0.619629	0.157959	-0.444336	0.175603	-0.259491	0.106095	-0.943701	-19.071356	-26.904344	-154.316131	-0.803656	-0.386495	0.452502	0.276372	-0.915815	-0.291380	0.527025	-0.109110	0.842816	0	0	0
14166	0	0	0	0	0	4.483602	-2.818378	8.291108	-0.001330	0.002353	0.004582	-0.623779	0.157471	-0.440430	0.175600	-0.259488	0.106108	-0.943701	-19.072743	-26.903711	-154.316214	-0.803661	-0.386496	0.452492	0.276361	-0.915811	-0.291402	0.527023	-0.109137	0.842814	0	0	0
14167	0	0	0	0	0	4.456498	-2.834788	8.262514	-0.005954	-0.002656	0.007564	-0.629639	0.154053	-0.435303	0.175600	-0.259509	0.106144	-0.943691	-19.077925	-26.905190	-154.314547	-0.803639	-0.386514	0.452515	0.276333	-0.915796	-0.291474	0.527071	-0.109195	0.842777	0	0	0
14168	0	0	0	0	0	4.507730	-2.841530	8.279964	-0.001680	-0.000631	0.007149	-0.625244	0.163086	-0.433838	0.175610	-0.259519	0.106159	-0.943685	-19.080502	-26.905693	-154.312444	-0.803622	-0.386542	0.452523	0.276340	-0.915782	-0.291511	0.527094	-0.109214	0.842760	0	0	0
14169	0	0	0	0	0	4.468056	-2.838801	8.294581	-0.001680	-0.000631	0.007149	-0.623535	0.150879	-0.434082	0.175624	-0.259530	0.106173	-0.943678	-19.082986	-26.906327	-154.309921	-0.803600	-0.386575	0.452533	0.276355	-0.915767	-0.291546	0.527119	-0.109226	0.842743	0	0	0
14170	0	0	0	0	0	4.474192	-2.848770	8.272916	-0.001680	-0.000631	0.007149	-0.626709	0.159180	-0.439697	0.175635	-0.259540	0.106188	-0.943671	-19.085563	-26.906830	-154.307818	-0.803582	-0.386603	0.452541	0.276363	-0.915753	-0.291582	0.527142	-0.109245	0.842726	0	0	0
14171	0	0	0	0	0	4.452347	-2.858436	8.298403	-0.001007	0.005039	0.007369	-0.617920	0.154785	-0.436523	0.175639	-0.259523	0.106206	-0.943673	-19.087119	-26.904293	-154.307390	-0.803598	-0.386618	0.452502	0.276367	-0.915742	-0.291612	0.527117	-0.109282	0.842737	0	0	0
14172	0	0	0	0	0	4.460841	-2.830620	8.316214	-0.001680	-0.000631	0.007148	-0.626465	0.151123	-0.434082	0.175650	-0.259533	0.106221	-0.943667	-19.089695	-26.904795	-154.305287	-0.803580	-0.386646	0.452509	0.276374	-0.915728	-0.291648	0.527140	-0.109301	0.842720	0	0	0
14173	0	0	0	0	0	4.470334	-2.818986	8.258389	-0.004179	0.001004	0.004858	-0.628418	0.156494	-0.435791	0.175639	-0.259538	0.106247	-0.943665	-19.092741	-26.904906	-154.305787	-0.803582	-0.386638	0.452511	0.276338	-0.915725	-0.291693	0.527155	-0.109353	0.842703	0	0	0
14174	0	0	0	0	0	4.463801	-2.809970	8.279944	-0.000481	0.000385	0.008666	-0.628418	0.162842	-0.427734	0.175657	-0.259541	0.106259	-0.943659	-19.094951	-26.904574	-154.302977	-0.803566	-0.386679	0.452506	0.276364	-0.915707	-0.291726	0.527167	-0.109365	0.842695	0	0	0
14175	0	0	0	0	0	4.433204	-2.848074	8.287535	-0.005406	-0.000312	0.008694	-0.626465	0.159180	-0.439941	0.175679	-0.259554	0.106291	-0.943648	-19.099996	-26.904794	-154.298975	-0.803537	-0.386734	0.452509	0.276380	-0.915678	-0.291800	0.527202	-0.109407	0.842667	0	0	0
14176	0	0	0	0	0	4.463624	-2.880252	8.254952	-0.003755	0.000020	0.006899	-0.623779	0.161133	-0.438721	0.175685	-0.259563	0.106317	-0.943641	-19.103630	-26.904990	-154.297161	-0.803524	-0.386759	0.452512	0.276375	-0.915663	-0.291853	0.527225	-0.109447	0.842647	0	0	0
14177	0	0	0	0	0	4.466070	-2.843064	8.294190	-0.001256	-0.001616	0.009190	-0.619385	0.164795	-0.446045	0.175705	-0.259576	0.106331	-0.943632	-19.106518	-26.905675	-154.293767	-0.803496	-0.386804	0.452523	0.276400	-0.915643	-0.291893	0.527255	-0.109458	0.842628	0	0	0
14178	0	0	0	0	0	4.445266	-2.868895	8.244003	-0.001255	-0.001615	0.009189	-0.626465	0.164063	-0.442139	0.175726	-0.259589	0.106347	-0.943623	-19.109506	-26.906328	-154.290219	-0.803467	-0.386852	0.452533	0.276426	-0.915621	-0.291936	0.527285	-0.109469	0.842607	0	0	0
14179	0	0	0	0	0	4.459573	-2.834537	8.315560	-0.001029	-0.001958	0.007533	-0.623291	0.161621	-0.437012	0.175738	-0.259604	0.106358	-0.943615	-19.111872	-26.907417	-154.287859	-0.803444	-0.386881	0.452550	0.276437	-0.915608	-0.291968	0.527315	-0.109478	0.842587	0	0	0
14180	0	0	0	0	0	4.471933	-2.854034	8.272323	-0.002979	0.002021	0.006375	-0.622559	0.160645	-0.442139	0.175742	-0.259603	0.106381	-0.943612	-19.114728	-26.906628	-154.286785	-0.803442	-0.386899	0.452538	0.276431	-0.915595	-0.292012	0.527321	-0.109519	0.842579	0	0	0
14181	0	0	0	0	0	4.450269	-2.863730	8.297693	-0.001029	-0.001958	0.007533	-0.614502	0.162354	-0.440918	0.175755	-0.259618	0.106392	-0.943604	-19.117072	-26.907785	-154.284331	-0.803417	-0.386929	0.452556	0.276444	-0.915582	-0.292043	0.527352	-0.109526	0.842558	0	0	0
14182	0	0	0	0	0	4.480562	-2.826911	8.289846	-0.004331	-0.002621	0.011120	-0.621582	0.158203	-0.437500	0.175782	-0.259638	0.106424	-0.943590	-19.122448	-26.908619	-154.279398	-0.803378	-0.386995	0.452569	0.276469	-0.915549	-0.292120	0.527398	-0.109561	0.842524	0	0	0
14183	0	0	0	0	0	4.465240	-2.846405	8.293491	-0.003330	-0.000963	0.008940	-0.631592	0.163574	-0.432373	0.175795	-0.259649	0.106449	-0.943582	-19.126389	-26.908929	-154.276638	-0.803357	-0.387033	0.452574	0.276475	-0.915529	-0.292177	0.527427	-0.109597	0.842502	0	0	0
14184	0	0	0	0	0	4.471291	-2.856609	8.271781	-0.003979	0.000363	0.008554	-0.620850	0.158203	-0.440918	0.175809	-0.259655	0.106478	-0.943574	-19.130575	-26.908628	-154.273892	-0.803341	-0.387073	0.452569	0.276482	-0.915507	-0.292239	0.527448	-0.109641	0.842483	0	0	0
14185	0	0	0	0	0	4.464766	-2.847730	8.293291	-0.001904	-0.000289	0.008802	-0.630371	0.159912	-0.444824	0.175830	-0.259664	0.106495	-0.943566	-19.133622	-26.908722	-154.270509	-0.803317	-0.387120	0.452570	0.276508	-0.915485	-0.292284	0.527471	-0.109657	0.842467	0	0	0
14186	0	0	0	0	0	4.455659	-2.876468	8.275459	-0.001679	-0.000632	0.007146	-0.619629	0.163574	-0.433350	0.175840	-0.259674	0.106511	-0.943560	-19.136197	-26.909224	-154.268408	-0.803299	-0.387147	0.452578	0.276515	-0.915471	-0.292321	0.527494	-0.109676	0.842450	0	0	0
14187	0	0	0	0	0	4.449320	-2.867351	8.296951	-0.000803	-0.002300	0.005877	-0.618896	0.158447	-0.437256	0.175847	-0.259692	0.106518	-0.943553	-19.137997	-26.910905	-154.266667	-0.803276	-0.387166	0.452604	0.276519	-0.915463	-0.292343	0.527528	-0.109678	0.842428	0	0	0
14188	0	0	0	0	0	4.479478	-2.830178	8.289317	0.001722	0.003058	0.008002	-0.617432	0.158203	-0.443604	0.175864	-0.259681	0.106521	-0.943552	-19.138507	-26.909249	-154.264823	-0.803275	-0.387198	0.452579	0.276551	-0.915450	-0.292354	0.527512	-0.109680	0.842438	0	0	0
14189	0	0	0	0	0	4.463866	-2.849130	8.293295	0.000523	0.002043	0.006484	-0.621582	0.153320	-0.439453	0.175865	-0.259675	0.106529	-0.943553	-19.139241	-26.908376	-154.264724	-0.803280	-0.387202	0.452565	0.276550	-0.915446	-0.292368	0.527504	-0.109696	0.842441	0	0	0
14190	0	0	0	0	0	4.436514	-2.865367	8.264848	-0.002779	0.001380	0.010070	-0.623779	0.166748	-0.431396	0.175887	-0.259675	0.106555	-0.943546	-19.143058	-26.907239	-154.261271	-0.803265	-0.387254	0.452547	0.276575	-0.915419	-0.292427	0.527514	-0.109733	0.842430	0	0	0
14191	0	0	0	0	0	4.451421	-2.847045	8.261036	0.001398	0.000374	0.005214	-0.624512	0.161865	-0.434326	0.175894	-0.259679	0.106553	-0.943544	-19.143155	-26.907631	-154.260361	-0.803256	-0.387266	0.452553	0.276587	-0.915416	-0.292427	0.527522	-0.109723	0.842426	0	0	0
14192	0	0	0	0	0	4.478244	-2.831590	8.289501	-0.001255	-0.001616	0.009187	-0.624268	0.157471	-0.436035	0.175915	-0.259692	0.106568	-0.943534	-19.146142	-26.908282	-154.256814	-0.803228	-0.387313	0.452564	0.276613	-0.915394	-0.292469	0.527551	-0.109734	0.842406	0	0	0
14193	0	0	0	0	0	4.447691	-2.869481	8.297088	-0.002102	0.000353	0.005104	-0.621338	0.160889	-0.433105	0.175917	-0.259700	0.106582	-0.943530	-19.148212	-26.908725	-154.255924	-0.803218	-0.387324	0.452571	0.276606	-0.915387	-0.292499	0.527569	-0.109756	0.842392	0	0	0
14194	0	0	0	0	0	4.466168	-2.829422	8.257075	-0.000027	-0.000300	0.005352	-0.621094	0.160645	-0.434326	0.175921	-0.259708	0.106588	-0.943527	-19.149317	-26.909385	-154.254981	-0.803207	-0.387335	0.452581	0.276608	-0.915382	-0.292513	0.527585	-0.109761	0.842382	0	0	0
14195	0	0	0	0	0	4.477780	-2.832660	8.289387	-0.000253	0.000042	0.007007	-0.625000	0.159912	-0.433838	0.175936	-0.259715	0.106595	-0.943521	-19.150902	-26.909627	-154.252651	-0.803190	-0.387367	0.452585	0.276630	-0.915368	-0.292536	0.527600	-0.109763	0.842372	0	0	0
14196	0	0	0	0	0	4.450510	-2.848821	8.260915	-0.001128	0.001711	0.008276	-0.634521	0.155518	-0.434814	0.175951	-0.259712	0.106611	-0.943517	-19.153248	-26.908648	-154.250357	-0.803181	-0.387403	0.452569	0.276649	-0.915350	-0.292573	0.527603	-0.109786	0.842367	0	0	0
14197	0	0	0	0	0	4.461948	-2.852195	8.293274	-0.003175	0.002665	0.002676	-0.623047	0.158203	-0.431641	0.175939	-0.259712	0.106629	-0.943518	-19.155022	-26.908363	-154.251391	-0.803190	-0.387389	0.452565	0.276618	-0.915351	-0.292600	0.527606	-0.109826	0.842360	0	0	0
14198	0	0	0	0	0	4.474285	-2.871567	8.250075	-0.001876	0.000011	0.003448	-0.623291	0.156982	-0.436279	0.175932	-0.259721	0.106641	-0.943515	-19.156633	-26.909211	-154.251670	-0.803186	-0.387382	0.452578	0.276595	-0.915351	-0.292621	0.527624	-0.109849	0.842346	0	0	0
14199	0	0	0	0	0	4.449685	-2.849848	8.261005	0.001723	0.003058	0.008000	-0.621582	0.165283	-0.435059	0.175949	-0.259711	0.106644	-0.943515	-19.157024	-26.907648	-154.249858	-0.803185	-0.387413	0.452554	0.276627	-0.915339	-0.292631	0.527609	-0.109848	0.842355	0	0	0
14200	0	0	0	0	0	4.467320	-2.862438	8.271911	0.002175	0.002373	0.004690	-0.616455	0.163086	-0.434814	0.175951	-0.259704	0.106640	-0.943516	-19.156430	-26.906985	-154.249880	-0.803190	-0.387415	0.452543	0.276635	-0.915338	-0.292624	0.527597	-0.109843	0.842363	0	0	0
14201	0	0	0	0	0	4.467039	-2.862450	8.272059	0.002824	0.001046	0.005076	-0.627197	0.155762	-0.437988	0.175962	-0.259704	0.106631	-0.943515	-19.155665	-26.907005	-154.248685	-0.803182	-0.387432	0.452544	0.276661	-0.915334	-0.292613	0.527596	-0.109820	0.842367	0	0	0
14202	0	0	0	0	0	4.475789	-2.834173	8.289945	0.003049	0.000704	0.003421	-0.616699	0.159668	-0.438721	0.175961	-0.259706	0.106620	-0.943516	-19.154381	-26.907484	-154.249126	-0.803181	-0.387424	0.452551	0.276664	-0.915340	-0.292592	0.527595	-0.109800	0.842370	0	0	0
14203	0	0	0	0	0	4.460297	-2.852891	8.293922	0.001949	0.002715	0.006345	-0.619141	0.155029	-0.436768	0.175965	-0.259696	0.106621	-0.943518	-19.154194	-26.906340	-154.248932	-0.803188	-0.387430	0.452533	0.276674	-0.915337	-0.292593	0.527580	-0.109803	0.842379	0	0	0
14204	0	0	0	0	0	4.451034	-2.881315	8.276262	-0.000676	0.001027	0.004965	-0.623535	0.151123	-0.434814	0.175966	-0.259699	0.106630	-0.943516	-19.155438	-26.906354	-154.248504	-0.803185	-0.387436	0.452534	0.276669	-0.915332	-0.292611	0.527587	-0.109819	0.842373	0	0	0
14205	0	0	0	0	0	4.435448	-2.831236	8.304959	0.002824	0.001046	0.005076	-0.627686	0.161377	-0.436523	0.175962	-0.259697	0.106624	-0.943518	-19.154511	-26.906384	-154.249138	-0.803189	-0.387427	0.452534	0.276668	-0.915337	-0.292597	0.527581	-0.109809	0.842377	0	0	0
14206	0	0	0	0	0	4.459519	-2.853218	8.294228	0.002824	0.001046	0.005075	-0.626221	0.155762	-0.437988	0.175968	-0.259696	0.106617	-0.943518	-19.153777	-26.906367	-154.248647	-0.803186	-0.387434	0.452534	0.276682	-0.915336	-0.292586	0.527579	-0.109793	0.842381	0	0	0
14207	0	0	0	0	0	4.441331	-2.840923	8.283516	-0.001453	-0.000973	0.005489	-0.627686	0.160156	-0.434570	0.175970	-0.259709	0.106628	-0.943513	-19.155679	-26.907449	-154.247611	-0.803171	-0.387445	0.452551	0.276676	-0.915330	-0.292612	0.527604	-0.109807	0.842364	0	0	0
14208	0	0	0	0	0	4.465440	-2.863141	8.272684	0.002598	0.001388	0.006730	-0.622559	0.159912	-0.436768	0.175984	-0.259706	0.106624	-0.943512	-19.155497	-26.906935	-154.246187	-0.803165	-0.387467	0.452543	0.276703	-0.915322	-0.292610	0.527599	-0.109794	0.842368	0	0	0
14209	0	0	0	0	0	4.465222	-2.863304	8.272745	-0.000027	-0.000300	0.005351	-0.625244	0.164795	-0.433838	0.175990	-0.259715	0.106628	-0.943508	-19.156510	-26.907684	-154.244998	-0.803152	-0.387481	0.452554	0.276709	-0.915316	-0.292623	0.527616	-0.109795	0.842358	0	0	0
14210	0	0	0	0	0	4.447035	-2.851007	8.262032	0.001398	0.000373	0.005213	-0.618164	0.159180	-0.446289	0.175995	-0.259718	0.106627	-0.943506	-19.156695	-26.908005	-154.244282	-0.803145	-0.387490	0.452559	0.276718	-0.915313	-0.292625	0.527623	-0.109789	0.842354	0	0	0
14211	0	0	0	0	0	4.473843	-2.835379	8.290583	0.001398	0.000373	0.005213	-0.617676	0.158936	-0.432861	0.175998	-0.259721	0.106626	-0.943504	-19.156790	-26.908313	-154.243808	-0.803139	-0.387495	0.452564	0.276723	-0.915311	-0.292626	0.527628	-0.109784	0.842351	0	0	0
14212	0	0	0	0	0	4.482715	-2.876276	8.283598	-0.000676	0.001028	0.004965	-0.627441	0.156006	-0.440918	0.175998	-0.259724	0.106636	-0.943503	-19.158033	-26.908326	-154.243380	-0.803136	-0.387501	0.452564	0.276718	-0.915307	-0.292644	0.527635	-0.109800	0.842345	0	0	0
14213	0	0	0	0	0	4.479676	-2.845234	8.269111	0.002824	0.001046	0.005075	-0.618408	0.159180	-0.433594	0.176000	-0.259722	0.106628	-0.943503	-19.157162	-26.908354	-154.243380	-0.803136	-0.387501	0.452565	0.276726	-0.915309	-0.292631	0.527631	-0.109786	0.842349	0	0	0
14214	0	0	0	0	0	4.461416	-2.832748	8.258503	0.002824	0.001046	0.005075	-0.620605	0.162109	-0.440430	0.176006	-0.259722	0.106621	-0.943503	-19.156428	-26.908337	-154.242889	-0.803133	-0.387508	0.452564	0.276741	-0.915308	-0.292620	0.527628	-0.109770	0.842353	0	0	0
14215	0	0	0	0	0	4.445839	-2.851555	8.262487	-0.000547	0.004354	0.004054	-0.622314	0.157227	-0.439209	0.176000	-0.259709	0.106631	-0.943507	-19.156937	-26.906733	-154.243834	-0.803151	-0.387501	0.452539	0.276728	-0.915308	-0.292632	0.527608	-0.109797	0.842362	0	0	0
14216	0	0	0	0	0	4.457314	-2.854637	8.294925	0.001624	0.000031	0.003558	-0.617920	0.154297	-0.441650	0.175998	-0.259714	0.106627	-0.943506	-19.156571	-26.907550	-154.244050	-0.803147	-0.387495	0.452552	0.276725	-0.915311	-0.292624	0.527617	-0.109788	0.842358	0	0	0
14217	0	0	0	0	0	4.463397	-2.864278	8.273392	0.001173	0.000716	0.006867	-0.623535	0.161865	-0.444092	0.175999	-0.259714	0.106631	-0.943506	-19.157123	-26.907341	-154.243805	-0.803146	-0.387499	0.452549	0.276724	-0.915308	-0.292633	0.527617	-0.109796	0.842357	0	0	0
14218	0	0	0	0	0	4.456841	-2.854872	8.295098	0.002176	0.002373	0.004688	-0.620361	0.162354	-0.431885	0.176001	-0.259708	0.106628	-0.943507	-19.156528	-26.906678	-154.243829	-0.803151	-0.387501	0.452539	0.276733	-0.915308	-0.292626	0.527605	-0.109791	0.842365	0	0	0
14219	0	0	0	0	0	4.459964	-2.833221	8.259125	0.001753	0.003357	0.002648	-0.619141	0.154297	-0.446045	0.175994	-0.259698	0.106624	-0.943512	-19.155446	-26.905892	-154.245158	-0.803166	-0.387485	0.452526	0.276725	-0.915315	-0.292612	0.527587	-0.109791	0.842376	0	0	0
14220	0	0	0	0	0	4.438230	-2.842353	8.284687	0.003473	-0.000282	0.005461	-0.621826	0.165527	-0.437500	0.176003	-0.259703	0.106613	-0.943510	-19.154573	-26.906520	-154.244154	-0.803155	-0.387497	0.452536	0.276746	-0.915313	-0.292598	0.527593	-0.109764	0.842376	0	0	0
14221	0	0	0	0	0	4.471256	-2.836278	8.291671	-0.001324	0.002355	0.004578	-0.625000	0.162109	-0.430664	0.175994	-0.259698	0.106627	-0.943511	-19.155823	-26.905840	-154.245095	-0.803166	-0.387486	0.452526	0.276723	-0.915314	-0.292618	0.527588	-0.109797	0.842375	0	0	0
14222	0	0	0	0	0	4.462099	-2.864866	8.273889	-0.001030	-0.001956	0.007529	-0.618408	0.164063	-0.434570	0.176008	-0.259714	0.106638	-0.943503	-19.158258	-26.906986	-154.242483	-0.803140	-0.387519	0.452543	0.276737	-0.915299	-0.292651	0.527620	-0.109804	0.842354	0	0	0
14223	0	0	0	0	0	4.455683	-2.855517	8.295498	0.002401	0.002030	0.003034	-0.622803	0.156982	-0.444092	0.176012	-0.259712	0.106629	-0.943504	-19.157084	-26.906929	-154.242341	-0.803139	-0.387521	0.452543	0.276750	-0.915301	-0.292634	0.527614	-0.109784	0.842360	0	0	0
14224	0	0	0	0	0	4.455428	-2.855453	8.295657	0.002401	0.002030	0.003034	-0.629150	0.174072	-0.436035	0.176007	-0.259708	0.106622	-0.943507	-19.155938	-26.906763	-154.243297	-0.803147	-0.387508	0.452540	0.276746	-0.915307	-0.292617	0.527604	-0.109776	0.842367	0	0	0
14225	0	0	0	0	0	4.437102	-2.843056	8.285050	0.000525	0.002043	0.006480	-0.625244	0.159912	-0.443359	0.176021	-0.259704	0.106626	-0.943505	-19.156775	-26.905981	-154.241551	-0.803141	-0.387535	0.452528	0.276770	-0.915295	-0.292632	0.527601	-0.109778	0.842369	0	0	0
14226	0	0	0	0	0	4.458294	-2.833987	8.259764	0.002402	0.002030	0.003033	-0.620850	0.161621	-0.435059	0.176016	-0.259700	0.106619	-0.943508	-19.155628	-26.905815	-154.242507	-0.803148	-0.387522	0.452525	0.276766	-0.915302	-0.292615	0.527592	-0.109770	0.842376	0	0	0
14227	0	0	0	0	0	4.460747	-2.865050	8.274554	0.005451	0.002732	0.006453	-0.618408	0.165283	-0.441895	0.176029	-0.259688	0.106603	-0.943510	-19.153502	-26.904646	-154.241766	-0.803152	-0.387537	0.452507	0.276803	-0.915300	-0.292587	0.527568	-0.109736	0.842396	0	0	0
14228	0	0	0	0	0	4.475825	-2.846257	8.270844	0.002920	-0.002624	0.004330	-0.618652	0.154053	-0.440674	0.176033	-0.259705	0.106591	-0.943506	-19.152859	-26.906755	-154.240954	-0.803131	-0.387541	0.452540	0.276812	-0.915302	-0.292572	0.527594	-0.109705	0.842383	0	0	0
14229	0	0	0	0	0	4.436291	-2.842746	8.285590	0.002429	0.002329	-0.002316	-0.618408	0.165527	-0.437256	0.175995	-0.259701	0.106578	-0.943516	-19.150064	-26.907373	-154.246163	-0.803162	-0.387466	0.452549	0.276752	-0.915333	-0.292529	0.527579	-0.109705	0.842393	0	0	0
14230	0	0	0	0	0	4.478449	-2.877191	8.285588	0.001821	-0.000611	0.007253	-0.620361	0.154541	-0.438721	0.176011	-0.259708	0.106577	-0.943511	-19.150661	-26.907844	-154.244002	-0.803144	-0.387494	0.452557	0.276778	-0.915323	-0.292537	0.527592	-0.109691	0.842386	0	0	0
14231	0	0	0	0	0	4.475561	-2.846035	8.271063	0.003698	-0.000625	0.003806	-0.624756	0.154785	-0.436279	0.176010	-0.259714	0.106563	-0.943511	-19.149129	-26.908972	-154.244248	-0.803138	-0.387487	0.452574	0.276783	-0.915329	-0.292511	0.527599	-0.109662	0.842386	0	0	0
14232	0	0	0	0	0	4.453894	-2.855194	8.296570	0.000751	0.001701	0.004825	-0.619141	0.151855	-0.445557	0.176012	-0.259712	0.106566	-0.943511	-19.149452	-26.908647	-154.244048	-0.803139	-0.387491	0.452569	0.276785	-0.915327	-0.292517	0.527597	-0.109667	0.842386	0	0	0
14233	0	0	0	0	0	4.481437	-2.855607	8.249673	0.003050	0.000703	0.003419	-0.625732	0.166016	-0.440430	0.175996	-0.259712	0.106557	-0.943515	-19.147943	-26.909112	-154.246255	-0.803150	-0.387458	0.452577	0.276762	-0.915342	-0.292494	0.527591	-0.109660	0.842391	0	0	0
14234	0	0	0	0	0	4.462551	-2.826881	8.314526	0.003698	-0.000625	0.003806	-0.627441	0.164551	-0.445801	0.175998	-0.259719	0.106543	-0.943514	-19.146519	-26.910237	-154.246183	-0.803142	-0.387456	0.452594	0.276771	-0.915347	-0.292470	0.527599	-0.109630	0.842390	0	0	0
14235	0	0	0	0	0	4.456848	-2.833376	8.260754	0.004026	0.002061	0.006590	-0.623535	0.159180	-0.449707	0.176014	-0.259711	0.106532	-0.943515	-19.145360	-26.909391	-154.244759	-0.803138	-0.387478	0.452581	0.276808	-0.915340	-0.292455	0.527585	-0.109604	0.842402	0	0	0
14236	0	0	0	0	0	4.477470	-2.808099	8.310898	0.001071	-0.002312	0.002427	-0.625000	0.160645	-0.429688	0.176007	-0.259729	0.106527	-0.943512	-19.145223	-26.911688	-154.245168	-0.803125	-0.387465	0.452617	0.276792	-0.915347	-0.292447	0.527614	-0.109591	0.842385	0	0	0
14237	0	0	0	0	0	4.459439	-2.864797	8.275347	-0.002327	0.000700	0.006755	-0.626221	0.156738	-0.433838	0.176011	-0.259734	0.106546	-0.943508	-19.147818	-26.911576	-154.243887	-0.803117	-0.387483	0.452615	0.276789	-0.915336	-0.292485	0.527628	-0.109621	0.842373	0	0	0
14238	0	0	0	0	0	4.465506	-2.874703	8.253738	-0.000027	-0.000298	0.005349	-0.622070	0.152100	-0.435547	0.176015	-0.259742	0.106551	-0.943504	-19.148921	-26.912234	-154.242947	-0.803106	-0.387494	0.452625	0.276791	-0.915331	-0.292500	0.527644	-0.109626	0.842362	0	0	0
14239	0	0	0	0	0	4.459045	-2.865361	8.275364	0.000751	0.001701	0.004825	-0.624268	0.157471	-0.437256	0.176013	-0.259740	0.106554	-0.943505	-19.149077	-26.912017	-154.243259	-0.803109	-0.387490	0.452622	0.276786	-0.915332	-0.292503	0.527641	-0.109632	0.842363	0	0	0
14240	0	0	0	0	0	4.452534	-2.855900	8.297057	0.000553	0.002342	0.001130	-0.621582	0.155762	-0.436523	0.175996	-0.259737	0.106553	-0.943509	-19.148436	-26.912040	-154.245437	-0.803124	-0.387460	0.452622	0.276757	-0.915343	-0.292493	0.527634	-0.109642	0.842366	0	0	0
14241	0	0	0	0	0	4.473774	-2.846812	8.271762	0.000328	0.002685	0.002784	-0.619873	0.157959	-0.436279	0.175983	-0.259732	0.106556	-0.943512	-19.148200	-26.911626	-154.247181	-0.803139	-0.387437	0.452616	0.276733	-0.915351	-0.292491	0.527624	-0.109657	0.842371	0	0	0
14242	0	0	0	0	0	4.461769	-2.843935	8.239542	0.000976	0.001358	0.003170	-0.616211	0.157227	-0.436523	0.175978	-0.259732	0.106555	-0.943513	-19.147972	-26.911798	-154.247913	-0.803142	-0.387426	0.452618	0.276723	-0.915356	-0.292487	0.527624	-0.109659	0.842370	0	0	0
14243	0	0	0	0	0	4.451689	-2.856200	8.297408	-0.000122	0.003371	0.006092	-0.618408	0.156494	-0.439941	0.175979	-0.259722	0.106566	-0.943515	-19.148854	-26.910348	-154.247763	-0.803152	-0.387433	0.452596	0.276723	-0.915350	-0.292504	0.527609	-0.109681	0.842377	0	0	0
14244	0	0	0	0	0	4.466573	-2.837746	8.293692	-0.001520	0.002998	0.000881	-0.615479	0.163818	-0.437256	0.175959	-0.259718	0.106575	-0.943518	-19.149271	-26.910062	-154.250229	-0.803170	-0.387399	0.452591	0.276682	-0.915361	-0.292511	0.527603	-0.109712	0.842377	0	0	0
14245	0	0	0	0	0	4.451048	-2.856718	8.297573	-0.000478	0.000388	0.008657	-0.616455	0.160400	-0.435547	0.175974	-0.259720	0.106588	-0.943513	-19.151370	-26.909703	-154.247810	-0.803157	-0.387435	0.452586	0.276702	-0.915344	-0.292542	0.527613	-0.109726	0.842369	0	0	0
14246	0	0	0	0	0	4.456966	-2.866538	8.276076	-0.000319	0.004013	0.002397	-0.623779	0.162842	-0.427979	0.175962	-0.259710	0.106595	-0.943518	-19.151419	-26.908583	-154.249570	-0.803177	-0.387414	0.452568	0.276679	-0.915350	-0.292546	0.527595	-0.109750	0.842377	0	0	0
14247	0	0	0	0	0	4.432372	-2.844531	8.287075	0.002403	0.002029	0.003032	-0.617920	0.159912	-0.439697	0.175965	-0.259708	0.106585	-0.943519	-19.150229	-26.908531	-154.249539	-0.803177	-0.387414	0.452567	0.276691	-0.915352	-0.292529	0.527588	-0.109731	0.842383	0	0	0
14248	0	0	0	0	0	4.480628	-2.819618	8.290316	0.002403	0.002029	0.003032	-0.614502	0.150879	-0.437500	0.175960	-0.259704	0.106578	-0.943522	-19.149082	-26.908365	-154.250495	-0.803184	-0.387402	0.452565	0.276687	-0.915358	-0.292512	0.527579	-0.109722	0.842390	0	0	0
14249	0	0	0	0	0	4.465084	-2.838275	8.294313	0.002178	0.002372	0.004686	-0.622070	0.156006	-0.441650	0.175953	-0.259696	0.106576	-0.943526	-19.148309	-26.907671	-154.251747	-0.803198	-0.387386	0.452554	0.276677	-0.915364	-0.292503	0.527563	-0.109726	0.842400	0	0	0
14250	0	0	0	0	0	4.453034	-2.835408	8.262113	0.000751	0.001701	0.004824	-0.625000	0.167236	-0.431152	0.175954	-0.259694	0.106579	-0.943525	-19.148631	-26.907346	-154.251547	-0.803199	-0.387390	0.452549	0.276679	-0.915362	-0.292508	0.527561	-0.109731	0.842400	0	0	0
14251	0	0	0	0	0	4.470889	-2.848095	8.272881	-0.001652	-0.000328	0.001792	-0.626465	0.162842	-0.433350	0.175943	-0.259706	0.106586	-0.943523	-19.149622	-26.908770	-154.252262	-0.803193	-0.387375	0.452571	0.276652	-0.915367	-0.292519	0.527583	-0.109745	0.842385	0	0	0
14252	0	0	0	0	0	4.470698	-2.848184	8.272953	0.004027	0.002060	0.006589	-0.625488	0.158936	-0.438232	0.175957	-0.259699	0.106576	-0.943524	-19.148518	-26.907920	-154.251067	-0.803191	-0.387395	0.452558	0.276685	-0.915361	-0.292505	0.527569	-0.109722	0.842397	0	0	0
14253	0	0	0	0	0	4.443392	-2.864123	8.244540	-0.002327	0.000701	0.006754	-0.624023	0.157471	-0.438232	0.175969	-0.259704	0.106593	-0.943518	-19.151153	-26.907888	-154.248923	-0.803177	-0.387425	0.452557	0.276695	-0.915346	-0.292544	0.527585	-0.109744	0.842383	0	0	0
14254	0	0	0	0	0	4.463980	-2.839040	8.294646	0.005969	-0.001923	0.007748	-0.620117	0.155273	-0.440430	0.175993	-0.259713	0.106571	-0.943514	-19.149635	-26.908976	-154.246184	-0.803151	-0.387460	0.452574	0.276748	-0.915338	-0.292519	0.527598	-0.109688	0.842383	0	0	0
14255	0	0	0	0	0	4.461115	-2.876785	8.255387	0.001399	0.000374	0.005210	-0.626953	0.156006	-0.441895	0.175991	-0.259716	0.106571	-0.943513	-19.149655	-26.909315	-154.246355	-0.803150	-0.387456	0.452580	0.276743	-0.915339	-0.292518	0.527602	-0.109687	0.842380	0	0	0
14256	0	0	0	0	0	4.469912	-2.848625	8.273226	0.002825	0.001045	0.005072	-0.611816	0.159668	-0.438232	0.175997	-0.259715	0.106564	-0.943513	-19.148920	-26.909299	-154.245866	-0.803146	-0.387463	0.452579	0.276758	-0.915338	-0.292507	0.527599	-0.109671	0.842384	0	0	0
14257	0	0	0	0	0	4.454507	-2.867220	8.277164	0.003698	-0.000626	0.003805	-0.621094	0.166992	-0.434570	0.175992	-0.259721	0.106551	-0.943514	-19.147349	-26.910407	-154.246638	-0.803144	-0.387449	0.452597	0.276755	-0.915348	-0.292481	0.527605	-0.109646	0.842384	0	0	0
14258	0	0	0	0	0	4.451674	-2.835957	8.262658	0.003473	-0.000283	0.005459	-0.616943	0.158203	-0.434570	0.176001	-0.259726	0.106540	-0.943512	-19.146476	-26.911037	-154.245635	-0.803132	-0.387461	0.452606	0.276776	-0.915346	-0.292467	0.527611	-0.109619	0.842384	0	0	0
14259	0	0	0	0	0	4.451479	-2.835897	8.262783	0.004675	0.000732	0.006975	-0.629150	0.153564	-0.438477	0.176024	-0.259725	0.106524	-0.943510	-19.145188	-26.910895	-154.243202	-0.803117	-0.387495	0.452604	0.276828	-0.915336	-0.292448	0.527607	-0.109577	0.842391	0	0	0
14260	0	0	0	0	0	4.469306	-2.848129	8.273724	0.006776	0.000373	0.001875	-0.628418	0.160400	-0.439697	0.176020	-0.259725	0.106493	-0.943514	-19.141375	-26.911844	-154.244512	-0.803119	-0.387473	0.452619	0.276837	-0.915352	-0.292390	0.527599	-0.109522	0.842404	0	0	0
14261	0	0	0	0	0	4.451174	-2.835434	8.263106	0.003670	-0.000923	0.009153	-0.620117	0.153809	-0.431396	0.176044	-0.259731	0.106485	-0.943509	-19.141315	-26.912221	-154.241538	-0.803096	-0.387514	0.452625	0.276884	-0.915339	-0.292388	0.527609	-0.109491	0.842401	0	0	0
14262	0	0	0	0	0	4.469228	-2.848078	8.273784	0.000712	-0.005294	0.004992	-0.622070	0.160889	-0.441895	0.176050	-0.259762	0.106482	-0.943500	-19.142373	-26.915651	-154.239762	-0.803060	-0.387527	0.452678	0.276887	-0.915336	-0.292395	0.527663	-0.109470	0.842370	0	0	0
14263	0	0	0	0	0	4.454167	-2.866825	8.277483	0.003341	-0.003609	0.006370	-0.623047	0.156738	-0.438477	0.176063	-0.259782	0.106470	-0.943493	-19.142010	-26.917961	-154.237852	-0.803031	-0.387546	0.452714	0.276910	-0.915332	-0.292383	0.527696	-0.109432	0.842355	0	0	0
14264	0	0	0	0	0	4.469391	-2.848335	8.273607	-0.000252	0.000047	0.007001	-0.614746	0.154541	-0.437012	0.176074	-0.259788	0.106479	-0.943489	-19.143663	-26.918123	-154.235982	-0.803017	-0.387571	0.452717	0.276924	-0.915320	-0.292407	0.527710	-0.109440	0.842345	0	0	0
14265	0	0	0	0	0	4.478261	-2.820721	8.291220	-0.006606	-0.001309	0.007167	-0.621338	0.159424	-0.438477	0.176072	-0.259804	0.106518	-0.943480	-19.148969	-26.918998	-154.234606	-0.803001	-0.387588	0.452730	0.276893	-0.915305	-0.292483	0.527749	-0.109506	0.842312	0	0	0
14266	0	0	0	0	0	4.408626	-2.941080	8.213024	-0.019695	0.003960	0.005288	-0.623291	0.152588	-0.434082	0.176048	-0.259809	0.106620	-0.943472	-19.160918	-26.917363	-154.234601	-0.803013	-0.387593	0.452705	0.276790	-0.915279	-0.292663	0.527786	-0.109708	0.842263	0	0	0
14267	0	0	0	0	0	4.477747	-2.753979	8.315517	0.007818	-0.002239	0.009649	-0.625977	0.154053	-0.441406	0.176080	-0.259817	0.106592	-0.943467	-19.158745	-26.918331	-154.231106	-0.802982	-0.387639	0.452720	0.276862	-0.915268	-0.292628	0.527795	-0.109635	0.842267	0	0	0
14268	0	0	0	0	0	4.510920	-2.885620	8.272981	0.001069	-0.002312	0.002427	-0.623291	0.165771	-0.437988	0.176072	-0.259835	0.106587	-0.943464	-19.158609	-26.920629	-154.231515	-0.802969	-0.387625	0.452756	0.276846	-0.915276	-0.292620	0.527824	-0.109622	0.842250	0	0	0
14269	0	0	0	0	0	4.447276	-2.860259	8.298375	-0.000582	-0.002639	0.004218	-0.630371	0.164307	-0.430664	0.176070	-0.259855	0.106591	-0.943458	-19.159831	-26.922809	-154.230965	-0.802949	-0.387626	0.452790	0.276833	-0.915276	-0.292633	0.527859	-0.109622	0.842228	0	0	0
14270	0	0	0	0	0	4.477796	-2.823153	8.290644	0.001822	-0.000611	0.007249	-0.622803	0.163086	-0.431152	0.176086	-0.259862	0.106590	-0.943453	-19.160427	-26.923280	-154.228806	-0.802931	-0.387654	0.452797	0.276860	-0.915265	-0.292640	0.527873	-0.109609	0.842221	0	0	0
14271	0	0	0	0	0	4.478388	-2.839614	8.215125	-0.001678	-0.000624	0.007138	-0.627686	0.159180	-0.426514	0.176110	-0.259875	0.106600	-0.943444	-19.162993	-26.923972	-154.224983	-0.802901	-0.387706	0.452808	0.276894	-0.915243	-0.292676	0.527901	-0.109610	0.842203	0	0	0
14272	0	0	0	0	0	4.462217	-2.842580	8.294381	-0.001678	-0.000624	0.007138	-0.629639	0.165771	-0.438477	0.176121	-0.259885	0.106616	-0.943438	-19.165565	-26.924470	-154.222889	-0.802883	-0.387733	0.452816	0.276902	-0.915229	-0.292713	0.527924	-0.109629	0.842186	0	0	0
14273	0	0	0	0	0	4.486312	-2.865009	8.283505	-0.000027	-0.000297	0.005347	-0.633057	0.157959	-0.431152	0.176136	-0.259895	0.106617	-0.943432	-19.166631	-26.925316	-154.220588	-0.802861	-0.387763	0.452829	0.276925	-0.915218	-0.292726	0.527945	-0.109619	0.842174	0	0	0
14274	0	0	0	0	0	4.486209	-2.865313	8.283455	-0.001453	-0.000968	0.005485	-0.620605	0.150635	-0.437744	0.176139	-0.259908	0.106629	-0.943426	-19.168653	-26.926311	-154.219424	-0.802846	-0.387775	0.452844	0.276920	-0.915211	-0.292753	0.527970	-0.109634	0.842157	0	0	0
14275	0	0	0	0	0	4.450142	-2.840736	8.261841	-0.003105	-0.001295	0.007276	-0.627441	0.159912	-0.434570	0.176146	-0.259922	0.106650	-0.943419	-19.171978	-26.927281	-154.217461	-0.802826	-0.387800	0.452859	0.276917	-0.915197	-0.292800	0.528003	-0.109663	0.842132	0	0	0
14276	0	0	0	0	0	4.449853	-2.841132	8.261861	0.001732	0.003058	0.007991	-0.615479	0.154053	-0.431152	0.176163	-0.259911	0.106654	-0.943418	-19.172479	-26.925626	-154.215626	-0.802826	-0.387831	0.452834	0.276949	-0.915183	-0.292811	0.527987	-0.109665	0.842142	0	0	0
14277	0	0	0	0	0	4.461985	-2.860631	8.218753	-0.004173	0.001018	0.004850	-0.618164	0.156494	-0.437256	0.176159	-0.259918	0.106678	-0.943414	-19.175575	-26.925768	-154.215224	-0.802822	-0.387836	0.452836	0.276926	-0.915176	-0.292857	0.528005	-0.109710	0.842125	0	0	0
14278	0	0	0	0	0	4.460997	-2.844985	8.294213	-0.000475	0.000389	0.008653	-0.623779	0.149902	-0.431396	0.176177	-0.259921	0.106690	-0.943409	-19.177777	-26.925432	-154.212424	-0.802805	-0.387877	0.452831	0.276952	-0.915157	-0.292890	0.528016	-0.109721	0.842116	0	0	0
14279	0	0	0	0	0	4.451536	-2.873559	8.276564	-0.000763	0.004700	0.005703	-0.622314	0.169189	-0.431152	0.176173	-0.259905	0.106704	-0.943412	-19.178739	-26.923392	-154.213124	-0.802825	-0.387874	0.452799	0.276941	-0.915154	-0.292909	0.527993	-0.109756	0.842127	0	0	0
14280	0	0	0	0	0	4.481619	-2.836460	8.269090	0.001535	0.003699	0.004298	-0.618408	0.158447	-0.435547	0.176172	-0.259894	0.106705	-0.943416	-19.178277	-26.922085	-154.213666	-0.802838	-0.387871	0.452778	0.276943	-0.915155	-0.292906	0.527972	-0.109762	0.842139	0	0	0
14281	0	0	0	0	0	4.483949	-2.867856	8.283799	-0.000897	0.001374	0.006613	-0.624268	0.163818	-0.439697	0.176188	-0.259895	0.106715	-0.943411	-19.180041	-26.921684	-154.211281	-0.802824	-0.387905	0.452772	0.276967	-0.915139	-0.292933	0.527980	-0.109771	0.842133	0	0	0
14282	0	0	0	0	0	4.465612	-2.855567	8.273155	0.001957	0.002714	0.006337	-0.618652	0.166504	-0.427979	0.176198	-0.259887	0.106715	-0.943411	-19.179991	-26.920526	-154.210377	-0.802826	-0.387922	0.452754	0.276987	-0.915132	-0.292935	0.527966	-0.109769	0.842142	0	0	0
14283	0	0	0	0	0	4.447353	-2.843321	8.262454	-0.001678	-0.000624	0.007137	-0.627686	0.155029	-0.434326	0.176218	-0.259898	0.106727	-0.943403	-19.182551	-26.921112	-154.207093	-0.802800	-0.387966	0.452763	0.277013	-0.915113	-0.292971	0.527992	-0.109776	0.842124	0	0	0
14284	0	0	0	0	0	4.459003	-2.846629	8.294721	0.000620	-0.001626	0.005732	-0.619873	0.160645	-0.434082	0.176226	-0.259912	0.106729	-0.943398	-19.183515	-26.922416	-154.205639	-0.802781	-0.387982	0.452784	0.277021	-0.915107	-0.292982	0.528017	-0.109770	0.842110	0	0	0
14285	0	0	0	0	0	4.468618	-2.834827	8.236979	-0.001319	0.002359	0.004573	-0.625000	0.157959	-0.428711	0.176223	-0.259909	0.106741	-0.943398	-19.184772	-26.921886	-154.205682	-0.802785	-0.387983	0.452775	0.277012	-0.915104	-0.293002	0.528016	-0.109793	0.842107	0	0	0
14286	0	0	0	0	0	4.464725	-2.856726	8.273233	0.000530	0.002044	0.006475	-0.615967	0.160645	-0.434570	0.176232	-0.259905	0.106747	-0.943396	-19.185642	-26.921065	-154.204553	-0.802783	-0.388002	0.452763	0.277025	-0.915095	-0.293017	0.528012	-0.109802	0.842109	0	0	0
14287	0	0	0	0	0	4.461066	-2.878786	8.309304	-0.003240	-0.004620	0.008185	-0.616699	0.165527	-0.440918	0.176252	-0.259936	0.106766	-0.943382	-19.189693	-26.923633	-154.200513	-0.802737	-0.388050	0.452803	0.277041	-0.915073	-0.293070	0.528073	-0.109813	0.842069	0	0	0
14288	0	0	0	0	0	4.468165	-2.836198	8.236753	-0.003329	-0.000950	0.008927	-0.621826	0.162109	-0.434814	0.176269	-0.259948	0.106791	-0.943373	-19.193734	-26.923971	-154.197263	-0.802713	-0.388094	0.452808	0.277054	-0.915050	-0.293128	0.528103	-0.109846	0.842046	0	0	0
14289	0	0	0	0	0	4.470631	-2.867962	8.251251	-0.002324	0.000704	0.006750	-0.627686	0.156006	-0.435303	0.176278	-0.259952	0.106809	-0.943368	-19.196381	-26.923825	-154.195457	-0.802702	-0.388120	0.452806	0.277059	-0.915036	-0.293167	0.528117	-0.109872	0.842033	0	0	0
14290	0	0	0	0	0	4.460569	-2.880485	8.308983	-0.000474	0.000389	0.008651	-0.628662	0.153809	-0.430908	0.176296	-0.259956	0.106821	-0.943362	-19.198583	-26.923489	-154.192658	-0.802685	-0.388160	0.452800	0.277085	-0.915018	-0.293201	0.528129	-0.109884	0.842025	0	0	0
14291	0	0	0	0	0	4.448624	-2.877830	8.276645	-0.000026	-0.000298	0.005345	-0.619385	0.161621	-0.438721	0.176300	-0.259965	0.106825	-0.943358	-19.199529	-26.924307	-154.191810	-0.802674	-0.388169	0.452813	0.277086	-0.915014	-0.293212	0.528146	-0.109886	0.842014	0	0	0
14292	0	0	0	0	0	4.479036	-2.840787	8.269004	0.001177	0.000716	0.006860	-0.620850	0.157959	-0.439453	0.176312	-0.259966	0.106828	-0.943356	-19.200261	-26.924132	-154.190166	-0.802664	-0.388193	0.452810	0.277106	-0.915004	-0.293224	0.528150	-0.109883	0.842011	0	0	0
14293	0	0	0	0	0	4.436500	-2.875289	8.244365	-0.000026	-0.000298	0.005345	-0.626221	0.159424	-0.434326	0.176312	-0.259973	0.106834	-0.943353	-19.201239	-26.924783	-154.189768	-0.802656	-0.388196	0.452820	0.277101	-0.915001	-0.293236	0.528165	-0.109891	0.842001	0	0	0
14294	0	0	0	0	0	4.472358	-2.831662	8.290677	0.002380	0.001729	0.008375	-0.624268	0.162842	-0.436035	0.176332	-0.259968	0.106834	-0.943351	-19.201600	-26.923775	-154.187419	-0.802648	-0.388233	0.452805	0.277140	-0.914987	-0.293244	0.528157	-0.109882	0.842007	0	0	0
14295	0	0	0	0	0	4.478273	-2.841417	8.269201	0.001177	0.000716	0.006860	-0.622803	0.154053	-0.431641	0.176348	-0.259970	0.106834	-0.943347	-19.202250	-26.923700	-154.185327	-0.802634	-0.388262	0.452804	0.277167	-0.914976	-0.293254	0.528164	-0.109873	0.842004	0	0	0
14296	0	0	0	0	0	4.462738	-2.860318	8.273065	-0.000250	0.000046	0.006998	-0.626953	0.161133	-0.446045	0.176359	-0.259975	0.106843	-0.943342	-19.203901	-26.923861	-154.183459	-0.802620	-0.388288	0.452806	0.277181	-0.914964	-0.293278	0.528177	-0.109881	0.841995	0	0	0
14297	0	0	0	0	0	4.477793	-2.842041	8.269247	-0.000896	0.001375	0.006611	-0.626709	0.158936	-0.439697	0.176363	-0.259975	0.106856	-0.943340	-19.205537	-26.923420	-154.182720	-0.802618	-0.388300	0.452799	0.277180	-0.914956	-0.293303	0.528181	-0.109904	0.841989	0	0	0
14298	0	0	0	0	0	4.458719	-2.882512	8.309272	0.002047	-0.000957	0.005593	-0.624268	0.157959	-0.435791	0.176371	-0.259984	0.106852	-0.943337	-19.205582	-26.924389	-154.181492	-0.802603	-0.388313	0.452814	0.277195	-0.914952	-0.293301	0.528196	-0.109887	0.841982	0	0	0
14299	0	0	0	0	0	4.468393	-2.870556	8.251561	0.001401	0.000372	0.005207	-0.617920	0.155518	-0.438477	0.176373	-0.259988	0.106850	-0.943336	-19.205631	-26.924777	-154.181077	-0.802598	-0.388318	0.452820	0.277199	-0.914951	-0.293301	0.528202	-0.109881	0.841979	0	0	0
14300	0	0	0	0	0	4.446694	-2.879653	8.277048	0.003474	-0.000287	0.005455	-0.619385	0.163818	-0.435059	0.176382	-0.259992	0.106839	-0.943334	-19.204756	-26.925409	-154.180075	-0.802586	-0.388330	0.452830	0.277220	-0.914949	-0.293286	0.528208	-0.109854	0.841979	0	0	0
14301	0	0	0	0	0	4.477236	-2.842342	8.269445	0.004120	-0.001616	0.005841	-0.626221	0.159668	-0.432373	0.176393	-0.260002	0.106824	-0.943331	-19.203632	-26.926700	-154.178853	-0.802569	-0.388342	0.452850	0.277244	-0.914948	-0.293266	0.528222	-0.109816	0.841975	0	0	0
14302	0	0	0	0	0	4.461692	-2.860958	8.273407	0.001538	0.003698	0.004296	-0.627930	0.162842	-0.437988	0.176392	-0.259991	0.106825	-0.943334	-19.203167	-26.925394	-154.179396	-0.802582	-0.388339	0.452830	0.277246	-0.914949	-0.293263	0.528202	-0.109822	0.841987	0	0	0
14303	0	0	0	0	0	4.479438	-2.873679	8.284221	0.001041	-0.002610	0.007770	-0.619629	0.162109	-0.437500	0.176414	-0.260008	0.106824	-0.943325	-19.204465	-26.926966	-154.175941	-0.802547	-0.388382	0.452854	0.277282	-0.914933	-0.293278	0.528236	-0.109801	0.841968	0	0	0
14304	0	0	0	0	0	4.476783	-2.842481	8.269642	0.005771	-0.001291	0.004051	-0.622559	0.157471	-0.441162	0.176420	-0.260017	0.106800	-0.943324	-19.201985	-26.928406	-154.175578	-0.802535	-0.388382	0.452877	0.277304	-0.914939	-0.293238	0.528243	-0.109749	0.841970	0	0	0
14305	0	0	0	0	0	4.446056	-2.879632	8.277399	0.001402	0.000372	0.005206	-0.629150	0.154785	-0.440430	0.176421	-0.260019	0.106799	-0.943324	-19.202041	-26.928728	-154.175377	-0.802531	-0.388384	0.452882	0.277305	-0.914939	-0.293238	0.528248	-0.109746	0.841968	0	0	0
14306	0	0	0	0	0	4.503625	-2.826753	8.298285	0.003698	-0.000631	0.003802	-0.625977	0.158936	-0.430420	0.176423	-0.260026	0.106785	-0.943323	-19.200616	-26.929858	-154.175305	-0.802522	-0.388381	0.452899	0.277314	-0.914944	-0.293214	0.528256	-0.109715	0.841967	0	0	0
14307	0	0	0	0	0	4.439655	-2.870055	8.299074	0.000198	-0.000641	0.003691	-0.620605	0.166260	-0.433594	0.176419	-0.260037	0.106785	-0.943321	-19.201028	-26.931134	-154.175419	-0.802514	-0.388375	0.452919	0.277303	-0.914947	-0.293217	0.528275	-0.109715	0.841955	0	0	0
14308	0	0	0	0	0	4.467322	-2.870882	8.252027	-0.001677	-0.000622	0.007134	-0.626465	0.161621	-0.432861	0.176429	-0.260047	0.106801	-0.943314	-19.203598	-26.931630	-154.173326	-0.802496	-0.388403	0.452927	0.277310	-0.914933	-0.293253	0.528298	-0.109733	0.841938	0	0	0
14309	0	0	0	0	0	4.476253	-2.842986	8.269755	-0.000869	0.001672	0.001266	-0.614746	0.156250	-0.436279	0.176420	-0.260051	0.106804	-0.943315	-19.203840	-26.932102	-154.174226	-0.802499	-0.388389	0.452934	0.277291	-0.914938	-0.293255	0.528304	-0.109743	0.841933	0	0	0
14310	0	0	0	0	0	4.442920	-2.849188	8.262817	0.001265	-0.002954	0.006117	-0.623047	0.163818	-0.434326	0.176431	-0.260069	0.106802	-0.943308	-19.204668	-26.934052	-154.172258	-0.802472	-0.388410	0.452965	0.277306	-0.914931	-0.293263	0.528337	-0.109725	0.841915	0	0	0
14311	0	0	0	0	0	4.476248	-2.843384	8.269621	-0.000808	-0.002294	0.005868	-0.620117	0.162598	-0.440674	0.176437	-0.260087	0.106809	-0.943301	-19.206452	-26.935726	-154.170643	-0.802449	-0.388426	0.452991	0.277308	-0.914923	-0.293284	0.528371	-0.109728	0.841893	0	0	0
14312	0	0	0	0	0	4.472685	-2.865322	8.305667	-0.000808	-0.002294	0.005868	-0.622314	0.161621	-0.425293	0.176444	-0.260105	0.106817	-0.943294	-19.208336	-26.937366	-154.168966	-0.802426	-0.388444	0.453016	0.277309	-0.914915	-0.293308	0.528405	-0.109732	0.841871	0	0	0
14313	0	0	0	0	0	4.542958	-2.694780	8.332640	-0.017700	0.006998	0.006275	-0.630127	0.169189	-0.437500	0.176431	-0.260095	0.106912	-0.943288	-19.219061	-26.933991	-154.168344	-0.802446	-0.388465	0.452964	0.277236	-0.914884	-0.293474	0.528414	-0.109919	0.841841	0	0	0
14314	0	0	0	0	0	4.450811	-3.030249	8.205751	0.003002	-0.006300	0.003584	-0.621094	0.158936	-0.426270	0.176434	-0.260129	0.106895	-0.943280	-19.218518	-26.938229	-154.167205	-0.802408	-0.388466	0.453030	0.277240	-0.914889	-0.293455	0.528469	-0.109873	0.841812	0	0	0
14315	0	0	0	0	0	4.421154	-2.860991	8.287402	-0.005736	-0.002972	0.005895	-0.617188	0.150879	-0.436035	0.176445	-0.260157	0.106922	-0.943267	-19.223270	-26.940378	-154.164079	-0.802371	-0.388502	0.453063	0.277236	-0.914870	-0.293519	0.528527	-0.109906	0.841772	0	0	0
14316	0	0	0	0	0	4.442648	-2.852508	8.261818	0.000173	-0.000939	0.009034	-0.623047	0.162109	-0.441895	0.176467	-0.260166	0.106931	-0.943260	-19.225334	-26.940687	-154.160766	-0.802347	-0.388548	0.453068	0.277268	-0.914850	-0.293549	0.528547	-0.109907	0.841759	0	0	0
14317	0	0	0	0	0	4.487403	-2.849789	8.301097	0.000534	0.002044	0.006472	-0.623291	0.162354	-0.433594	0.176467	-0.260160	0.106939	-0.943261	-19.226025	-26.939855	-154.160765	-0.802353	-0.388550	0.453055	0.277266	-0.914847	-0.293561	0.528539	-0.109923	0.841762	0	0	0
14318	0	0	0	0	0	4.481757	-2.856597	8.247170	-0.000584	-0.002638	0.004215	-0.623047	0.172119	-0.440674	0.176466	-0.260180	0.106943	-0.943255	-19.227360	-26.941994	-154.160017	-0.802332	-0.388554	0.453088	0.277256	-0.914846	-0.293575	0.528576	-0.109924	0.841739	0	0	0
14319	0	0	0	0	0	4.460221	-2.866080	8.272428	-0.004953	-0.000974	0.005370	-0.628174	0.162354	-0.435791	0.176472	-0.260197	0.106969	-0.943246	-19.231339	-26.943061	-154.158000	-0.802311	-0.388578	0.453105	0.277246	-0.914831	-0.293631	0.528613	-0.109962	0.841711	0	0	0
14320	0	0	0	0	0	4.469274	-2.838579	8.289975	-0.004531	-0.001959	0.007409	-0.622070	0.166260	-0.439209	0.176480	-0.260215	0.106997	-0.943236	-19.235750	-26.944229	-154.155457	-0.802286	-0.388610	0.453123	0.277241	-0.914813	-0.293693	0.528654	-0.110001	0.841679	0	0	0
14321	0	0	0	0	0	4.484139	-2.889551	8.261268	-0.002544	0.001050	0.008399	-0.618652	0.164063	-0.434570	0.176499	-0.260218	0.107018	-0.943229	-19.238942	-26.943642	-154.152465	-0.802269	-0.388654	0.453114	0.277262	-0.914791	-0.293741	0.528668	-0.110028	0.841667	0	0	0
14322	0	0	0	0	0	4.450611	-2.896099	8.254304	-0.001676	-0.000622	0.007133	-0.625977	0.163086	-0.434570	0.176509	-0.260228	0.107033	-0.943223	-19.241512	-26.944139	-154.150372	-0.802252	-0.388681	0.453122	0.277269	-0.914777	-0.293778	0.528691	-0.110047	0.841650	0	0	0
14323	0	0	0	0	0	4.477401	-2.880930	8.282804	0.000733	0.001402	0.010162	-0.627441	0.167725	-0.442871	0.176541	-0.260226	0.107041	-0.943217	-19.243281	-26.943043	-154.146271	-0.802232	-0.388742	0.453105	0.277323	-0.914751	-0.293806	0.528693	-0.110044	0.841650	0	0	0
14324	0	0	0	0	0	4.496058	-2.841134	8.242811	-0.001676	-0.000622	0.007132	-0.618164	0.170898	-0.434570	0.176551	-0.260236	0.107056	-0.943210	-19.245851	-26.943539	-154.144179	-0.802214	-0.388770	0.453112	0.277331	-0.914737	-0.293843	0.528716	-0.110063	0.841633	0	0	0
14325	0	0	0	0	0	4.470751	-2.872102	8.304366	0.001825	-0.000615	0.007243	-0.625488	0.162109	-0.434814	0.176574	-0.260243	0.107053	-0.943204	-19.246439	-26.944032	-154.141118	-0.802190	-0.388811	0.453120	0.277372	-0.914722	-0.293850	0.528731	-0.110041	0.841626	0	0	0
14326	0	0	0	0	0	4.474014	-2.850763	8.268290	-0.002603	0.005018	0.003798	-0.616943	0.157471	-0.438965	0.176565	-0.260229	0.107073	-0.943208	-19.248082	-26.942106	-154.142244	-0.802211	-0.388802	0.453090	0.277348	-0.914720	-0.293879	0.528712	-0.110090	0.841632	0	0	0
14327	0	0	0	0	0	4.452186	-2.860232	8.293703	-0.002881	-0.001634	0.005618	-0.630859	0.160400	-0.434326	0.176564	-0.260246	0.107091	-0.943201	-19.250894	-26.943468	-154.141247	-0.802195	-0.388811	0.453111	0.277331	-0.914713	-0.293917	0.528745	-0.110117	0.841607	0	0	0
14328	0	0	0	0	0	4.489044	-2.833198	8.264269	-0.004531	-0.001958	0.007407	-0.616455	0.161377	-0.439453	0.176573	-0.260264	0.107119	-0.943191	-19.255304	-26.944635	-154.138705	-0.802169	-0.388843	0.453129	0.277326	-0.914695	-0.293979	0.528787	-0.110156	0.841576	0	0	0
14329	0	0	0	0	0	4.469919	-2.873956	8.304173	-0.000892	0.001375	0.006608	-0.624512	0.159424	-0.433105	0.176580	-0.260265	0.107131	-0.943189	-19.256975	-26.944206	-154.137454	-0.802164	-0.388862	0.453123	0.277332	-0.914685	-0.294005	0.528792	-0.110174	0.841571	0	0	0
14330	0	0	0	0	0	4.479499	-2.862569	8.246325	-0.006827	-0.000953	0.008811	-0.624023	0.163574	-0.430664	0.176592	-0.260280	0.107172	-0.943177	-19.262990	-26.944564	-154.134273	-0.802139	-0.388905	0.453128	0.277326	-0.914659	-0.294092	0.528831	-0.110239	0.841537	0	0	0
14331	0	0	0	0	0	4.460291	-2.903562	8.286183	-0.002543	0.001050	0.008398	-0.625488	0.163330	-0.431396	0.176612	-0.260283	0.107192	-0.943170	-19.266165	-26.944048	-154.131088	-0.802121	-0.388952	0.453120	0.277350	-0.914636	-0.294140	0.528846	-0.110263	0.841525	0	0	0
14332	0	0	0	0	0	4.448404	-2.900998	8.253773	-0.003079	-0.000992	0.001927	-0.620361	0.159424	-0.429688	0.176596	-0.260299	0.107207	-0.943167	-19.268143	-26.945728	-154.132076	-0.802116	-0.388932	0.453146	0.277308	-0.914641	-0.294165	0.528876	-0.110293	0.841502	0	0	0
14333	0	0	0	0	0	4.463624	-2.882783	8.249879	-0.000470	0.000389	0.008646	-0.623535	0.161377	-0.429199	0.176621	-0.260304	0.107217	-0.943160	-19.270267	-26.945526	-154.128539	-0.802094	-0.388982	0.453143	0.277346	-0.914619	-0.294196	0.528890	-0.110296	0.841493	0	0	0
14334	0	0	0	0	0	4.481426	-2.895872	8.260527	-0.004730	-0.001316	0.003716	-0.617188	0.168457	-0.435791	0.176612	-0.260322	0.107242	-0.943154	-19.273714	-26.947042	-154.128371	-0.802082	-0.388979	0.453167	0.277310	-0.914615	-0.294243	0.528927	-0.110339	0.841464	0	0	0
14335	0	0	0	0	0	4.460728	-2.852373	8.235198	0.002187	0.002366	0.004681	-0.628906	0.164063	-0.431641	0.176621	-0.260317	0.107236	-0.943155	-19.273070	-26.946467	-154.127556	-0.802080	-0.388993	0.453158	0.277331	-0.914611	-0.294235	0.528918	-0.110325	0.841471	0	0	0
14336	0	0	0	0	0	4.487411	-2.837072	8.263827	-0.001759	0.003047	0.007874	-0.618164	0.161377	-0.426025	0.176633	-0.260309	0.107256	-0.943152	-19.275538	-26.944837	-154.125792	-0.802080	-0.389023	0.453132	0.277344	-0.914594	-0.294276	0.528912	-0.110359	0.841471	0	0	0
14337	0	0	0	0	0	4.465489	-2.846593	8.289267	-0.002320	0.000707	0.006745	-0.619873	0.155762	-0.432373	0.176649	-0.260316	0.107271	-0.943146	-19.278192	-26.944851	-154.123061	-0.802061	-0.389061	0.453133	0.277363	-0.914576	-0.294315	0.528930	-0.110376	0.841457	0	0	0
14338	0	0	0	0	0	4.477576	-2.866180	8.246116	-0.001536	0.002704	0.006222	-0.623291	0.155273	-0.436523	0.176654	-0.260311	0.107288	-0.943144	-19.280112	-26.943719	-154.122226	-0.802064	-0.389077	0.453115	0.277364	-0.914565	-0.294346	0.528926	-0.110406	0.841456	0	0	0
14339	0	0	0	0	0	4.458118	-2.906894	8.286184	-0.001981	0.003391	0.009525	-0.615723	0.157471	-0.438721	0.176667	-0.260300	0.107311	-0.943142	-19.282948	-26.941655	-154.120341	-0.802065	-0.389110	0.453083	0.277378	-0.914546	-0.294393	0.528916	-0.110447	0.841456	0	0	0
14340	0	0	0	0	0	4.470588	-2.857472	8.267827	0.002469	-0.001946	0.007627	-0.623535	0.164795	-0.435547	0.176686	-0.260312	0.107307	-0.943136	-19.283406	-26.942772	-154.117667	-0.802039	-0.389144	0.453100	0.277411	-0.914535	-0.294397	0.528939	-0.110423	0.841446	0	0	0
14341	0	0	0	0	0	4.479189	-2.898211	8.260920	0.003839	0.002690	0.002891	-0.626221	0.158447	-0.434082	0.176678	-0.260303	0.107293	-0.943141	-19.281212	-26.942286	-154.119277	-0.802054	-0.389123	0.453093	0.277408	-0.914546	-0.294366	0.528918	-0.110406	0.841461	0	0	0
14342	0	0	0	0	0	4.461098	-2.885505	8.250294	0.002270	-0.001304	0.003938	-0.621094	0.161865	-0.429932	0.176679	-0.260315	0.107285	-0.943139	-19.280708	-26.943754	-154.118978	-0.802041	-0.389122	0.453116	0.277410	-0.914549	-0.294354	0.528936	-0.110385	0.841452	0	0	0
14343	0	0	0	0	0	4.448494	-2.866307	8.293587	0.003616	0.003033	0.004543	-0.620117	0.158203	-0.432617	0.176685	-0.260305	0.107274	-0.943141	-19.279080	-26.942882	-154.118886	-0.802047	-0.389126	0.453102	0.277431	-0.914549	-0.294333	0.528917	-0.110364	0.841467	0	0	0
14344	0	0	0	0	0	4.491268	-2.848104	8.243016	0.005688	0.002371	0.004791	-0.622314	0.161621	-0.433350	0.176693	-0.260296	0.107254	-0.943145	-19.276500	-26.942201	-154.118848	-0.802051	-0.389129	0.453091	0.277458	-0.914553	-0.294297	0.528895	-0.110327	0.841485	0	0	0
14345	0	0	0	0	0	4.451463	-2.844314	8.257913	0.004260	0.001704	0.004928	-0.630371	0.156738	-0.430664	0.176700	-0.260291	0.107239	-0.943147	-19.274727	-26.941937	-154.118538	-0.802051	-0.389135	0.453087	0.277481	-0.914554	-0.294271	0.528884	-0.110298	0.841496	0	0	0
14346	0	0	0	0	0	4.471657	-2.888199	8.283376	0.000958	0.001057	0.008507	-0.625244	0.164063	-0.431885	0.176719	-0.260290	0.107245	-0.943142	-19.276004	-26.941264	-154.115968	-0.802039	-0.389173	0.453077	0.277513	-0.914537	-0.294292	0.528886	-0.110298	0.841495	0	0	0
14347	0	0	0	0	0	4.486764	-2.869825	8.279613	0.001404	0.000369	0.005203	-0.620361	0.160645	-0.431885	0.176730	-0.260296	0.107242	-0.943139	-19.276090	-26.941759	-154.114549	-0.802025	-0.389191	0.453085	0.277533	-0.914532	-0.294292	0.528896	-0.110284	0.841491	0	0	0
14348	0	0	0	0	0	4.468416	-2.857165	8.269107	0.005607	0.006041	0.005533	-0.616943	0.152588	-0.438477	0.176739	-0.260269	0.107226	-0.943147	-19.273408	-26.938953	-154.114841	-0.802047	-0.389197	0.453041	0.277566	-0.914532	-0.294260	0.528845	-0.110261	0.841526	0	0	0
14349	0	0	0	0	0	4.476775	-2.897914	8.262332	0.001825	-0.000616	0.007241	-0.620361	0.155762	-0.434570	0.176747	-0.260274	0.107226	-0.943144	-19.273831	-26.939448	-154.113573	-0.802035	-0.389213	0.453049	0.277580	-0.914526	-0.294265	0.528856	-0.110253	0.841520	0	0	0
14350	0	0	0	0	0	4.452360	-2.875591	8.273362	0.006696	0.004024	0.002615	-0.628662	0.152344	-0.433350	0.176745	-0.260257	0.107200	-0.943152	-19.269916	-26.938285	-154.115206	-0.802055	-0.389194	0.453031	0.277595	-0.914539	-0.294210	0.528819	-0.110213	0.841548	0	0	0
14351	0	0	0	0	0	4.452026	-2.875334	8.273631	0.004681	0.000719	0.006965	-0.623291	0.161377	-0.435791	0.176756	-0.260255	0.107186	-0.943152	-19.268474	-26.938186	-154.114266	-0.802049	-0.389207	0.453029	0.277624	-0.914537	-0.294189	0.528812	-0.110182	0.841557	0	0	0
14352	0	0	0	0	0	4.482506	-2.838101	8.266135	0.004682	0.000719	0.006965	-0.627197	0.162109	-0.430176	0.176773	-0.260253	0.107173	-0.943151	-19.267227	-26.937989	-154.112560	-0.802039	-0.389232	0.453026	0.277664	-0.914530	-0.294171	0.528807	-0.110148	0.841564	0	0	0
14353	0	0	0	0	0	4.466928	-2.856448	8.270159	0.006556	0.000697	0.003525	-0.625488	0.167480	-0.433594	0.176781	-0.260253	0.107143	-0.943153	-19.263880	-26.938573	-154.112362	-0.802033	-0.389233	0.453035	0.277695	-0.914537	-0.294121	0.528799	-0.110089	0.841577	0	0	0
14354	0	0	0	0	0	4.490835	-2.878389	8.259543	0.004261	0.001704	0.004927	-0.622803	0.160156	-0.426758	0.176788	-0.260248	0.107130	-0.943154	-19.262218	-26.938228	-154.112101	-0.802034	-0.389237	0.453030	0.277716	-0.914538	-0.294097	0.528787	-0.110062	0.841588	0	0	0
14355	0	0	0	0	0	4.451128	-2.874677	8.274342	0.003476	-0.000292	0.005451	-0.623535	0.160400	-0.439941	0.176807	-0.260255	0.107115	-0.943151	-19.261304	-26.939012	-154.109895	-0.802013	-0.389266	0.453042	0.277756	-0.914531	-0.294082	0.528797	-0.110022	0.841587	0	0	0
14356	0	0	0	0	0	4.460068	-2.846506	8.292215	0.002189	0.002367	0.004679	-0.622314	0.163330	-0.428955	0.176809	-0.260249	0.107112	-0.943152	-19.260698	-26.938356	-154.109924	-0.802018	-0.389267	0.453032	0.277764	-0.914531	-0.294075	0.528785	-0.110017	0.841595	0	0	0
14357	0	0	0	0	0	4.468490	-2.887452	8.285345	-0.001312	0.002362	0.004568	-0.620117	0.167969	-0.432617	0.176809	-0.260246	0.107123	-0.943152	-19.261976	-26.937796	-154.109774	-0.802021	-0.389271	0.453023	0.277758	-0.914527	-0.294095	0.528784	-0.110040	0.841593	0	0	0
14358	0	0	0	0	0	4.471868	-2.866005	8.249273	0.002832	0.001037	0.005065	-0.619629	0.161865	-0.428223	0.176814	-0.260246	0.107116	-0.943152	-19.261235	-26.937786	-154.109288	-0.802018	-0.389278	0.453023	0.277772	-0.914526	-0.294084	0.528781	-0.110023	0.841597	0	0	0
14359	0	0	0	0	0	4.483329	-2.868962	8.281773	0.004261	0.001704	0.004927	-0.629639	0.167480	-0.447998	0.176830	-0.260242	0.107100	-0.943152	-19.259545	-26.937542	-154.107943	-0.802011	-0.389298	0.453019	0.277810	-0.914522	-0.294060	0.528773	-0.109986	0.841607	0	0	0
14360	0	0	0	0	0	4.473972	-2.897098	8.264137	0.002047	-0.000959	0.005589	-0.622314	0.163086	-0.432373	0.176838	-0.260251	0.107095	-0.943148	-19.259590	-26.938512	-154.106715	-0.801995	-0.389312	0.453034	0.277825	-0.914518	-0.294058	0.528788	-0.109969	0.841600	0	0	0
14361	0	0	0	0	0	4.476828	-2.859335	8.303524	0.003055	0.000693	0.003413	-0.625000	0.161133	-0.438721	0.176837	-0.260253	0.107084	-0.943149	-19.258224	-26.939023	-154.107033	-0.801994	-0.389306	0.453042	0.277830	-0.914523	-0.294036	0.528787	-0.109947	0.841603	0	0	0
14362	0	0	0	0	0	4.464932	-2.856289	8.271291	0.000983	0.001355	0.003165	-0.625488	0.163330	-0.431396	0.176832	-0.260253	0.107083	-0.943150	-19.257989	-26.939199	-154.107766	-0.801998	-0.389295	0.453045	0.277820	-0.914528	-0.294033	0.528787	-0.109948	0.841603	0	0	0
14363	0	0	0	0	0	4.482660	-2.869139	8.282073	-0.002097	0.000367	0.005091	-0.619629	0.161865	-0.434570	0.176834	-0.260261	0.107097	-0.943146	-19.260053	-26.939636	-154.106796	-0.801988	-0.389307	0.453052	0.277814	-0.914520	-0.294062	0.528805	-0.109970	0.841589	0	0	0
14364	0	0	0	0	0	4.449109	-2.875302	8.275211	0.002189	0.002366	0.004678	-0.628906	0.159912	-0.435059	0.176836	-0.260255	0.107093	-0.943148	-19.259446	-26.938979	-154.106826	-0.801993	-0.389309	0.453041	0.277823	-0.914520	-0.294055	0.528793	-0.109964	0.841597	0	0	0
14365	0	0	0	0	0	4.488290	-2.878867	8.260759	0.003841	0.002689	0.002889	-0.622559	0.168213	-0.429199	0.176833	-0.260247	0.107079	-0.943152	-19.257262	-26.938569	-154.107916	-0.802003	-0.389295	0.453035	0.277827	-0.914528	-0.294024	0.528775	-0.109942	0.841611	0	0	0
14366	0	0	0	0	0	4.466415	-2.887686	8.286382	0.001992	0.003007	0.000989	-0.620361	0.163818	-0.426025	0.176817	-0.260240	0.107072	-0.943158	-19.255693	-26.938263	-154.110319	-0.802022	-0.389262	0.453030	0.277805	-0.914542	-0.294001	0.528759	-0.109941	0.841622	0	0	0
14367	0	0	0	0	0	4.463652	-2.856354	8.271960	0.004905	0.000374	0.005313	-0.618408	0.161865	-0.430664	0.176841	-0.260243	0.107050	-0.943155	-19.253899	-26.938722	-154.107835	-0.802001	-0.389295	0.453037	0.277859	-0.914535	-0.293974	0.528761	-0.109887	0.841627	0	0	0
14368	0	0	0	0	0	4.496758	-2.850355	8.279009	0.000983	0.001356	0.003164	-0.617920	0.161865	-0.437256	0.176835	-0.260244	0.107050	-0.943156	-19.253665	-26.938898	-154.108569	-0.802005	-0.389285	0.453040	0.277848	-0.914539	-0.293970	0.528761	-0.109889	0.841627	0	0	0
14369	0	0	0	0	0	4.459559	-2.877887	8.308380	0.002412	0.002022	0.003027	-0.622559	0.153809	-0.434082	0.176830	-0.260240	0.107042	-0.943159	-19.252415	-26.938772	-154.109547	-0.802013	-0.389271	0.453038	0.277845	-0.914546	-0.293952	0.528751	-0.109879	0.841635	0	0	0
14370	0	0	0	0	0	4.484541	-2.847347	8.246940	0.000340	0.002685	0.002778	-0.619385	0.167480	-0.437256	0.176821	-0.260235	0.107045	-0.943161	-19.252315	-26.938302	-154.110797	-0.802025	-0.389255	0.453031	0.277828	-0.914551	-0.293952	0.528742	-0.109892	0.841639	0	0	0
14371	0	0	0	0	0	4.480664	-2.868995	8.283203	0.001627	0.000026	0.003551	-0.621826	0.155518	-0.432129	0.176817	-0.260240	0.107040	-0.943161	-19.251826	-26.939161	-154.111283	-0.802022	-0.389246	0.453044	0.277821	-0.914556	-0.293942	0.528750	-0.109883	0.841635	0	0	0
14372	0	0	0	0	0	4.486663	-2.878654	8.261718	0.000340	0.002685	0.002778	-0.624512	0.160400	-0.429688	0.176807	-0.260235	0.107043	-0.943164	-19.251726	-26.938691	-154.112533	-0.802034	-0.389230	0.453037	0.277804	-0.914562	-0.293942	0.528741	-0.109896	0.841639	0	0	0
14373	0	0	0	0	0	4.453210	-2.884637	8.254857	0.002270	-0.001304	0.003937	-0.622070	0.161621	-0.437744	0.176809	-0.260247	0.107034	-0.943161	-19.251093	-26.940288	-154.112113	-0.802019	-0.389230	0.453062	0.277809	-0.914564	-0.293928	0.528760	-0.109872	0.841630	0	0	0
14374	0	0	0	0	0	4.474002	-2.859523	8.304983	0.000984	0.001356	0.003164	-0.618164	0.161621	-0.437988	0.176804	-0.260248	0.107033	-0.943162	-19.250858	-26.940464	-154.112847	-0.802023	-0.389219	0.453064	0.277799	-0.914569	-0.293924	0.528760	-0.109873	0.841630	0	0	0
14375	0	0	0	0	0	4.479937	-2.869030	8.283584	0.003421	0.003673	0.000851	-0.629883	0.159424	-0.428955	0.176785	-0.260236	0.107020	-0.943171	-19.248251	-26.939819	-154.115940	-0.802049	-0.389178	0.453054	0.277777	-0.914587	-0.293888	0.528733	-0.109865	0.841648	0	0	0
14376	0	0	0	0	0	4.473469	-2.859337	8.305334	0.000984	0.001356	0.003164	-0.618408	0.161621	-0.435547	0.176779	-0.260236	0.107019	-0.943172	-19.248016	-26.939995	-154.116675	-0.802052	-0.389167	0.453057	0.277766	-0.914592	-0.293884	0.528732	-0.109866	0.841648	0	0	0
14377	0	0	0	0	0	4.473203	-2.859380	8.305462	0.002190	0.002367	0.004677	-0.625244	0.163818	-0.427490	0.176785	-0.260231	0.107014	-0.943173	-19.247310	-26.939458	-154.116305	-0.802054	-0.389174	0.453049	0.277781	-0.914590	-0.293875	0.528723	-0.109855	0.841656	0	0	0
14378	0	0	0	0	0	4.482697	-2.847553	8.247871	-0.000105	0.003375	0.006079	-0.614746	0.161621	-0.435303	0.176790	-0.260221	0.107024	-0.943173	-19.248306	-26.937992	-154.115698	-0.802060	-0.389188	0.453026	0.277788	-0.914582	-0.293893	0.528709	-0.109875	0.841662	0	0	0
14379	0	0	0	0	0	4.436045	-2.903449	8.259561	0.001324	0.004041	0.005941	-0.619629	0.156006	-0.437500	0.176802	-0.260208	0.107025	-0.943175	-19.248316	-26.936280	-154.114705	-0.802065	-0.389208	0.452999	0.277812	-0.914573	-0.293898	0.528688	-0.109877	0.841674	0	0	0
14380	0	0	0	0	0	4.478228	-2.869445	8.284365	0.001626	0.000026	0.003551	-0.622070	0.162109	-0.436768	0.176799	-0.260214	0.107021	-0.943174	-19.247947	-26.937103	-154.114923	-0.802061	-0.389202	0.453012	0.277808	-0.914577	-0.293890	0.528697	-0.109868	0.841670	0	0	0
14381	0	0	0	0	0	4.481713	-2.847782	8.248326	0.003842	0.002688	0.002889	-0.621338	0.161865	-0.436768	0.176790	-0.260205	0.107008	-0.943180	-19.245721	-26.936624	-154.116817	-0.802077	-0.389177	0.453005	0.277801	-0.914589	-0.293859	0.528676	-0.109853	0.841685	0	0	0
14382	0	0	0	0	0	4.459788	-2.856763	8.273902	0.000538	0.002045	0.006465	-0.622559	0.161377	-0.432129	0.176798	-0.260201	0.107015	-0.943178	-19.246582	-26.935804	-154.115694	-0.802076	-0.389195	0.452992	0.277814	-0.914580	-0.293874	0.528672	-0.109861	0.841687	0	0	0
