// General information: 
//  MT Manager version: 2022.2.0 
//  XDA version: 2022.2.0 build 7381 rev 124627 built on 2023-07-19
// Device information: 
//  DeviceId: 10B426DD
//  ProductCode: MTW2-3A7G6
//  Firmware Version: 4.14.0
//  Hardware Version: 3.0.0
// Device settings: 
//  Filter Profile: human(46.1)
//  Option Flags: Orientation Smoother Disabled, Position/Velocity Smoother Disabled, Continuous Zero Rotation Update Disabled, AHS Disabled, ICC Disabled
// Coordinate system: ENU
PacketCounter	SampleTimeFine	Year	Month	Day	Second	Acc_X	Acc_Y	Acc_Z	Gyr_X	Gyr_Y	Gyr_Z	Mag_X	Mag_Y	Mag_Z	Quat_q0	Quat_q1	Quat_q2	Quat_q3	Roll	Pitch	Yaw	Mat[1][1]	Mat[2][1]	Mat[3][1]	Mat[1][2]	Mat[2][2]	Mat[3][2]	Mat[1][3]	Mat[2][3]	Mat[3][3]	Vel_E	Vel_N	Vel_U
13933	0	0	0	0	0	8.601708	0.025993	4.762575	0.007474	-0.019604	0.020977	-1.085449	0.148438	-0.161865	0.157200	-0.496660	-0.092881	-0.848522	0.172462	-60.698451	-159.109363	-0.457234	-0.174515	0.872056	0.359036	-0.933323	0.001473	0.813652	0.313773	0.489404	0	0	0
13934	0	0	0	0	0	8.585817	0.003674	4.782641	0.003961	-0.014889	0.012049	-1.077881	0.144775	-0.159912	0.157226	-0.496725	-0.092859	-0.848482	0.161932	-60.706402	-159.098868	-0.457089	-0.174556	0.872124	0.359058	-0.933314	0.001383	0.813724	0.313775	0.489283	0	0	0
13935	0	0	0	0	0	8.602957	0.041450	4.776646	0.002082	-0.017797	0.013385	-1.077881	0.146973	-0.161865	0.157272	-0.496801	-0.092840	-0.848431	0.148783	-60.715927	-159.083879	-0.456908	-0.174623	0.872205	0.359115	-0.933292	0.001270	0.813801	0.313803	0.489138	0	0	0
13936	0	0	0	0	0	8.610096	0.041722	4.809215	-0.001040	-0.013212	0.011597	-1.076172	0.148682	-0.167969	0.157285	-0.496863	-0.092797	-0.848397	0.135829	-60.722918	-159.073901	-0.456778	-0.174665	0.872265	0.359094	-0.933301	0.001159	0.813883	0.313755	0.489032	0	0	0
13937	0	0	0	0	0	8.623648	0.025542	4.859335	-0.011947	-0.003662	0.010476	-1.075928	0.140869	-0.151855	0.157290	-0.496889	-0.092714	-0.848390	0.117568	-60.724337	-159.062268	-0.456722	-0.174750	0.872277	0.359024	-0.933328	0.001003	0.813945	0.313627	0.489011	0	0	0
13938	0	0	0	0	0	8.607146	0.003035	4.880517	-0.009474	-0.005080	0.008581	-1.071777	0.143066	-0.151611	0.157272	-0.496921	-0.092636	-0.848383	0.102861	-60.726661	-159.055906	-0.456670	-0.174788	0.872297	0.358919	-0.933368	0.000878	0.814021	0.313485	0.488976	0	0	0
13939	0	0	0	0	0	8.605485	0.001899	4.739434	-0.003652	-0.014699	0.002893	-1.082031	0.146973	-0.165527	0.157261	-0.496984	-0.092616	-0.848350	0.097121	-60.734394	-159.053179	-0.456551	-0.174768	0.872363	0.358882	-0.933383	0.000829	0.814104	0.313453	0.488858	0	0	0
13940	0	0	0	0	0	8.576241	-0.004533	4.709025	0.002918	-0.011592	0.001224	-1.071533	0.153076	-0.161865	0.157238	-0.497031	-0.092613	-0.848327	0.097038	-60.740454	-159.055568	-0.456473	-0.174716	0.872415	0.358842	-0.933398	0.000828	0.814165	0.313437	0.488766	0	0	0
13941	0	0	0	0	0	8.553513	0.007854	4.728673	0.004120	-0.033807	0.008240	-1.074219	0.149658	-0.160156	0.157260	-0.497171	-0.092628	-0.848239	0.090308	-60.759140	-159.046603	-0.456180	-0.174685	0.872574	0.358892	-0.933379	0.000770	0.814307	0.313511	0.488481	0	0	0
13942	0	0	0	0	0	8.586642	-0.074349	4.670213	-0.010318	-0.033686	0.004217	-1.081055	0.145996	-0.157227	0.157214	-0.497323	-0.092582	-0.848164	0.079497	-60.777831	-159.044523	-0.455907	-0.174600	0.872733	0.358773	-0.933425	0.000677	0.814512	0.313422	0.488197	0	0	0
13943	0	0	0	0	0	8.553641	-0.030080	4.794513	-0.016953	-0.052085	0.007656	-1.072266	0.148926	-0.160400	0.157173	-0.497557	-0.092523	-0.848041	0.061287	-60.806987	-159.036243	-0.455467	-0.174507	0.872982	0.358649	-0.933472	0.000522	0.814813	0.313332	0.487753	0	0	0
13944	0	0	0	0	0	8.555084	0.020748	4.841176	-0.029423	-0.047302	0.008656	-1.074463	0.148682	-0.162109	0.157087	-0.497784	-0.092394	-0.847938	0.035033	-60.833503	-159.029572	-0.455070	-0.174415	0.873207	0.358385	-0.933574	0.000298	0.815152	0.313080	0.487349	0	0	0
13945	0	0	0	0	0	8.617820	-0.003913	4.861644	-0.027260	-0.046836	0.005971	-1.083008	0.141357	-0.157227	0.157016	-0.498003	-0.092291	-0.847833	0.012588	-60.859648	-159.023209	-0.454678	-0.174323	0.873429	0.358169	-0.933657	0.000107	0.815465	0.312884	0.486951	0	0	0
13946	0	0	0	0	0	8.556267	-0.036348	4.888990	-0.014717	-0.036302	0.003187	-1.079346	0.144287	-0.154053	0.156947	-0.498169	-0.092229	-0.847755	0.000388	-60.879840	-159.023095	-0.454390	-0.174214	0.873601	0.357997	-0.933723	0.000003	0.815701	0.312748	0.486643	0	0	0
13947	0	0	0	0	0	8.578133	0.002683	4.775362	-0.001803	-0.026485	0.005423	-1.075195	0.147949	-0.158447	0.156946	-0.498282	-0.092220	-0.847690	-0.006939	-60.894324	-159.017344	-0.454167	-0.174181	0.873724	0.357987	-0.933727	-0.000059	0.815830	0.312755	0.486422	0	0	0
13948	0	0	0	0	0	8.612610	0.044576	4.730109	0.002294	-0.021966	0.005650	-1.083984	0.141357	-0.156006	0.156937	-0.498375	-0.092212	-0.847638	-0.011970	-60.906320	-159.014368	-0.453987	-0.174139	0.873826	0.357963	-0.933736	-0.000102	0.815940	0.312752	0.486239	0	0	0
13949	0	0	0	0	0	8.643997	0.050538	4.756706	-0.000365	-0.038152	0.000827	-1.076660	0.145020	-0.154297	0.156914	-0.498534	-0.092229	-0.847547	-0.013751	-60.927489	-159.014023	-0.453684	-0.174026	0.874005	0.357944	-0.933743	-0.000117	0.816117	0.312792	0.485916	0	0	0
13950	0	0	0	0	0	8.666635	-0.033229	4.770344	-0.001333	-0.033116	-0.003628	-1.081787	0.145508	-0.150146	0.156848	-0.498673	-0.092237	-0.847476	-0.011247	-60.945887	-159.022420	-0.453448	-0.173859	0.874161	0.357842	-0.933782	-0.000095	0.816293	0.312769	0.485635	0	0	0
13951	0	0	0	0	0	8.661718	-0.034407	4.733517	-0.011852	-0.034886	-0.005853	-1.074219	0.139648	-0.154785	0.156771	-0.498824	-0.092219	-0.847404	-0.012716	-60.965185	-159.029960	-0.453196	-0.173694	0.874325	0.357699	-0.933837	-0.000108	0.816496	0.312696	0.485341	0	0	0
13952	0	0	0	0	0	8.656428	-0.017995	4.713843	-0.001956	-0.029366	-0.005188	-1.080811	0.150391	-0.154053	0.156697	-0.498947	-0.092224	-0.847344	-0.008956	-60.981445	-159.040307	-0.452995	-0.173523	0.874463	0.357583	-0.933881	-0.000076	0.816657	0.312659	0.485093	0	0	0
13953	0	0	0	0	0	8.640532	-0.003809	4.767143	-0.000328	-0.023432	-0.003061	-1.080078	0.144043	-0.168213	0.156666	-0.499042	-0.092240	-0.847293	-0.006695	-60.994180	-159.044560	-0.452827	-0.173420	0.874570	0.357546	-0.933895	-0.000057	0.816767	0.312674	0.484898	0	0	0
13954	0	0	0	0	0	8.627932	0.028763	4.731480	-0.004187	-0.020370	-0.000596	-1.081787	0.139160	-0.153076	0.156618	-0.499129	-0.092221	-0.847252	-0.009004	-61.005212	-159.048371	-0.452681	-0.173330	0.874664	0.357451	-0.933932	-0.000076	0.816890	0.312615	0.484730	0	0	0
13955	0	0	0	0	0	8.622067	0.044578	4.712849	-0.009919	-0.020209	0.003203	-1.077637	0.139648	-0.158203	0.156591	-0.499221	-0.092178	-0.847208	-0.018714	-61.016099	-159.045219	-0.452516	-0.173295	0.874756	0.357364	-0.933965	-0.000158	0.817019	0.312535	0.484564	0	0	0
13956	0	0	0	0	0	8.590064	-0.015722	4.737325	-0.007831	-0.020913	-0.003717	-1.076416	0.137451	-0.159668	0.156513	-0.499313	-0.092149	-0.847171	-0.019760	-61.027483	-159.053837	-0.452380	-0.173165	0.874852	0.357209	-0.934025	-0.000167	0.817162	0.312429	0.484390	0	0	0
13957	0	0	0	0	0	8.597698	-0.014702	4.769296	-0.009670	-0.023232	-0.000264	-1.078125	0.143799	-0.160156	0.156470	-0.499415	-0.092117	-0.847122	-0.025745	-61.040103	-159.054780	-0.452203	-0.173089	0.874959	0.357108	-0.934063	-0.000218	0.817304	0.312356	0.484197	0	0	0
13958	0	0	0	0	0	8.609067	-0.012389	4.694784	-0.007583	-0.023934	-0.007186	-1.084229	0.143066	-0.154541	0.156382	-0.499518	-0.092102	-0.847079	-0.023072	-61.053170	-159.066882	-0.452053	-0.172922	0.875069	0.356949	-0.934124	-0.000195	0.817457	0.312267	0.483998	0	0	0
13959	0	0	0	0	0	8.627027	-0.008540	4.654094	-0.008659	-0.024158	-0.005848	-1.077148	0.151367	-0.151611	0.156317	-0.499621	-0.092090	-0.847032	-0.022691	-61.066322	-159.074438	-0.451888	-0.172790	0.875180	0.356831	-0.934169	-0.000192	0.817599	0.312205	0.483797	0	0	0
13960	0	0	0	0	0	8.617658	0.006821	4.741582	-0.004284	-0.022092	-0.006968	-1.078857	0.150146	-0.158447	0.156237	-0.499714	-0.092086	-0.846992	-0.018490	-61.078415	-159.086347	-0.451752	-0.172630	0.875282	0.356697	-0.934220	-0.000156	0.817733	0.312140	0.483612	0	0	0
13961	0	0	0	0	0	8.642160	0.012032	4.734873	-0.010082	-0.023088	-0.007407	-1.075195	0.149414	-0.158447	0.156163	-0.499813	-0.092071	-0.846949	-0.017299	-61.090954	-159.095758	-0.451601	-0.172488	0.875388	0.356560	-0.934272	-0.000146	0.817876	0.312063	0.483421	0	0	0
13962	0	0	0	0	0	8.633493	-0.025252	4.771451	-0.010396	-0.021217	-0.008183	-1.081787	0.147217	-0.146484	0.156070	-0.499905	-0.092046	-0.846915	-0.015362	-61.102481	-159.108201	-0.451474	-0.172327	0.875485	0.356385	-0.934339	-0.000130	0.818023	0.311951	0.483244	0	0	0
13963	0	0	0	0	0	8.650982	-0.004041	4.748153	-0.013142	-0.017353	-0.004932	-1.067383	0.142090	-0.155518	0.156001	-0.499983	-0.092008	-0.846886	-0.018484	-61.111734	-159.114687	-0.451361	-0.172226	0.875563	0.356235	-0.934397	-0.000156	0.818150	0.311836	0.483103	0	0	0
13964	0	0	0	0	0	8.652143	-0.021968	4.729442	-0.021922	-0.022052	-0.004817	-1.076416	0.139160	-0.155518	0.155886	-0.500091	-0.091923	-0.846852	-0.026579	-61.123794	-159.124099	-0.451217	-0.172086	0.875665	0.355965	-0.934499	-0.000224	0.818347	0.311605	0.482919	0	0	0
13965	0	0	0	0	0	8.636248	-0.026309	4.766457	-0.015573	-0.015356	-0.000907	-1.077637	0.138672	-0.160889	0.155829	-0.500164	-0.091863	-0.846826	-0.035274	-61.131901	-159.125810	-0.451107	-0.172028	0.875733	0.355813	-0.934557	-0.000297	0.818474	0.311464	0.482795	0	0	0
13966	0	0	0	0	0	8.653184	0.011709	4.760744	-0.021206	-0.009943	-0.002884	-1.075439	0.144531	-0.159180	0.155731	-0.500220	-0.091768	-0.846821	-0.044824	-61.136952	-159.132891	-0.451056	-0.171945	0.875776	0.355561	-0.934653	-0.000378	0.818612	0.311222	0.482718	0	0	0
13967	0	0	0	0	0	8.660650	-0.022794	4.759898	-0.014577	-0.005696	-0.000320	-1.080811	0.147705	-0.152100	0.155684	-0.500252	-0.091702	-0.846819	-0.053554	-61.139524	-159.133910	-0.451022	-0.171923	0.875798	0.355420	-0.934707	-0.000451	0.818691	0.311073	0.482678	0	0	0
13968	0	0	0	0	0	8.677342	-0.001984	4.738016	-0.001075	-0.000227	0.001340	-1.083740	0.138184	-0.147949	0.155660	-0.500253	-0.091676	-0.846825	-0.056103	-61.139042	-159.135577	-0.451034	-0.171912	0.875794	0.355356	-0.934731	-0.000473	0.818713	0.311006	0.482685	0	0	0
13969	0	0	0	0	0	8.660686	-0.005747	4.776446	0.006745	-0.004608	0.002755	-1.083740	0.140869	-0.153564	0.155680	-0.500265	-0.091692	-0.846813	-0.055813	-61.140990	-159.132946	-0.450998	-0.171922	0.875810	0.355403	-0.934713	-0.000470	0.818712	0.311054	0.482656	0	0	0
13970	0	0	0	0	0	8.640871	-0.026996	4.657988	0.000235	0.007562	0.002704	-1.072021	0.144775	-0.149170	0.155660	-0.500234	-0.091657	-0.846838	-0.058906	-61.136103	-159.134278	-0.451072	-0.171939	0.875769	0.355338	-0.934738	-0.000496	0.818700	0.310970	0.482730	0	0	0
13971	0	0	0	0	0	8.647043	-0.008664	4.709343	-0.003822	0.003633	0.004595	-1.072754	0.135254	-0.155762	0.155664	-0.500220	-0.091617	-0.846850	-0.066573	-61.133327	-159.129474	-0.451097	-0.171991	0.875745	0.355306	-0.934750	-0.000561	0.818699	0.310905	0.482773	0	0	0
13972	0	0	0	0	0	8.647312	-0.026621	4.692233	-0.000129	-0.005831	0.003659	-1.078857	0.134033	-0.156982	0.155647	-0.500246	-0.091591	-0.846841	-0.070908	-61.136063	-159.128961	-0.451057	-0.171981	0.875769	0.355253	-0.934770	-0.000597	0.818745	0.310850	0.482731	0	0	0
13973	0	0	0	0	0	8.600833	-0.036866	4.701110	-0.006758	-0.010075	0.001094	-1.078369	0.147461	-0.153564	0.155623	-0.500290	-0.091559	-0.846822	-0.076636	-61.141144	-159.128293	-0.450982	-0.171958	0.875811	0.355182	-0.934797	-0.000646	0.818817	0.310781	0.482653	0	0	0
13974	0	0	0	0	0	8.577786	-0.042212	4.705199	0.002408	-0.006092	0.005994	-1.078369	0.139160	-0.158691	0.155622	-0.500316	-0.091538	-0.846809	-0.081943	-61.144022	-159.124956	-0.450931	-0.171969	0.875836	0.355160	-0.934805	-0.000690	0.818854	0.310751	0.482609	0	0	0
13975	0	0	0	0	0	8.594379	0.013860	4.716753	0.013009	-0.013755	0.006273	-1.074463	0.137939	-0.154541	0.155668	-0.500364	-0.091579	-0.846769	-0.081738	-61.151207	-159.118131	-0.450808	-0.171983	0.875896	0.355275	-0.934762	-0.000688	0.818873	0.310873	0.482499	0	0	0
13976	0	0	0	0	0	8.625041	0.019937	4.744776	0.006616	-0.010437	0.006412	-1.074707	0.147217	-0.156738	0.155678	-0.500404	-0.091579	-0.846743	-0.085037	-61.156552	-159.114251	-0.450720	-0.171985	0.875941	0.355291	-0.934756	-0.000716	0.818914	0.310891	0.482418	0	0	0
13977	0	0	0	0	0	8.649151	0.007287	4.722101	0.002617	-0.009689	0.000403	-1.079590	0.145020	-0.160156	0.155674	-0.500440	-0.091588	-0.846721	-0.084676	-61.161412	-159.114402	-0.450651	-0.171957	0.875982	0.355293	-0.934755	-0.000713	0.818951	0.310909	0.482343	0	0	0
13978	0	0	0	0	0	8.679360	0.030992	4.767589	0.004244	-0.003769	0.002540	-1.081299	0.145020	-0.150146	0.155670	-0.500452	-0.091584	-0.846715	-0.085437	-61.162932	-159.114306	-0.450629	-0.171950	0.875995	0.355284	-0.934758	-0.000719	0.818967	0.310903	0.482320	0	0	0
13979	0	0	0	0	0	8.693422	-0.019000	4.784072	-0.000036	-0.000577	-0.002121	-1.085449	0.140381	-0.156494	0.155654	-0.500450	-0.091581	-0.846720	-0.083956	-61.162574	-159.117472	-0.450644	-0.171927	0.875992	0.355253	-0.934770	-0.000707	0.818972	0.310881	0.482325	0	0	0
13980	0	0	0	0	0	8.679547	0.013517	4.750610	0.000552	0.005693	0.003477	-1.071289	0.144531	-0.155518	0.155641	-0.500427	-0.091548	-0.846740	-0.087735	-61.158740	-159.117349	-0.450698	-0.171948	0.875960	0.355201	-0.934789	-0.000739	0.818965	0.310809	0.482384	0	0	0
13981	0	0	0	0	0	8.656118	-0.026551	4.722140	-0.005469	0.011817	-0.003510	-1.084473	0.145996	-0.145264	0.155611	-0.500376	-0.091516	-0.846779	-0.087903	-61.151281	-159.122186	-0.450819	-0.171951	0.875897	0.355120	-0.934820	-0.000740	0.818933	0.310715	0.482498	0	0	0
13982	0	0	0	0	0	8.641914	0.005926	4.689293	0.000236	0.007561	0.002704	-1.080811	0.140625	-0.157227	0.155596	-0.500344	-0.091483	-0.846804	-0.091129	-61.146394	-159.122790	-0.450891	-0.171973	0.875856	0.355064	-0.934842	-0.000768	0.818918	0.310639	0.482573	0	0	0
13983	0	0	0	0	0	8.594498	0.013305	4.716538	-0.003376	0.007596	0.001710	-1.081787	0.149170	-0.149902	0.155591	-0.500312	-0.091449	-0.846827	-0.095533	-61.141349	-159.121421	-0.450959	-0.172011	0.875813	0.355024	-0.934857	-0.000805	0.818898	0.310572	0.482650	0	0	0
13984	0	0	0	0	0	8.624690	-0.015887	4.712153	-0.003061	0.005728	0.002482	-1.081543	0.146240	-0.163086	0.155567	-0.500291	-0.091405	-0.846849	-0.100391	-61.137493	-159.122189	-0.451016	-0.172026	0.875781	0.354942	-0.934888	-0.000846	0.818902	0.310470	0.482709	0	0	0
13985	0	0	0	0	0	8.600636	0.013821	4.751345	-0.003856	0.003057	0.002474	-1.072754	0.146484	-0.144775	0.155562	-0.500278	-0.091371	-0.846861	-0.105872	-61.135048	-159.119905	-0.451044	-0.172057	0.875760	0.354901	-0.934904	-0.000892	0.818905	0.310406	0.482746	0	0	0
13986	0	0	0	0	0	8.607638	-0.020470	4.751311	-0.005727	0.000159	0.003807	-1.072998	0.139648	-0.156494	0.155537	-0.500283	-0.091317	-0.846869	-0.113678	-61.134367	-159.118743	-0.451050	-0.172070	0.875754	0.354808	-0.934939	-0.000958	0.818941	0.310293	0.482756	0	0	0
13987	0	0	0	0	0	8.607470	-0.003716	4.768251	-0.010099	-0.001900	0.004925	-1.081055	0.144043	-0.156738	0.155525	-0.500297	-0.091255	-0.846869	-0.125292	-61.134759	-159.113540	-0.451029	-0.172109	0.875758	0.354727	-0.934969	-0.001056	0.818988	0.310179	0.482750	0	0	0
13988	0	0	0	0	0	8.614658	-0.038194	4.767869	-0.012707	-0.002792	-0.001652	-1.072510	0.150391	-0.150391	0.155457	-0.500317	-0.091188	-0.846877	-0.131326	-61.135741	-159.118986	-0.451031	-0.172061	0.875766	0.354552	-0.935036	-0.001106	0.819063	0.310005	0.482735	0	0	0
13989	0	0	0	0	0	8.624725	-0.018802	4.712079	-0.009819	-0.004344	0.003576	-1.081543	0.147949	-0.150391	0.155439	-0.500341	-0.091132	-0.846872	-0.141384	-61.137535	-159.115377	-0.450995	-0.172080	0.875781	0.354467	-0.935068	-0.001191	0.819119	0.309898	0.482707	0	0	0
13990	0	0	0	0	0	8.624811	-0.002124	4.728563	-0.009188	-0.008080	0.005120	-1.080322	0.140381	-0.148438	0.155406	-0.500385	-0.091066	-0.846860	-0.152636	-61.141610	-159.112735	-0.450929	-0.172078	0.875815	0.354349	-0.935112	-0.001286	0.819207	0.309765	0.482645	0	0	0
13991	0	0	0	0	0	8.641700	0.018292	4.706338	-0.012040	-0.005949	0.002013	-1.072510	0.145996	-0.154297	0.155374	-0.500416	-0.091005	-0.846853	-0.162349	-61.144324	-159.110974	-0.450885	-0.172077	0.875838	0.354239	-0.935154	-0.001367	0.819279	0.309639	0.482603	0	0	0
13992	0	0	0	0	0	8.648826	0.001330	4.722700	-0.009854	-0.004919	0.001454	-1.077637	0.149170	-0.146240	0.155323	-0.500445	-0.090942	-0.846852	-0.170032	-61.146572	-159.113075	-0.450859	-0.172048	0.875857	0.354095	-0.935208	-0.001432	0.819355	0.309491	0.482568	0	0	0
13993	0	0	0	0	0	8.642194	0.016955	4.705437	-0.010929	-0.005145	0.002793	-1.072021	0.150391	-0.149658	0.155298	-0.500473	-0.090884	-0.846847	-0.179918	-61.148824	-159.110388	-0.450819	-0.172057	0.875876	0.353997	-0.935245	-0.001515	0.819420	0.309375	0.482534	0	0	0
13994	0	0	0	0	0	8.625893	-0.004984	4.726587	-0.014577	-0.005684	-0.000323	-1.079590	0.147949	-0.155273	0.155229	-0.500508	-0.090807	-0.846847	-0.188614	-61.151551	-159.114274	-0.450791	-0.172012	0.875899	0.353809	-0.935316	-0.001588	0.819516	0.309185	0.482492	0	0	0
13995	0	0	0	0	0	8.649377	0.016901	4.738359	-0.016039	-0.005193	-0.003998	-1.082031	0.139160	-0.164063	0.155162	-0.500537	-0.090744	-0.846849	-0.194366	-61.153844	-159.119650	-0.450775	-0.171957	0.875918	0.353639	-0.935380	-0.001637	0.819598	0.309021	0.482457	0	0	0
13996	0	0	0	0	0	8.626292	-0.006188	4.725858	-0.015134	-0.000793	0.002375	-1.076172	0.149658	-0.151611	0.155109	-0.500552	-0.090656	-0.846859	-0.205973	-61.153650	-159.119978	-0.450779	-0.171956	0.875917	0.353468	-0.935445	-0.001734	0.819670	0.308827	0.482459	0	0	0
13997	0	0	0	0	0	8.649736	0.015464	4.737708	-0.011760	-0.008388	0.000659	-1.079346	0.143555	-0.152832	0.155072	-0.500593	-0.090602	-0.846848	-0.214131	-61.157765	-159.119808	-0.450719	-0.171934	0.875951	0.353354	-0.935488	-0.001803	0.819752	0.308708	0.482396	0	0	0
13998	0	0	0	0	0	8.626839	-0.024895	4.708180	-0.013651	0.002822	-0.003970	-1.082764	0.153076	-0.144775	0.154994	-0.500589	-0.090532	-0.846872	-0.218377	-61.155587	-159.128028	-0.450775	-0.171882	0.875933	0.353159	-0.935562	-0.001839	0.819805	0.308515	0.482429	0	0	0
13999	0	0	0	0	0	8.650027	-0.002872	4.720500	-0.010483	-0.001179	-0.000093	-1.085205	0.145020	-0.152344	0.154960	-0.500598	-0.090480	-0.846878	-0.224994	-61.155572	-159.128783	-0.450777	-0.171876	0.875933	0.353052	-0.935602	-0.001894	0.819850	0.308396	0.482429	0	0	0
14000	0	0	0	0	0	8.650232	-0.020728	4.703445	-0.009724	0.000917	-0.002204	-1.082275	0.142822	-0.151611	0.154895	-0.500601	-0.090421	-0.846894	-0.228889	-61.154543	-159.135353	-0.450812	-0.171830	0.875924	0.352889	-0.935663	-0.001927	0.819901	0.308235	0.482445	0	0	0
14001	0	0	0	0	0	8.609835	-0.012223	4.763965	-0.010835	0.000115	-0.002986	-1.077393	0.143066	-0.147949	0.154848	-0.500604	-0.090373	-0.846906	-0.232693	-61.153794	-159.139550	-0.450835	-0.171801	0.875918	0.352766	-0.935710	-0.001959	0.819941	0.308111	0.482456	0	0	0
14002	0	0	0	0	0	8.633284	-0.007703	4.759131	-0.014095	-0.001139	-0.001089	-1.076172	0.147461	-0.157471	0.154775	-0.500619	-0.090295	-0.846919	-0.240133	-61.153903	-159.144962	-0.450850	-0.171758	0.875919	0.352571	-0.935783	-0.002022	0.820017	0.307912	0.482454	0	0	0
14003	0	0	0	0	0	8.619768	0.006880	4.708405	-0.012984	-0.000336	-0.000308	-1.081055	0.146484	-0.157227	0.154734	-0.500627	-0.090232	-0.846929	-0.247956	-61.153407	-159.145977	-0.450860	-0.171752	0.875915	0.352443	-0.935831	-0.002088	0.820067	0.307768	0.482462	0	0	0
14004	0	0	0	0	0	8.610130	-0.031239	4.746735	-0.010483	-0.001176	-0.000095	-1.072510	0.141846	-0.156494	0.154683	-0.500638	-0.090171	-0.846938	-0.254413	-61.153456	-159.149006	-0.450868	-0.171728	0.875915	0.352301	-0.935884	-0.002142	0.820123	0.307620	0.482461	0	0	0
14005	0	0	0	0	0	8.650173	-0.005433	4.720230	-0.010519	-0.001750	-0.002217	-1.080078	0.144531	-0.151855	0.154640	-0.500649	-0.090125	-0.846944	-0.258844	-61.153775	-159.152280	-0.450874	-0.171701	0.875918	0.352184	-0.935928	-0.002180	0.820170	0.307501	0.482456	0	0	0
14006	0	0	0	0	0	8.626443	0.024089	4.758957	-0.012667	-0.002203	0.000462	-1.078613	0.140869	-0.160889	0.154582	-0.500668	-0.090052	-0.846952	-0.267077	-61.154434	-159.155183	-0.450873	-0.171674	0.875923	0.352018	-0.935990	-0.002249	0.820242	0.307327	0.482445	0	0	0
14007	0	0	0	0	0	8.657109	-0.005254	4.753614	-0.005166	-0.004725	0.001102	-1.074463	0.144043	-0.153320	0.154564	-0.500688	-0.090022	-0.846946	-0.271908	-61.156448	-159.154499	-0.450842	-0.171669	0.875940	0.351960	-0.936012	-0.002289	0.820284	0.307264	0.482414	0	0	0
14008	0	0	0	0	0	8.627203	-0.011640	4.724183	-0.006592	-0.003658	-0.000451	-1.077148	0.147217	-0.151855	0.154519	-0.500707	-0.089980	-0.846947	-0.275687	-61.157911	-159.158241	-0.450832	-0.171631	0.875953	0.351845	-0.936055	-0.002321	0.820338	0.307153	0.482392	0	0	0
14009	0	0	0	0	0	8.657438	-0.005810	4.753014	-0.006907	-0.001789	-0.001221	-1.088867	0.143799	-0.154053	0.154488	-0.500716	-0.089946	-0.846951	-0.279084	-61.158250	-159.160332	-0.450834	-0.171613	0.875955	0.351762	-0.936086	-0.002350	0.820373	0.307069	0.482386	0	0	0
14010	0	0	0	0	0	8.634085	-0.011066	4.757672	-0.006871	-0.001214	0.000900	-1.078613	0.142334	-0.147949	0.154445	-0.500726	-0.089894	-0.846959	-0.284490	-61.158380	-159.162986	-0.450840	-0.171591	0.875956	0.351642	-0.936132	-0.002395	0.820422	0.306943	0.482384	0	0	0
14011	0	0	0	0	0	8.650796	0.009802	4.735787	-0.003739	-0.005793	0.002654	-1.079834	0.145996	-0.153076	0.154437	-0.500751	-0.089868	-0.846948	-0.290125	-61.161001	-159.160451	-0.450795	-0.171597	0.875979	0.351602	-0.936146	-0.002442	0.820463	0.306895	0.482344	0	0	0
14012	0	0	0	0	0	8.610944	-0.016711	4.761946	-0.006112	0.000882	-0.001209	-1.080566	0.144775	-0.148926	0.154386	-0.500751	-0.089822	-0.846962	-0.292879	-61.159947	-159.165794	-0.450826	-0.171561	0.875970	0.351475	-0.936194	-0.002466	0.820500	0.306770	0.482360	0	0	0
14013	0	0	0	0	0	8.644224	0.008037	4.701730	-0.003223	-0.000680	0.004018	-1.076660	0.138672	-0.144043	0.154387	-0.500755	-0.089790	-0.846963	-0.299611	-61.159635	-159.161670	-0.450818	-0.171595	0.875967	0.351446	-0.936205	-0.002522	0.820517	0.306718	0.482364	0	0	0
14014	0	0	0	0	0	8.627700	-0.013571	4.723271	-0.001074	-0.000227	0.001339	-1.084717	0.142334	-0.154297	0.154355	-0.500758	-0.089759	-0.846971	-0.302103	-61.159246	-159.164579	-0.450832	-0.171574	0.875964	0.351363	-0.936236	-0.002543	0.820545	0.306635	0.482370	0	0	0
14015	0	0	0	0	0	8.651087	-0.009070	4.718550	-0.007113	0.001804	0.004374	-1.082031	0.141357	-0.152100	0.154349	-0.500754	-0.089707	-0.846980	-0.311420	-61.157509	-159.160048	-0.450844	-0.171619	0.875949	0.351304	-0.936258	-0.002622	0.820564	0.306542	0.482396	0	0	0
14016	0	0	0	0	0	8.644300	-0.010913	4.684884	-0.006002	0.002605	0.005156	-1.075195	0.139648	-0.148438	0.154326	-0.500749	-0.089645	-0.846993	-0.320648	-61.155427	-159.157946	-0.450867	-0.171647	0.875932	0.351206	-0.936294	-0.002700	0.820593	0.306415	0.482428	0	0	0
14017	0	0	0	0	0	8.650602	0.006954	4.736146	-0.005207	0.005275	0.005169	-1.080811	0.145020	-0.149902	0.154330	-0.500730	-0.089597	-0.847009	-0.329677	-61.151699	-159.152496	-0.450904	-0.171710	0.875900	0.351166	-0.936309	-0.002776	0.820590	0.306335	0.482484	0	0	0
14018	0	0	0	0	0	8.627150	-0.016293	4.724266	-0.008466	0.004021	0.007064	-1.075928	0.150391	-0.151611	0.154308	-0.500722	-0.089518	-0.847026	-0.342331	-61.148827	-159.148276	-0.450932	-0.171759	0.875876	0.351054	-0.936351	-0.002883	0.820622	0.306180	0.482528	0	0	0
14019	0	0	0	0	0	8.650395	-0.012149	4.719812	-0.003817	0.003633	0.004599	-1.082764	0.136963	-0.152100	0.154313	-0.500708	-0.089479	-0.847037	-0.349978	-61.146041	-159.143495	-0.450958	-0.171812	0.875853	0.351023	-0.936362	-0.002948	0.820622	0.306115	0.482570	0	0	0
14020	0	0	0	0	0	8.619956	-0.001438	4.708065	-0.003465	0.002338	0.007491	-1.077881	0.145264	-0.147949	0.154307	-0.500704	-0.089422	-0.847047	-0.360229	-61.144109	-159.138435	-0.450970	-0.171862	0.875836	0.350959	-0.936386	-0.003034	0.820642	0.306014	0.482599	0	0	0
14021	0	0	0	0	0	8.643508	-0.014792	4.686334	-0.003150	0.000469	0.008260	-1.073730	0.139648	-0.150635	0.154327	-0.500704	-0.089379	-0.847048	-0.371319	-61.143120	-159.129286	-0.450957	-0.171940	0.875828	0.350949	-0.936389	-0.003128	0.820654	0.305961	0.482613	0	0	0
14022	0	0	0	0	0	8.627003	-0.036815	4.707801	-0.000371	-0.002816	0.007122	-1.081543	0.146973	-0.148682	0.154323	-0.500719	-0.089340	-0.847044	-0.379439	-61.144158	-159.124840	-0.450929	-0.171969	0.875837	0.350906	-0.936405	-0.003196	0.820688	0.305895	0.482597	0	0	0
14023	0	0	0	0	0	8.603465	-0.025030	4.729505	0.001887	-0.000641	0.010809	-1.080811	0.139893	-0.161621	0.154366	-0.500722	-0.089312	-0.847037	-0.390300	-61.143794	-159.112657	-0.450897	-0.172067	0.875834	0.350949	-0.936389	-0.003288	0.820686	0.305891	0.482602	0	0	0
14024	0	0	0	0	0	8.603918	-0.060631	4.695216	0.003240	-0.002857	0.008118	-1.081299	0.142334	-0.157715	0.154380	-0.500734	-0.089288	-0.847030	-0.397364	-61.144804	-159.106578	-0.450865	-0.172109	0.875842	0.350947	-0.936389	-0.003347	0.820705	0.305866	0.482586	0	0	0
14025	0	0	0	0	0	8.626890	-0.003986	4.741455	0.004388	-0.001482	0.011022	-1.079834	0.144775	-0.151123	0.154429	-0.500738	-0.089271	-0.847020	-0.407020	-61.144920	-159.094135	-0.450826	-0.172206	0.875843	0.351012	-0.936365	-0.003428	0.820699	0.305886	0.482584	0	0	0
14026	0	0	0	0	0	8.627524	-0.057087	4.690087	0.003277	-0.002282	0.010239	-1.084473	0.147217	-0.159180	0.154451	-0.500749	-0.089241	-0.847013	-0.416271	-61.145597	-159.085595	-0.450790	-0.172270	0.875849	0.351019	-0.936362	-0.003506	0.820715	0.305859	0.482573	0	0	0
14027	0	0	0	0	0	8.633915	-0.021891	4.757943	0.004425	-0.000906	0.013142	-1.081055	0.146973	-0.154297	0.154510	-0.500752	-0.089219	-0.847003	-0.428107	-61.145371	-159.070640	-0.450748	-0.172389	0.875847	0.351094	-0.936333	-0.003606	0.820706	0.305880	0.482575	0	0	0
14028	0	0	0	0	0	8.627358	-0.041208	4.707113	0.008482	0.003015	0.011260	-1.079346	0.149902	-0.156250	0.154555	-0.500736	-0.089205	-0.847006	-0.435456	-61.142994	-159.060517	-0.450752	-0.172481	0.875827	0.351155	-0.936310	-0.003668	0.820678	0.305897	0.482611	0	0	0
14029	0	0	0	0	0	8.633936	-0.040690	4.741152	0.008796	0.001147	0.012029	-1.085938	0.149414	-0.147461	0.154621	-0.500726	-0.089203	-0.847000	-0.443612	-61.141595	-159.046903	-0.450731	-0.172596	0.875815	0.351260	-0.936270	-0.003737	0.820645	0.305955	0.482632	0	0	0
14030	0	0	0	0	0	8.656976	-0.019257	4.753820	-0.003980	0.007807	0.012312	-1.073242	0.142578	-0.156006	0.154638	-0.500701	-0.089128	-0.847019	-0.459236	-61.136527	-159.035964	-0.450770	-0.172710	0.875772	0.351216	-0.936287	-0.003869	0.820642	0.305841	0.482709	0	0	0
14031	0	0	0	0	0	8.622978	-0.027931	4.831978	0.001188	0.012528	0.011211	-1.075439	0.143311	-0.160889	0.154687	-0.500649	-0.089086	-0.847046	-0.470799	-61.128608	-159.023436	-0.450846	-0.172852	0.875706	0.351255	-0.936271	-0.003967	0.820584	0.305808	0.482829	0	0	0
14032	0	0	0	0	0	8.639536	-0.042504	4.776940	0.000185	0.002878	0.010605	-1.076416	0.141357	-0.152832	0.154710	-0.500639	-0.089041	-0.847052	-0.482115	-61.126254	-159.013818	-0.450850	-0.172940	0.875686	0.351251	-0.936273	-0.004063	0.820583	0.305753	0.482864	0	0	0
14033	0	0	0	0	0	8.619482	-0.064026	4.658675	0.009280	0.005687	0.011271	-1.078613	0.142578	-0.154053	0.154777	-0.500609	-0.089039	-0.847058	-0.489155	-61.122253	-159.001160	-0.450869	-0.173062	0.875652	0.351357	-0.936233	-0.004123	0.820528	0.305807	0.482925	0	0	0
14034	0	0	0	0	0	8.598740	-0.034822	4.838177	0.016779	0.003158	0.011911	-1.079346	0.144531	-0.158691	0.154841	-0.500588	-0.089057	-0.847057	-0.492311	-61.119802	-158.990896	-0.450873	-0.173156	0.875632	0.351479	-0.936186	-0.004150	0.820473	0.305895	0.482962	0	0	0
14035	0	0	0	0	0	8.649660	-0.058979	4.687609	-0.000714	-0.015622	0.010176	-1.084473	0.153809	-0.155029	0.154868	-0.500655	-0.089032	-0.847015	-0.504131	-61.128014	-158.979319	-0.450721	-0.173202	0.875701	0.351499	-0.936179	-0.004248	0.820548	0.305893	0.482836	0	0	0
14036	0	0	0	0	0	8.613837	-0.084876	4.606114	-0.009420	-0.019144	0.014521	-1.077637	0.147461	-0.160645	0.154872	-0.500749	-0.088952	-0.846967	-0.525362	-61.138311	-158.965001	-0.450531	-0.173258	0.875787	0.351428	-0.936204	-0.004426	0.820683	0.305782	0.482677	0	0	0
14037	0	0	0	0	0	8.638271	-0.064387	4.616189	-0.019520	-0.031596	0.013248	-1.078125	0.145264	-0.146729	0.154858	-0.500900	-0.088851	-0.846891	-0.551328	-61.155654	-158.949578	-0.450237	-0.173284	0.875934	0.351307	-0.936249	-0.004642	0.820896	0.305631	0.482409	0	0	0
14038	0	0	0	0	0	8.612671	-0.038021	4.758699	-0.024242	-0.032345	0.011466	-1.084717	0.146240	-0.156738	0.154804	-0.501060	-0.088725	-0.846819	-0.577997	-61.173542	-158.939037	-0.449949	-0.173269	0.876084	0.351095	-0.936327	-0.004864	0.821144	0.305401	0.482134	0	0	0
14039	0	0	0	0	0	8.617757	-0.075281	4.862215	-0.013273	-0.026644	0.010801	-1.076416	0.149414	-0.154053	0.154797	-0.501184	-0.088654	-0.846754	-0.597828	-61.188056	-158.926535	-0.449705	-0.173287	0.876206	0.351014	-0.936357	-0.005028	0.821313	0.305300	0.481910	0	0	0
14040	0	0	0	0	0	8.601934	-0.080455	4.899267	-0.007409	-0.010413	0.009542	-1.076904	0.142334	-0.145264	0.154789	-0.501237	-0.088588	-0.846731	-0.612652	-61.193366	-158.918285	-0.449604	-0.173323	0.876251	0.350936	-0.936385	-0.005152	0.821401	0.305192	0.481828	0	0	0
14041	0	0	0	0	0	8.591634	-0.029554	4.775963	0.006580	-0.000455	0.010457	-1.081055	0.151611	-0.156250	0.154842	-0.501235	-0.088581	-0.846724	-0.620475	-61.192874	-158.906507	-0.449575	-0.173418	0.876247	0.351017	-0.936355	-0.005218	0.821383	0.305231	0.481834	0	0	0
14042	0	0	0	0	0	8.631977	-0.021189	4.732141	0.014629	-0.007875	0.008388	-1.078369	0.137939	-0.155029	0.154881	-0.501260	-0.088606	-0.846699	-0.621450	-61.196776	-158.900184	-0.449500	-0.173446	0.876280	0.351106	-0.936321	-0.005226	0.821386	0.305318	0.481775	0	0	0
14043	0	0	0	0	0	8.686519	-0.079948	4.687295	0.015939	-0.010669	0.003576	-1.085449	0.141357	-0.153320	0.154924	-0.501291	-0.088664	-0.846667	-0.616858	-61.202179	-158.896455	-0.449412	-0.173446	0.876325	0.351232	-0.936274	-0.005186	0.821380	0.305463	0.481692	0	0	0
14044	0	0	0	0	0	8.663598	-0.084340	4.691171	0.012288	-0.011199	0.000461	-1.074463	0.149414	-0.154785	0.154921	-0.501328	-0.088703	-0.846641	-0.610741	-61.207992	-158.899837	-0.449339	-0.173387	0.876374	0.351264	-0.936262	-0.005134	0.821406	0.305532	0.481604	0	0	0
14045	0	0	0	0	0	8.671021	-0.100182	4.706913	0.012602	-0.013065	0.001229	-1.082764	0.141846	-0.154053	0.154945	-0.501370	-0.088754	-0.846606	-0.605640	-61.214782	-158.898871	-0.449239	-0.173357	0.876431	0.351352	-0.936230	-0.005090	0.821423	0.305649	0.481501	0	0	0
14046	0	0	0	0	0	8.641050	-0.070273	4.711220	0.018139	-0.005546	-0.006991	-1.075195	0.145264	-0.147461	0.154932	-0.501376	-0.088834	-0.846597	-0.588496	-61.217396	-158.910468	-0.449237	-0.173252	0.876453	0.351408	-0.936209	-0.004945	0.821400	0.305771	0.481462	0	0	0
14047	0	0	0	0	0	8.657794	-0.030624	4.706142	0.011701	-0.006885	0.001043	-1.084473	0.141357	-0.149414	0.154955	-0.501392	-0.088877	-0.846579	-0.583647	-61.220647	-158.909805	-0.449189	-0.173239	0.876480	0.351488	-0.936179	-0.004904	0.821392	0.305870	0.481413	0	0	0
14048	0	0	0	0	0	8.634394	0.000004	4.744578	0.012460	-0.004794	-0.001066	-1.080322	0.140137	-0.152832	0.154946	-0.501403	-0.088913	-0.846570	-0.575907	-61.222868	-158.915341	-0.449174	-0.173184	0.876499	0.351509	-0.936172	-0.004839	0.821392	0.305924	0.481380	0	0	0
14049	0	0	0	0	0	8.611453	-0.039120	4.714849	0.011348	-0.005593	-0.001848	-1.084229	0.145264	-0.153076	0.154957	-0.501413	-0.088961	-0.846557	-0.568230	-61.225395	-158.918135	-0.449146	-0.173148	0.876520	0.351573	-0.936148	-0.004774	0.821379	0.306017	0.481342	0	0	0
14050	0	0	0	0	0	8.635191	-0.033576	4.709462	0.011662	-0.007459	-0.001079	-1.082764	0.145264	-0.146729	0.154948	-0.501435	-0.088998	-0.846542	-0.560910	-61.229093	-158.923256	-0.449109	-0.173087	0.876551	0.351594	-0.936141	-0.004712	0.821391	0.306074	0.481286	0	0	0
14051	0	0	0	0	0	8.612248	-0.055150	4.696578	0.015235	-0.008078	-0.002209	-1.079590	0.152344	-0.154053	0.154966	-0.501452	-0.089065	-0.846521	-0.550652	-61.233045	-158.926453	-0.449062	-0.173041	0.876584	0.351688	-0.936106	-0.004625	0.821376	0.306208	0.481226	0	0	0
14052	0	0	0	0	0	8.629331	-0.032937	4.674004	0.017212	-0.014029	-0.003362	-1.076416	0.147949	-0.143066	0.154960	-0.501496	-0.089136	-0.846489	-0.538010	-61.240556	-158.933986	-0.448978	-0.172940	0.876647	0.351746	-0.936085	-0.004518	0.821397	0.306329	0.481112	0	0	0
14053	0	0	0	0	0	8.576386	-0.042781	4.648627	0.019753	-0.014292	-0.001033	-1.075439	0.144287	-0.149170	0.154991	-0.501538	-0.089224	-0.846450	-0.526447	-61.248062	-158.935719	-0.448876	-0.172885	0.876710	0.351883	-0.936034	-0.004420	0.821395	0.306516	0.480998	0	0	0
14054	0	0	0	0	0	8.637485	-0.029521	4.705281	0.017449	-0.017045	-0.006836	-1.082764	0.144775	-0.150635	0.154966	-0.501593	-0.089306	-0.846413	-0.510034	-61.257347	-158.947762	-0.448779	-0.172740	0.876788	0.351921	-0.936020	-0.004281	0.821431	0.306639	0.480857	0	0	0
14055	0	0	0	0	0	8.631497	-0.012092	4.686858	0.015973	-0.020642	-0.000499	-1.070801	0.148193	-0.146484	0.154987	-0.501664	-0.089382	-0.846358	-0.501246	-61.268488	-158.948800	-0.448623	-0.172671	0.876882	0.352029	-0.935980	-0.004205	0.821470	0.306801	0.480687	0	0	0
14056	0	0	0	0	0	8.639309	-0.027764	4.701941	0.013514	-0.019220	0.001410	-1.073730	0.144775	-0.152832	0.154989	-0.501736	-0.089429	-0.846311	-0.495708	-61.278946	-158.950647	-0.448480	-0.172599	0.876970	0.352078	-0.935962	-0.004158	0.821527	0.306897	0.480528	0	0	0
14057	0	0	0	0	0	8.640154	-0.027358	4.700391	0.009626	-0.016735	0.001771	-1.083008	0.138428	-0.148926	0.155006	-0.501796	-0.089469	-0.846268	-0.492889	-61.287837	-158.949023	-0.448348	-0.172562	0.877044	0.352144	-0.935937	-0.004133	0.821571	0.306993	0.480392	0	0	0
14058	0	0	0	0	0	8.677982	-0.037567	4.744805	0.007207	-0.014737	0.005802	-1.081299	0.149170	-0.160156	0.155012	-0.501855	-0.089476	-0.846231	-0.495370	-61.295668	-158.945786	-0.448226	-0.172545	0.877110	0.352161	-0.935930	-0.004152	0.821630	0.307022	0.480272	0	0	0
14059	0	0	0	0	0	8.648478	-0.043598	4.714549	0.008239	-0.015090	0.002340	-1.067383	0.145020	-0.154785	0.155029	-0.501910	-0.089508	-0.846192	-0.493928	-61.303614	-158.943499	-0.448106	-0.172519	0.877176	0.352218	-0.935909	-0.004139	0.821671	0.307103	0.480150	0	0	0
14060	0	0	0	0	0	8.679405	-0.072641	4.708492	0.007458	-0.007184	0.008513	-1.078613	0.151123	-0.142822	0.155062	-0.501935	-0.089509	-0.846171	-0.499150	-61.307014	-158.935525	-0.448033	-0.172563	0.877205	0.352273	-0.935888	-0.004183	0.821687	0.307142	0.480098	0	0	0
14061	0	0	0	0	0	8.672928	-0.073998	4.674073	0.007061	-0.006474	0.003503	-1.076416	0.145996	-0.144287	0.155084	-0.501955	-0.089526	-0.846153	-0.499525	-61.310017	-158.931938	-0.447979	-0.172574	0.877230	0.352326	-0.935868	-0.004185	0.821694	0.307196	0.480052	0	0	0
14062	0	0	0	0	0	8.670289	-0.110367	4.745988	0.021326	-0.003034	0.013043	-1.081543	0.147217	-0.149170	0.155158	-0.501958	-0.089562	-0.846134	-0.501629	-61.311207	-158.920527	-0.447928	-0.172657	0.877240	0.352482	-0.935809	-0.004203	0.821655	0.307329	0.480034	0	0	0
14063	0	0	0	0	0	8.646810	-0.062339	4.801553	0.030891	-0.006264	0.006743	-1.077393	0.144043	-0.152588	0.155254	-0.501960	-0.089672	-0.846104	-0.491740	-61.314074	-158.913076	-0.447865	-0.172699	0.877264	0.352746	-0.935710	-0.004120	0.821576	0.307606	0.479990	0	0	0
14064	0	0	0	0	0	8.652911	-0.041898	4.605610	0.017083	0.000741	0.010513	-1.076904	0.139648	-0.153320	0.155314	-0.501947	-0.089697	-0.846097	-0.493462	-61.313019	-158.904081	-0.447853	-0.172775	0.877255	0.352868	-0.935664	-0.004134	0.821530	0.307704	0.480006	0	0	0
14065	0	0	0	0	0	8.659825	-0.058213	4.622367	0.013701	-0.002241	0.006056	-1.078125	0.141113	-0.149414	0.155366	-0.501945	-0.089733	-0.846085	-0.492668	-61.313585	-158.897491	-0.447825	-0.172824	0.877260	0.352987	-0.935619	-0.004127	0.821495	0.307813	0.479998	0	0	0
14066	0	0	0	0	0	8.633543	-0.046749	4.750165	0.013533	-0.008633	0.007586	-1.083984	0.145020	-0.146729	0.155399	-0.501974	-0.089757	-0.846060	-0.493307	-61.317898	-158.892112	-0.447747	-0.172842	0.877296	0.353065	-0.935590	-0.004132	0.821503	0.307893	0.479932	0	0	0
14067	0	0	0	0	0	8.647861	-0.079485	4.782798	0.003593	-0.014687	0.004817	-1.078857	0.149658	-0.154053	0.155414	-0.502032	-0.089763	-0.846022	-0.497120	-61.325600	-158.886871	-0.447621	-0.172840	0.877361	0.353096	-0.935578	-0.004163	0.821559	0.307929	0.479813	0	0	0
14068	0	0	0	0	0	8.604349	-0.053134	4.719337	0.007103	-0.005890	0.005621	-1.081787	0.148438	-0.142822	0.155425	-0.502053	-0.089763	-0.846007	-0.499548	-61.328386	-158.883707	-0.447572	-0.172850	0.877384	0.353112	-0.935572	-0.004183	0.821579	0.307943	0.479771	0	0	0
14069	0	0	0	0	0	8.628256	-0.048397	4.713563	0.010823	-0.014762	0.006787	-1.074951	0.142578	-0.152344	0.155467	-0.502107	-0.089794	-0.845965	-0.501287	-61.336121	-158.876109	-0.447438	-0.172866	0.877449	0.353211	-0.935534	-0.004197	0.821609	0.308047	0.479652	0	0	0
14070	0	0	0	0	0	8.658991	-0.042358	4.741584	0.007062	-0.006468	0.003501	-1.079346	0.145020	-0.150391	0.155466	-0.502130	-0.089798	-0.845951	-0.501500	-61.339267	-158.875770	-0.447392	-0.172852	0.877475	0.353213	-0.935533	-0.004198	0.821633	0.308058	0.479604	0	0	0
14071	0	0	0	0	0	8.676099	-0.038964	4.701941	-0.001094	-0.014867	0.005173	-1.081055	0.139893	-0.149170	0.155471	-0.502192	-0.089783	-0.845914	-0.508380	-61.347070	-158.870096	-0.447264	-0.172853	0.877540	0.353207	-0.935536	-0.004255	0.821706	0.308050	0.479484	0	0	0
14072	0	0	0	0	0	8.636797	-0.065130	4.727352	-0.001851	-0.012880	-0.002726	-1.081299	0.145752	-0.149658	0.155418	-0.502246	-0.089771	-0.845893	-0.507127	-61.353890	-158.877141	-0.447187	-0.172760	0.877597	0.353109	-0.935572	-0.004243	0.821789	0.307990	0.479379	0	0	0
14073	0	0	0	0	0	8.653876	-0.026402	4.721516	-0.002922	-0.013100	-0.001385	-1.075928	0.145996	-0.148193	0.155392	-0.502300	-0.089763	-0.845867	-0.508163	-61.360715	-158.879320	-0.447096	-0.172706	0.877655	0.353058	-0.935592	-0.004251	0.821860	0.307963	0.479275	0	0	0
14074	0	0	0	0	0	8.647657	-0.027593	4.686570	-0.005466	-0.012840	-0.003711	-1.080078	0.148438	-0.147949	0.155328	-0.502356	-0.089739	-0.845848	-0.508050	-61.367524	-158.887263	-0.447023	-0.172606	0.877712	0.352930	-0.935640	-0.004249	0.821956	0.307871	0.479171	0	0	0
14075	0	0	0	0	0	8.648326	-0.045126	4.668441	-0.006537	-0.013060	-0.002370	-1.084717	0.148926	-0.152100	0.155288	-0.502412	-0.089718	-0.845824	-0.510122	-61.374331	-158.890622	-0.446936	-0.172542	0.877768	0.352845	-0.935672	-0.004265	0.822039	0.307810	0.479066	0	0	0
14076	0	0	0	0	0	8.672295	-0.022949	4.679410	-0.013767	-0.012982	-0.004339	-1.081299	0.147949	-0.152588	0.155202	-0.502475	-0.089661	-0.845809	-0.514164	-61.381227	-158.899150	-0.446863	-0.172438	0.877826	0.352647	-0.935747	-0.004298	0.822164	0.307642	0.478960	0	0	0
14077	0	0	0	0	0	8.642530	-0.029144	4.649579	-0.012213	-0.008232	-0.006441	-1.081055	0.145264	-0.146729	0.155133	-0.502512	-0.089623	-0.845803	-0.515167	-61.385288	-158.907430	-0.446830	-0.172351	0.877860	0.352497	-0.935803	-0.004306	0.822246	0.307519	0.478898	0	0	0
14078	0	0	0	0	0	8.640078	-0.048260	4.738252	-0.014269	-0.007517	0.000481	-1.077881	0.144531	-0.145264	0.155068	-0.502555	-0.089547	-0.845798	-0.524455	-61.389023	-158.910325	-0.446785	-0.172308	0.877891	0.352316	-0.935871	-0.004383	0.822348	0.307337	0.478840	0	0	0
14079	0	0	0	0	0	8.657054	-0.045174	4.698767	-0.012925	-0.009735	-0.002212	-1.075439	0.152344	-0.147217	0.155014	-0.502601	-0.089496	-0.845785	-0.530322	-61.393924	-158.913529	-0.446725	-0.172256	0.877932	0.352179	-0.935922	-0.004432	0.822439	0.307210	0.478764	0	0	0
14080	0	0	0	0	0	8.657418	-0.028185	4.715009	-0.017926	-0.008054	-0.002624	-1.078369	0.145264	-0.140869	0.154926	-0.502648	-0.089412	-0.845783	-0.538539	-61.398011	-158.920149	-0.446686	-0.172181	0.877966	0.351953	-0.936007	-0.004500	0.822557	0.306993	0.478701	0	0	0
14081	0	0	0	0	0	8.641185	-0.049930	4.736215	-0.017444	-0.003526	-0.003383	-1.083008	0.139160	-0.149170	0.154859	-0.502671	-0.089341	-0.845789	-0.545704	-61.399362	-158.924822	-0.446681	-0.172138	0.877978	0.351774	-0.936074	-0.004559	0.822637	0.306813	0.478680	0	0	0
14082	0	0	0	0	0	8.657854	-0.029205	4.714202	-0.016372	-0.003303	-0.004725	-1.078125	0.151367	-0.151123	0.154762	-0.502696	-0.089263	-0.845800	-0.550599	-61.400754	-158.934861	-0.446691	-0.172052	0.877989	0.351539	-0.936162	-0.004600	0.822732	0.306593	0.478658	0	0	0
14083	0	0	0	0	0	8.641402	-0.050660	4.735813	-0.012275	0.001184	-0.004499	-1.083496	0.152588	-0.145020	0.154705	-0.502695	-0.089212	-0.845816	-0.553583	-61.399413	-158.940925	-0.446729	-0.172012	0.877978	0.351397	-0.936215	-0.004625	0.822772	0.306453	0.478679	0	0	0
14084	0	0	0	0	0	8.627757	-0.035591	4.684976	-0.012527	-0.006360	-0.007215	-1.079590	0.147705	-0.150391	0.154614	-0.502727	-0.089162	-0.845819	-0.553940	-61.402546	-158.952752	-0.446719	-0.171902	0.878004	0.351199	-0.936290	-0.004628	0.822862	0.306287	0.478630	0	0	0
14085	0	0	0	0	0	8.674729	-0.008377	4.691808	-0.013116	-0.002055	-0.006631	-1.087402	0.146484	-0.146973	0.154544	-0.502740	-0.089116	-0.845829	-0.555198	-61.403072	-158.961330	-0.446738	-0.171833	0.878009	0.351040	-0.936349	-0.004638	0.822919	0.306145	0.478622	0	0	0
14086	0	0	0	0	0	8.651566	-0.048161	4.662404	-0.008114	-0.003736	-0.006221	-1.077148	0.140137	-0.146973	0.154467	-0.502759	-0.089079	-0.845836	-0.553894	-61.404688	-158.972412	-0.446748	-0.171737	0.878022	0.350878	-0.936410	-0.004627	0.822983	0.306012	0.478598	0	0	0
14087	0	0	0	0	0	8.658627	-0.029362	4.712781	-0.010025	-0.007198	-0.007012	-1.077637	0.148193	-0.150391	0.154402	-0.502790	-0.089051	-0.845832	-0.553031	-61.408163	-158.981388	-0.446725	-0.171648	0.878051	0.350743	-0.936460	-0.004619	0.823053	0.305907	0.478544	0	0	0
14088	0	0	0	0	0	8.658920	-0.046669	4.695313	-0.009544	-0.002671	-0.007768	-1.077637	0.141113	-0.150635	0.154316	-0.502804	-0.089012	-0.845843	-0.550848	-61.409148	-158.994112	-0.446749	-0.171543	0.878059	0.350567	-0.936526	-0.004601	0.823115	0.305763	0.478530	0	0	0
14089	0	0	0	0	0	8.665918	-0.045329	4.728884	-0.006999	-0.002934	-0.005443	-1.080566	0.141113	-0.147949	0.154267	-0.502816	-0.088990	-0.845848	-0.549856	-61.410171	-159.001260	-0.446756	-0.171482	0.878068	0.350464	-0.936565	-0.004592	0.823155	0.305680	0.478514	0	0	0
14090	0	0	0	0	0	8.642697	-0.067378	4.716525	-0.004858	-0.002488	-0.008126	-1.076904	0.142578	-0.146240	0.154191	-0.502826	-0.088972	-0.845858	-0.544518	-61.411045	-159.014634	-0.446783	-0.171373	0.878075	0.350322	-0.936618	-0.004548	0.823201	0.305577	0.478501	0	0	0
14091	0	0	0	0	0	8.659183	-0.028157	4.711766	-0.000446	0.000133	-0.007129	-1.080566	0.146973	-0.142334	0.154153	-0.502819	-0.088979	-0.845868	-0.537968	-61.410319	-159.023837	-0.446821	-0.171305	0.878069	0.350266	-0.936640	-0.004493	0.823204	0.305550	0.478513	0	0	0
14092	0	0	0	0	0	8.635840	-0.050045	4.699635	0.001028	-0.000354	-0.003462	-1.070557	0.143555	-0.145020	0.154108	-0.502818	-0.088969	-0.845878	-0.534288	-61.410017	-159.032074	-0.446850	-0.171243	0.878067	0.350184	-0.936670	-0.004462	0.823223	0.305491	0.478518	0	0	0
14093	0	0	0	0	0	8.652416	-0.028253	4.677776	0.008488	-0.003452	-0.004968	-1.076416	0.148438	-0.155762	0.154100	-0.502820	-0.089011	-0.845874	-0.524927	-61.411333	-159.038648	-0.446851	-0.171184	0.878078	0.350211	-0.936661	-0.004384	0.823211	0.305553	0.478498	0	0	0
14094	0	0	0	0	0	8.629101	-0.032203	4.682525	0.010355	-0.000565	-0.006298	-1.085205	0.147217	-0.145508	0.154077	-0.502810	-0.089054	-0.845879	-0.512934	-61.411065	-159.048925	-0.446885	-0.171106	0.878075	0.350215	-0.936659	-0.004284	0.823191	0.305601	0.478503	0	0	0
14095	0	0	0	0	0	8.652510	-0.009050	4.694531	0.006030	-0.002034	-0.003052	-1.089844	0.146484	-0.156006	0.154071	-0.502809	-0.089080	-0.845878	-0.506981	-61.411558	-159.053223	-0.446891	-0.171069	0.878080	0.350230	-0.936654	-0.004234	0.823181	0.305638	0.478496	0	0	0
14096	0	0	0	0	0	8.629298	-0.030813	4.682171	0.007418	-0.003674	-0.003627	-1.075928	0.145752	-0.147461	0.154044	-0.502816	-0.089103	-0.845876	-0.499489	-61.413106	-159.061099	-0.446892	-0.170999	0.878092	0.350209	-0.936662	-0.004171	0.823189	0.305652	0.478473	0	0	0
14097	0	0	0	0	0	8.636427	-0.046506	4.698593	0.008848	-0.004736	-0.002080	-1.075195	0.144287	-0.148682	0.154048	-0.502825	-0.089140	-0.845867	-0.492966	-61.415142	-159.064205	-0.446873	-0.170964	0.878109	0.350252	-0.936646	-0.004117	0.823182	0.305720	0.478442	0	0	0
14098	0	0	0	0	0	8.653007	-0.007287	4.693618	0.008575	-0.002296	-0.000727	-1.082275	0.139404	-0.148926	0.154039	-0.502827	-0.089161	-0.845865	-0.487856	-61.415875	-159.068321	-0.446874	-0.170928	0.878116	0.350258	-0.936644	-0.004074	0.823178	0.305747	0.478431	0	0	0
14099	0	0	0	0	0	8.660173	-0.040649	4.693058	0.007778	-0.004959	-0.000739	-1.087891	0.137207	-0.143799	0.154046	-0.502838	-0.089191	-0.845854	-0.483358	-61.418032	-159.069820	-0.446848	-0.170904	0.878134	0.350298	-0.936630	-0.004036	0.823176	0.305805	0.478398	0	0	0
14100	0	0	0	0	0	8.653428	-0.041354	4.659012	0.008258	-0.000433	-0.001496	-1.071533	0.144531	-0.142090	0.154025	-0.502833	-0.089206	-0.845859	-0.477391	-61.417746	-159.076241	-0.446871	-0.170856	0.878131	0.350279	-0.936637	-0.003986	0.823171	0.305810	0.478403	0	0	0
14101	0	0	0	0	0	8.683911	-0.052569	4.670612	0.004567	-0.005627	0.003287	-1.068359	0.151123	-0.147949	0.154041	-0.502851	-0.089213	-0.845845	-0.478973	-61.420267	-159.072913	-0.446825	-0.170868	0.878152	0.350310	-0.936625	-0.003999	0.823183	0.305839	0.478365	0	0	0
14102	0	0	0	0	0	8.653575	-0.006010	4.692573	0.008301	0.000145	0.000625	-1.077393	0.151123	-0.155518	0.154039	-0.502843	-0.089227	-0.845848	-0.475550	-61.419624	-159.075278	-0.446841	-0.170853	0.878147	0.350321	-0.936621	-0.003971	0.823169	0.305859	0.478375	0	0	0
14103	0	0	0	0	0	8.683886	-0.017077	4.704492	0.006870	0.001207	-0.000922	-1.084717	0.146973	-0.139893	0.154045	-0.502829	-0.089248	-0.845853	-0.471326	-61.418248	-159.077058	-0.446866	-0.170847	0.878135	0.350353	-0.936610	-0.003935	0.823142	0.305898	0.478396	0	0	0
14104	0	0	0	0	0	8.660506	-0.039083	4.692456	0.008301	0.000145	0.000624	-1.078613	0.150146	-0.143555	0.154042	-0.502821	-0.089261	-0.845857	-0.467879	-61.417610	-159.079699	-0.446883	-0.170830	0.878130	0.350359	-0.936607	-0.003907	0.823130	0.305915	0.478406	0	0	0
14105	0	0	0	0	0	8.653503	-0.022419	4.675796	0.009098	0.002808	0.000635	-1.080811	0.148438	-0.149170	0.154061	-0.502799	-0.089287	-0.845864	-0.464002	-61.415310	-159.079630	-0.446916	-0.170843	0.878111	0.350416	-0.936586	-0.003875	0.823088	0.305972	0.478442	0	0	0
14106	0	0	0	0	0	8.636944	-0.043342	4.697673	0.008345	0.000723	0.002745	-1.084473	0.147949	-0.149170	0.154066	-0.502791	-0.089294	-0.845868	-0.462776	-61.414346	-159.079829	-0.446931	-0.170847	0.878103	0.350430	-0.936581	-0.003865	0.823074	0.305987	0.478456	0	0	0
14107	0	0	0	0	0	8.653403	-0.039482	4.659075	0.008028	0.002586	0.001976	-1.083252	0.138428	-0.145264	0.154088	-0.502771	-0.089312	-0.845873	-0.460925	-61.412167	-159.078151	-0.446957	-0.170872	0.878085	0.350485	-0.936561	-0.003849	0.823037	0.306035	0.478490	0	0	0
14108	0	0	0	0	0	8.636786	-0.042980	4.697966	0.008345	0.000724	0.002744	-1.078369	0.147705	-0.145264	0.154089	-0.502762	-0.089317	-0.845878	-0.459497	-61.411195	-159.078936	-0.446973	-0.170871	0.878076	0.350492	-0.936558	-0.003838	0.823025	0.306044	0.478505	0	0	0
14109	0	0	0	0	0	8.676693	-0.016967	4.671275	0.006520	-0.001584	0.006196	-1.075439	0.140137	-0.147217	0.154124	-0.502763	-0.089322	-0.845870	-0.462982	-61.411385	-159.072165	-0.446950	-0.170922	0.878078	0.350553	-0.936535	-0.003867	0.823012	0.306085	0.478502	0	0	0
14110	0	0	0	0	0	8.667177	-0.054397	4.709741	0.008302	0.000147	0.000623	-1.082031	0.148193	-0.147705	0.154118	-0.502756	-0.089334	-0.845874	-0.459407	-61.410744	-159.075104	-0.446968	-0.170903	0.878073	0.350556	-0.936534	-0.003837	0.823001	0.306099	0.478512	0	0	0
14111	0	0	0	0	0	8.660120	-0.038144	4.693175	0.005656	0.005160	0.008132	-1.082764	0.142090	-0.152344	0.154162	-0.502730	-0.089325	-0.845883	-0.465364	-61.407062	-159.066081	-0.446994	-0.170994	0.878042	0.350618	-0.936510	-0.003887	0.822960	0.306120	0.478568	0	0	0
14112	0	0	0	0	0	8.636503	-0.043393	4.698483	0.007044	0.003521	0.007558	-1.080566	0.144775	-0.153076	0.154186	-0.502712	-0.089313	-0.845890	-0.469759	-61.404425	-159.060486	-0.447015	-0.171052	0.878020	0.350647	-0.936500	-0.003924	0.822936	0.306121	0.478608	0	0	0
14113	0	0	0	0	0	8.652725	-0.005052	4.694141	0.009272	0.005123	0.009114	-1.082764	0.146240	-0.142578	0.154243	-0.502683	-0.089317	-0.845897	-0.474673	-61.400758	-159.050291	-0.447037	-0.171151	0.877989	0.350743	-0.936463	-0.003966	0.822883	0.306176	0.478664	0	0	0
14114	0	0	0	0	0	8.659584	-0.039171	4.694157	0.008749	0.000020	0.007752	-1.081055	0.147705	-0.149658	0.154269	-0.502680	-0.089313	-0.845895	-0.478351	-61.400156	-159.044716	-0.447029	-0.171198	0.877984	0.350782	-0.936449	-0.003996	0.822872	0.306194	0.478673	0	0	0
14115	0	0	0	0	0	8.629292	-0.045637	4.665291	0.011337	0.000339	0.012196	-1.078125	0.146729	-0.145508	0.154341	-0.502671	-0.089321	-0.845885	-0.485362	-61.399215	-159.030785	-0.447001	-0.171312	0.877976	0.350909	-0.936401	-0.004055	0.822833	0.306277	0.478687	0	0	0
14116	0	0	0	0	0	8.659640	-0.039967	4.694046	0.006837	-0.003443	0.006964	-1.077637	0.143555	-0.152344	0.154359	-0.502683	-0.089315	-0.845876	-0.489394	-61.400601	-159.025911	-0.446966	-0.171342	0.877988	0.350930	-0.936393	-0.004089	0.822842	0.306285	0.478665	0	0	0
14117	0	0	0	0	0	8.659830	-0.075056	4.659874	0.013392	-0.000373	0.005271	-1.079102	0.143311	-0.147705	0.154407	-0.502673	-0.089349	-0.845869	-0.487956	-61.400100	-159.020262	-0.446957	-0.171389	0.877984	0.351043	-0.936350	-0.004077	0.822799	0.306388	0.478673	0	0	0
14118	0	0	0	0	0	8.636474	-0.045072	4.698520	0.007514	-0.006586	0.010621	-1.082031	0.139648	-0.152588	0.154442	-0.502699	-0.089341	-0.845849	-0.495344	-61.403223	-159.010793	-0.446884	-0.171446	0.878010	0.351092	-0.936332	-0.004138	0.822818	0.306413	0.478625	0	0	0
14119	0	0	0	0	0	8.636798	-0.045629	4.697920	0.006400	-0.007386	0.009843	-1.081543	0.148193	-0.149658	0.154489	-0.502726	-0.089340	-0.845824	-0.502782	-61.406718	-158.999598	-0.446800	-0.171514	0.878039	0.351168	-0.936303	-0.004200	0.822831	0.306462	0.478570	0	0	0
14120	0	0	0	0	0	8.660549	-0.058743	4.675438	0.007154	-0.005302	0.007732	-1.077881	0.153809	-0.151123	0.154511	-0.502745	-0.089336	-0.845809	-0.507323	-61.409115	-158.993640	-0.446748	-0.171547	0.878059	0.351200	-0.936291	-0.004237	0.822846	0.306481	0.478533	0	0	0
14121	0	0	0	0	0	8.637357	-0.046394	4.696885	0.006040	-0.006103	0.006954	-1.080322	0.147461	-0.146484	0.154545	-0.502766	-0.089339	-0.845790	-0.511922	-61.411888	-158.985914	-0.446685	-0.171592	0.878082	0.351260	-0.936268	-0.004275	0.822854	0.306525	0.478491	0	0	0
14122	0	0	0	0	0	8.637660	-0.064284	4.679397	0.003538	-0.005264	0.006749	-1.082520	0.151367	-0.143555	0.154555	-0.502787	-0.089322	-0.845777	-0.517729	-61.414304	-158.980827	-0.446635	-0.171619	0.878102	0.351259	-0.936268	-0.004323	0.822881	0.306511	0.478453	0	0	0
14123	0	0	0	0	0	8.677672	-0.021321	4.669439	-0.004282	-0.000886	0.005369	-1.079102	0.144043	-0.149658	0.154560	-0.502793	-0.089282	-0.845777	-0.526528	-61.414095	-158.975054	-0.446621	-0.171665	0.878101	0.351227	-0.936280	-0.004397	0.822903	0.306449	0.478456	0	0	0
14124	0	0	0	0	0	8.668142	-0.042094	4.724836	-0.012269	-0.002893	0.005517	-1.073730	0.147461	-0.153809	0.154521	-0.502817	-0.089197	-0.845779	-0.539993	-61.415189	-158.972114	-0.446597	-0.171682	0.878110	0.351082	-0.936334	-0.004509	0.822978	0.306274	0.478438	0	0	0
14125	0	0	0	0	0	8.658383	-0.045476	4.797582	-0.016351	0.007255	0.001470	-1.082275	0.146973	-0.155273	0.154482	-0.502796	-0.089110	-0.845808	-0.551526	-61.410337	-158.971103	-0.446663	-0.171716	0.878069	0.350933	-0.936389	-0.004606	0.823006	0.306086	0.478511	0	0	0
14126	0	0	0	0	0	8.654307	-0.029027	4.674271	-0.013549	-0.010078	0.006266	-1.088135	0.142090	-0.145020	0.154451	-0.502849	-0.089030	-0.845790	-0.566513	-61.415415	-158.965820	-0.446574	-0.171730	0.878112	0.350804	-0.936437	-0.004731	0.823109	0.305932	0.478432	0	0	0
14127	0	0	0	0	0	8.654666	-0.082277	4.622766	-0.005801	-0.000983	-0.000417	-1.069092	0.145752	-0.145264	0.154427	-0.502854	-0.088998	-0.845795	-0.570100	-61.415293	-158.966974	-0.446580	-0.171721	0.878111	0.350733	-0.936463	-0.004761	0.823136	0.305857	0.478434	0	0	0
14128	0	0	0	0	0	8.621671	-0.037099	4.750983	0.000904	-0.006164	0.000185	-1.079834	0.154297	-0.152588	0.154396	-0.502880	-0.088984	-0.845787	-0.570347	-61.418294	-158.970716	-0.446548	-0.171676	0.878136	0.350668	-0.936488	-0.004762	0.823181	0.305808	0.478388	0	0	0
14129	0	0	0	0	0	8.672050	-0.079357	4.582391	-0.021200	-0.023927	0.003116	-1.080566	0.143555	-0.151123	0.154338	-0.502995	-0.088896	-0.845738	-0.586716	-61.431297	-158.967361	-0.446352	-0.171630	0.878244	0.350487	-0.936555	-0.004897	0.823364	0.305627	0.478187	0	0	0
14130	0	0	0	0	0	8.643027	-0.104332	4.534101	-0.027165	-0.031288	0.004222	-1.073242	0.140137	-0.153564	0.154251	-0.503149	-0.088777	-0.845675	-0.607664	-61.448586	-158.964656	-0.446096	-0.171556	0.878389	0.350229	-0.936651	-0.005069	0.823613	0.305376	0.477920	0	0	0
14131	0	0	0	0	0	8.658409	-0.068721	4.632666	-0.034243	-0.039444	0.004546	-1.073730	0.146484	-0.145508	0.154159	-0.503340	-0.088642	-0.845592	-0.633212	-61.470469	-158.959361	-0.445767	-0.171477	0.878571	0.349946	-0.936755	-0.005278	0.823911	0.305100	0.477582	0	0	0
14132	0	0	0	0	0	8.674148	-0.033190	4.730723	-0.035128	-0.043249	0.000288	-1.072510	0.148682	-0.146484	0.154030	-0.503548	-0.088509	-0.845506	-0.654613	-61.494624	-158.961354	-0.445428	-0.171328	0.878772	0.349604	-0.936882	-0.005452	0.824240	0.304793	0.477210	0	0	0
14133	0	0	0	0	0	8.663740	-0.091136	4.855431	-0.030020	-0.029138	0.001117	-1.078857	0.145020	-0.151855	0.153939	-0.503692	-0.088393	-0.845449	-0.674035	-61.510623	-158.960278	-0.445195	-0.171249	0.878906	0.349340	-0.936979	-0.005611	0.824477	0.304539	0.476963	0	0	0
14134	0	0	0	0	0	8.650967	-0.077153	4.802850	-0.025052	-0.016767	-0.004408	-1.081543	0.145996	-0.157471	0.153827	-0.503778	-0.088294	-0.845428	-0.684495	-61.519642	-158.968094	-0.445090	-0.171138	0.878981	0.349061	-0.937083	-0.005697	0.824652	0.304282	0.476823	0	0	0
14135	0	0	0	0	0	8.677506	-0.036329	4.724537	-0.000209	-0.006959	-0.000602	-1.072266	0.147949	-0.141113	0.153814	-0.503804	-0.088291	-0.845416	-0.684753	-61.522946	-158.969389	-0.445046	-0.171110	0.879008	0.349036	-0.937092	-0.005698	0.824687	0.304269	0.476773	0	0	0
14136	0	0	0	0	0	8.694404	-0.032460	4.684943	0.000333	-0.011834	-0.003312	-1.081787	0.146729	-0.145020	0.153773	-0.503850	-0.088293	-0.845395	-0.681761	-61.529127	-158.975961	-0.444977	-0.171025	0.879060	0.348971	-0.937116	-0.005672	0.824751	0.304242	0.476678	0	0	0
14137	0	0	0	0	0	8.725230	-0.061116	4.678807	0.002246	-0.008376	-0.002521	-1.088135	0.138672	-0.153564	0.153757	-0.503879	-0.088306	-0.845379	-0.678601	-61.533256	-158.979544	-0.444929	-0.170974	0.879094	0.348957	-0.937122	-0.005645	0.824783	0.304255	0.476615	0	0	0
14138	0	0	0	0	0	8.762775	-0.105940	4.689869	0.003477	-0.001773	-0.005382	-1.084717	0.141846	-0.147949	0.153715	-0.503881	-0.088316	-0.845385	-0.671336	-61.533707	-158.989573	-0.444952	-0.170894	0.879098	0.348898	-0.937144	-0.005585	0.824796	0.304230	0.476609	0	0	0
14139	0	0	0	0	0	8.732363	-0.058738	4.712290	0.007256	0.004565	-0.005922	-1.075195	0.149170	-0.148193	0.153702	-0.503850	-0.088350	-0.845403	-0.661551	-61.530444	-158.997426	-0.445022	-0.170851	0.879071	0.348911	-0.937140	-0.005504	0.824752	0.304268	0.476660	0	0	0
14140	0	0	0	0	0	8.711292	-0.043783	4.628329	0.014489	0.004482	-0.003964	-1.077148	0.145020	-0.150146	0.153699	-0.503817	-0.088399	-0.845418	-0.649523	-61.527307	-159.005471	-0.445091	-0.170806	0.879044	0.348952	-0.937125	-0.005404	0.824697	0.304339	0.476709	0	0	0
14141	0	0	0	0	0	8.687536	-0.047889	4.633979	0.011491	0.010777	0.000664	-1.085205	0.141846	-0.146240	0.153728	-0.503759	-0.088428	-0.845444	-0.644199	-61.520441	-159.005490	-0.445190	-0.170843	0.878987	0.349029	-0.937096	-0.005361	0.824612	0.304406	0.476815	0	0	0
14142	0	0	0	0	0	8.656570	-0.000951	4.657388	0.008355	0.015340	-0.001069	-1.079834	0.152588	-0.146484	0.153724	-0.503686	-0.088435	-0.845487	-0.638555	-61.511070	-159.010434	-0.445339	-0.170856	0.878909	0.349030	-0.937096	-0.005316	0.824531	0.304399	0.476959	0	0	0
14143	0	0	0	0	0	8.639442	-0.021670	4.680382	0.008673	0.013480	-0.000304	-1.080322	0.148682	-0.158936	0.153743	-0.503619	-0.088453	-0.845522	-0.633794	-61.502661	-159.011650	-0.445463	-0.170893	0.878839	0.349080	-0.937078	-0.005278	0.824443	0.304434	0.477089	0	0	0
14144	0	0	0	0	0	8.638900	-0.056370	4.647357	0.009354	0.010337	0.003348	-1.073486	0.145752	-0.153076	0.153767	-0.503567	-0.088461	-0.845548	-0.632492	-61.496078	-159.010013	-0.445552	-0.170942	0.878784	0.349126	-0.937061	-0.005268	0.824375	0.304459	0.477190	0	0	0
14145	0	0	0	0	0	8.608035	-0.044512	4.636513	0.013677	0.011802	0.000098	-1.079590	0.149170	-0.152588	0.153799	-0.503503	-0.088500	-0.845576	-0.625310	-61.488628	-159.010721	-0.445661	-0.170978	0.878722	0.349218	-0.937027	-0.005209	0.824277	0.304544	0.477305	0	0	0
14146	0	0	0	0	0	8.637922	-0.055408	4.649187	0.014312	0.008082	0.001630	-1.079590	0.140869	-0.144775	0.153827	-0.503456	-0.088536	-0.845595	-0.619298	-61.483335	-159.011143	-0.445738	-0.171003	0.878678	0.349298	-0.936997	-0.005160	0.824202	0.304621	0.477386	0	0	0
14147	0	0	0	0	0	8.637595	-0.037441	4.666799	0.009898	0.005462	0.000639	-1.080811	0.148682	-0.147949	0.153850	-0.503422	-0.088563	-0.845608	-0.614927	-61.479514	-159.011116	-0.445793	-0.171025	0.878646	0.349362	-0.936974	-0.005124	0.824145	0.304681	0.477445	0	0	0
14148	0	0	0	0	0	8.630530	-0.020797	4.650250	0.010849	-0.000120	0.002939	-1.089844	0.148682	-0.147705	0.153860	-0.503415	-0.088580	-0.845608	-0.612336	-61.479020	-159.011319	-0.445800	-0.171026	0.878642	0.349396	-0.936961	-0.005103	0.824127	0.304719	0.477453	0	0	0
14149	0	0	0	0	0	8.653879	-0.015725	4.645390	0.008031	0.002581	0.001970	-1.082275	0.143066	-0.152100	0.153882	-0.503395	-0.088598	-0.845614	-0.610471	-61.476842	-159.009658	-0.445826	-0.171051	0.878624	0.349450	-0.936941	-0.005088	0.824089	0.304767	0.477487	0	0	0
14150	0	0	0	0	0	8.653720	0.001803	4.662681	0.008122	0.003738	0.006209	-1.079102	0.140381	-0.156738	0.153903	-0.503375	-0.088594	-0.845623	-0.612831	-61.474091	-159.005783	-0.445854	-0.171096	0.878601	0.349480	-0.936930	-0.005108	0.824062	0.304776	0.477529	0	0	0
14151	0	0	0	0	0	8.660429	-0.014857	4.679891	0.003164	0.005997	0.007925	-1.078613	0.141846	-0.144775	0.153940	-0.503347	-0.088574	-0.845635	-0.619991	-61.469919	-158.997023	-0.445888	-0.171187	0.878566	0.349520	-0.936915	-0.005168	0.824026	0.304772	0.477592	0	0	0
14152	0	0	0	0	0	8.660181	-0.015255	4.680350	0.005621	0.004579	0.006007	-1.072510	0.144775	-0.150879	0.153956	-0.503325	-0.088561	-0.845647	-0.623427	-61.466642	-158.993150	-0.445923	-0.171235	0.878539	0.349535	-0.936909	-0.005197	0.824001	0.304762	0.477642	0	0	0
14153	0	0	0	0	0	8.690245	-0.044693	4.675692	0.001778	0.007638	0.008499	-1.075195	0.148438	-0.141357	0.153992	-0.503291	-0.088532	-0.845663	-0.631963	-61.461526	-158.983727	-0.445968	-0.171337	0.878497	0.349566	-0.936897	-0.005269	0.823963	0.304743	0.477720	0	0	0
14154	0	0	0	0	0	8.666469	-0.050101	4.681329	0.002848	0.007859	0.007157	-1.080566	0.149902	-0.152344	0.154007	-0.503258	-0.088500	-0.845683	-0.638380	-61.456426	-158.978536	-0.446026	-0.171405	0.878454	0.349559	-0.936899	-0.005324	0.823935	0.304697	0.477797	0	0	0
14155	0	0	0	0	0	8.689496	-0.063146	4.660082	0.008650	0.008841	0.007571	-1.081055	0.147705	-0.149902	0.154057	-0.503214	-0.088502	-0.845700	-0.641982	-61.450625	-158.970247	-0.446084	-0.171501	0.878406	0.349644	-0.936867	-0.005355	0.823868	0.304740	0.477886	0	0	0
14156	0	0	0	0	0	8.672505	-0.066635	4.699765	0.023507	0.012048	0.006493	-1.087158	0.145508	-0.151123	0.154126	-0.503147	-0.088558	-0.845722	-0.635811	-61.443089	-158.965521	-0.446178	-0.171580	0.878343	0.349810	-0.936806	-0.005305	0.823746	0.304887	0.478002	0	0	0
14157	0	0	0	0	0	8.651172	-0.034784	4.633442	0.023554	0.012631	0.008610	-1.083496	0.141357	-0.157227	0.154220	-0.503075	-0.088617	-0.845741	-0.631920	-61.435111	-158.956040	-0.446263	-0.171697	0.878276	0.350022	-0.936727	-0.005273	0.823610	0.305063	0.478125	0	0	0
14158	0	0	0	0	0	8.667113	-0.048300	4.578765	0.013730	0.012391	0.002208	-1.083740	0.139404	-0.149170	0.154244	-0.503012	-0.088642	-0.845772	-0.626632	-61.427375	-158.956741	-0.446376	-0.171735	0.878212	0.350087	-0.936703	-0.005231	0.823521	0.305116	0.478244	0	0	0
14159	0	0	0	0	0	8.680426	-0.063001	4.630336	0.015477	0.009471	0.004520	-1.077881	0.149658	-0.153320	0.154299	-0.502958	-0.088680	-0.845790	-0.623099	-61.421233	-158.952119	-0.446450	-0.171804	0.878160	0.350214	-0.936655	-0.005202	0.823427	0.305222	0.478338	0	0	0
14160	0	0	0	0	0	8.670436	-0.047615	4.720573	0.012493	0.005789	0.005076	-1.079346	0.146240	-0.153076	0.154329	-0.502925	-0.088697	-0.845803	-0.621692	-61.417299	-158.949413	-0.446498	-0.171847	0.878127	0.350279	-0.936631	-0.005191	0.823374	0.305272	0.478399	0	0	0
14161	0	0	0	0	0	8.606766	-0.077994	4.752860	0.011772	0.008350	-0.000700	-1.078857	0.151855	-0.145752	0.154352	-0.502877	-0.088733	-0.845823	-0.614806	-61.411832	-158.951028	-0.446581	-0.171865	0.878082	0.350352	-0.936604	-0.005135	0.823297	0.305345	0.478483	0	0	0
14162	0	0	0	0	0	8.615991	-0.039953	4.714959	0.016820	0.007254	0.001825	-1.083740	0.149170	-0.144287	0.154379	-0.502833	-0.088775	-0.845840	-0.607649	-61.407111	-158.952112	-0.446652	-0.171882	0.878042	0.350437	-0.936572	-0.005076	0.823223	0.305432	0.478556	0	0	0
14163	0	0	0	0	0	8.639040	-0.034464	4.710687	0.015389	0.008315	0.000279	-1.082031	0.144043	-0.142822	0.154415	-0.502783	-0.088824	-0.845858	-0.599723	-61.401657	-158.952551	-0.446731	-0.171909	0.877997	0.350544	-0.936533	-0.005010	0.823134	0.305539	0.478640	0	0	0
14164	0	0	0	0	0	8.692489	-0.040418	4.718152	0.012360	0.004051	-0.001283	-1.080078	0.143066	-0.153564	0.154407	-0.502756	-0.088851	-0.845872	-0.591856	-61.398888	-158.958639	-0.446789	-0.171877	0.877974	0.350558	-0.936528	-0.004945	0.823097	0.305572	0.478683	0	0	0
14165	0	0	0	0	0	8.645489	-0.031850	4.745309	0.012676	0.002190	-0.000514	-1.080811	0.147217	-0.153564	0.154430	-0.502733	-0.088895	-0.845877	-0.584720	-61.396948	-158.959948	-0.446821	-0.171877	0.877957	0.350639	-0.936498	-0.004886	0.823045	0.305664	0.478714	0	0	0
14166	0	0	0	0	0	8.652224	-0.064977	4.745507	0.012044	0.005913	-0.002053	-1.081055	0.144287	-0.154541	0.154431	-0.502696	-0.088929	-0.845895	-0.576087	-61.392957	-158.965421	-0.446894	-0.171856	0.877924	0.350674	-0.936485	-0.004814	0.822990	0.305714	0.478776	0	0	0
14167	0	0	0	0	0	8.668379	-0.025435	4.741333	0.010253	0.008251	-0.006488	-1.086182	0.141846	-0.146484	0.154426	-0.502647	-0.088974	-0.845921	-0.564003	-61.387578	-158.973948	-0.446997	-0.171819	0.877879	0.350709	-0.936473	-0.004714	0.822920	0.305773	0.478859	0	0	0
14168	0	0	0	0	0	8.674876	-0.040675	4.758917	0.011369	0.009055	-0.005712	-1.083984	0.150635	-0.149170	0.154405	-0.502597	-0.089009	-0.845951	-0.551846	-61.381862	-158.984672	-0.447111	-0.171767	0.877831	0.350709	-0.936473	-0.004613	0.822858	0.305801	0.478948	0	0	0
14169	0	0	0	0	0	8.660555	-0.007113	4.726191	0.009667	0.012557	-0.005910	-1.082275	0.137939	-0.147217	0.154402	-0.502530	-0.089046	-0.845987	-0.540670	-61.374012	-158.992549	-0.447247	-0.171749	0.877766	0.350741	-0.936462	-0.004521	0.822770	0.305847	0.479069	0	0	0
14170	0	0	0	0	0	8.666896	-0.039967	4.727139	0.009667	0.012558	-0.005910	-1.082764	0.143799	-0.153564	0.154376	-0.502467	-0.089069	-0.846027	-0.529322	-61.366326	-159.003795	-0.447390	-0.171703	0.877701	0.350721	-0.936470	-0.004427	0.822701	0.305847	0.479187	0	0	0
14171	0	0	0	0	0	8.635898	-0.010103	4.733400	0.011942	0.014746	-0.002240	-1.076660	0.141602	-0.147949	0.154395	-0.502391	-0.089105	-0.846065	-0.520681	-61.357201	-159.007299	-0.447531	-0.171726	0.877625	0.350788	-0.936445	-0.004356	0.822595	0.305911	0.479328	0	0	0
14172	0	0	0	0	0	8.648950	-0.059343	4.751547	0.014928	0.018435	-0.002801	-1.084961	0.136719	-0.147217	0.154401	-0.502299	-0.089141	-0.846114	-0.509482	-61.346081	-159.014404	-0.447712	-0.171731	0.877532	0.350834	-0.936428	-0.004264	0.822478	0.305959	0.479499	0	0	0
14173	0	0	0	0	0	8.631624	-0.062058	4.791691	0.013373	0.013692	-0.000695	-1.085693	0.144531	-0.150146	0.154431	-0.502227	-0.089180	-0.846148	-0.501658	-61.337551	-159.016044	-0.447839	-0.171765	0.877461	0.350920	-0.936396	-0.004200	0.822372	0.306038	0.479630	0	0	0
14174	0	0	0	0	0	8.647377	-0.040013	4.771318	0.019617	0.018626	-0.003166	-1.085205	0.149902	-0.142578	0.154441	-0.502132	-0.089233	-0.846197	-0.487345	-61.326374	-159.024472	-0.448024	-0.171761	0.877367	0.350988	-0.936371	-0.004081	0.822242	0.306117	0.479802	0	0	0
14175	0	0	0	0	0	8.639736	-0.040277	4.738950	0.015561	0.014720	-0.001264	-1.081299	0.146973	-0.155273	0.154474	-0.502053	-0.089282	-0.846232	-0.477670	-61.317259	-159.026792	-0.448161	-0.171792	0.877291	0.351090	-0.936333	-0.004001	0.822124	0.306214	0.479943	0	0	0
14176	0	0	0	0	0	8.615677	-0.044099	4.745044	0.023067	0.012211	-0.000651	-1.081543	0.147705	-0.154053	0.154504	-0.501984	-0.089349	-0.846261	-0.464337	-61.309752	-159.031480	-0.448282	-0.171797	0.877228	0.351205	-0.936291	-0.003891	0.822009	0.306343	0.480058	0	0	0
14177	0	0	0	0	0	8.631613	-0.021880	4.724357	0.024183	0.013018	0.000123	-1.079102	0.151855	-0.157715	0.154563	-0.501906	-0.089432	-0.846287	-0.451198	-61.301605	-159.032120	-0.448401	-0.171837	0.877160	0.351383	-0.936224	-0.003781	0.821868	0.306524	0.480184	0	0	0
14178	0	0	0	0	0	8.647698	-0.034795	4.669692	0.020839	0.010609	-0.002206	-1.081787	0.150879	-0.156494	0.154590	-0.501842	-0.089501	-0.846313	-0.437530	-61.294915	-159.037325	-0.448512	-0.171832	0.877104	0.351495	-0.936183	-0.003668	0.821759	0.306652	0.480287	0	0	0
14179	0	0	0	0	0	8.630496	-0.019573	4.726406	0.024185	0.013025	0.000119	-1.081055	0.148438	-0.152832	0.154650	-0.501765	-0.089584	-0.846339	-0.424393	-61.286764	-159.037961	-0.448630	-0.171872	0.877035	0.351673	-0.936116	-0.003559	0.821618	0.306833	0.480413	0	0	0
14180	0	0	0	0	0	8.636908	-0.034715	4.744146	0.021471	0.006892	-0.000665	-1.078369	0.147949	-0.155273	0.154681	-0.501718	-0.089653	-0.846354	-0.412019	-61.282226	-159.041612	-0.448706	-0.171868	0.876997	0.351791	-0.936072	-0.003455	0.821526	0.306970	0.480483	0	0	0
14181	0	0	0	0	0	8.659981	-0.028746	4.739877	0.023659	0.007919	-0.001233	-1.074219	0.149902	-0.156006	0.154731	-0.501662	-0.089742	-0.846369	-0.397813	-61.277005	-159.043810	-0.448787	-0.171880	0.876953	0.351959	-0.936009	-0.003337	0.821410	0.307154	0.480564	0	0	0
14182	0	0	0	0	0	8.652756	-0.011398	4.723630	0.024017	0.006646	0.001656	-1.080811	0.143799	-0.151123	0.154782	-0.501614	-0.089818	-0.846380	-0.386402	-61.272567	-159.044273	-0.448852	-0.171900	0.876916	0.352116	-0.935951	-0.003241	0.821308	0.307321	0.480632	0	0	0
14183	0	0	0	0	0	8.629029	-0.032743	4.712282	0.021158	0.008760	-0.001442	-1.088867	0.151367	-0.147217	0.154825	-0.501556	-0.089895	-0.846398	-0.373410	-61.266865	-159.046721	-0.448941	-0.171912	0.876868	0.352262	-0.935896	-0.003133	0.821196	0.307481	0.480720	0	0	0
14184	0	0	0	0	0	8.651992	-0.009125	4.725033	0.021117	0.008177	-0.003561	-1.078613	0.146484	-0.156006	0.154834	-0.501504	-0.089964	-0.846420	-0.358190	-61.261700	-159.055111	-0.449040	-0.171875	0.876825	0.352343	-0.935866	-0.003006	0.821107	0.307594	0.480800	0	0	0
14185	0	0	0	0	0	8.628266	-0.030178	4.713697	0.023620	0.007345	-0.003357	-1.086670	0.148193	-0.159180	0.154875	-0.501450	-0.090057	-0.846435	-0.341803	-61.256814	-159.059824	-0.449124	-0.171865	0.876784	0.352502	-0.935807	-0.002869	0.820993	0.307779	0.480876	0	0	0
14186	0	0	0	0	0	8.637746	-0.026714	4.641749	0.022506	0.006542	-0.004134	-1.077393	0.149658	-0.149658	0.154895	-0.501401	-0.090141	-0.846451	-0.325139	-61.252455	-159.067476	-0.449209	-0.171829	0.876747	0.352616	-0.935764	-0.002729	0.820898	0.307929	0.480943	0	0	0
14187	0	0	0	0	0	8.657948	-0.038664	4.726840	0.022464	0.005958	-0.006253	-1.077637	0.144043	-0.152588	0.154920	-0.501352	-0.090238	-0.846465	-0.306405	-61.248372	-159.075622	-0.449292	-0.171787	0.876713	0.352751	-0.935714	-0.002572	0.820794	0.308106	0.481007	0	0	0
14188	0	0	0	0	0	8.643989	-0.004821	4.693413	0.019519	0.002853	-0.003568	-1.077148	0.145508	-0.157715	0.154928	-0.501323	-0.090307	-0.846474	-0.292134	-61.246206	-159.083264	-0.449346	-0.171739	0.876695	0.352831	-0.935684	-0.002453	0.820731	0.308223	0.481041	0	0	0
14189	0	0	0	0	0	8.643759	0.014091	4.710613	0.021708	0.003882	-0.004138	-1.081055	0.139404	-0.152588	0.154959	-0.501284	-0.090397	-0.846481	-0.276057	-61.243304	-159.088872	-0.449404	-0.171711	0.876671	0.352970	-0.935632	-0.002318	0.820639	0.308396	0.481086	0	0	0
14190	0	0	0	0	0	8.620222	-0.007041	4.698956	0.014473	0.003937	-0.006100	-1.079834	0.153076	-0.146729	0.154946	-0.501252	-0.090453	-0.846497	-0.261859	-61.240462	-159.099330	-0.449476	-0.171644	0.876647	0.353002	-0.935620	-0.002199	0.820585	0.308470	0.481130	0	0	0
14191	0	0	0	0	0	8.636635	0.015114	4.677374	0.017333	0.001831	-0.003002	-1.083008	0.146729	-0.148682	0.154971	-0.501226	-0.090523	-0.846500	-0.249488	-61.238731	-159.103571	-0.449514	-0.171620	0.876632	0.353110	-0.935579	-0.002095	0.820519	0.308606	0.481157	0	0	0
14192	0	0	0	0	0	8.643507	-0.000069	4.694302	0.011801	-0.001617	-0.004756	-1.081543	0.143066	-0.152100	0.154947	-0.501222	-0.090562	-0.846502	-0.238551	-61.239206	-159.113208	-0.449536	-0.171542	0.876636	0.353110	-0.935580	-0.002003	0.820507	0.308648	0.481150	0	0	0
14193	0	0	0	0	0	8.643607	0.000820	4.694118	0.009613	-0.002644	-0.004187	-1.080078	0.145996	-0.150879	0.154945	-0.501220	-0.090607	-0.846499	-0.229386	-61.240041	-159.118837	-0.449541	-0.171494	0.876643	0.353149	-0.935565	-0.001926	0.820487	0.308720	0.481137	0	0	0
14194	0	0	0	0	0	8.643793	-0.016123	4.677019	0.006037	-0.002031	-0.003050	-1.079346	0.145264	-0.151123	0.154917	-0.501223	-0.090620	-0.846501	-0.223333	-61.240678	-159.126155	-0.449553	-0.171433	0.876648	0.353116	-0.935578	-0.001875	0.820494	0.308716	0.481128	0	0	0
14195	0	0	0	0	0	8.643839	0.002228	4.693689	0.005954	-0.003204	-0.007285	-1.080566	0.144531	-0.151123	0.154892	-0.501225	-0.090657	-0.846501	-0.213033	-61.241840	-159.135471	-0.449565	-0.171353	0.876658	0.353111	-0.935580	-0.001789	0.820490	0.308754	0.481110	0	0	0
14196	0	0	0	0	0	8.657610	-0.011908	4.744278	0.001031	-0.000366	-0.003461	-1.093262	0.141357	-0.152100	0.154851	-0.501224	-0.090649	-0.846510	-0.209432	-61.241527	-159.143241	-0.449592	-0.171294	0.876656	0.353036	-0.935608	-0.001759	0.820507	0.308700	0.481115	0	0	0
14197	0	0	0	0	0	8.650760	-0.013014	4.710544	-0.001787	0.002326	-0.004442	-1.080322	0.145264	-0.147461	0.154821	-0.501210	-0.090642	-0.846524	-0.206514	-61.239514	-159.149195	-0.449639	-0.171258	0.876639	0.352981	-0.935629	-0.001734	0.820506	0.308657	0.481146	0	0	0
14198	0	0	0	0	0	8.657611	-0.028792	4.727528	0.000990	-0.000953	-0.005579	-1.082031	0.142090	-0.152100	0.154765	-0.501211	-0.090637	-0.846534	-0.200671	-61.239584	-159.160262	-0.449671	-0.171171	0.876639	0.352884	-0.935666	-0.001685	0.820530	0.308594	0.481145	0	0	0
14199	0	0	0	0	0	8.657589	-0.028203	4.727571	-0.000756	0.001961	-0.007903	-1.083252	0.152344	-0.150146	0.154723	-0.501196	-0.090643	-0.846550	-0.193551	-61.237786	-159.170336	-0.449727	-0.171102	0.876624	0.352821	-0.935689	-0.001625	0.820526	0.308561	0.481173	0	0	0
14200	0	0	0	0	0	8.667302	-0.025686	4.655211	-0.000714	0.002548	-0.005786	-1.076172	0.148682	-0.151611	0.154668	-0.501183	-0.090631	-0.846569	-0.188592	-61.235821	-159.180886	-0.449786	-0.171030	0.876608	0.352720	-0.935728	-0.001584	0.820537	0.308485	0.481203	0	0	0
14201	0	0	0	0	0	8.626999	-0.015916	4.716084	-0.004606	0.005019	-0.005424	-1.083984	0.141602	-0.151855	0.154629	-0.501159	-0.090612	-0.846592	-0.186258	-61.232266	-159.188017	-0.449859	-0.170993	0.876578	0.352637	-0.935759	-0.001564	0.820533	0.308410	0.481258	0	0	0
14202	0	0	0	0	0	8.633695	-0.049539	4.716614	-0.005994	0.006659	-0.004856	-1.075439	0.143799	-0.156006	0.154568	-0.501133	-0.090573	-0.846623	-0.185224	-61.227922	-159.197323	-0.449948	-0.170943	0.876541	0.352500	-0.935811	-0.001556	0.820543	0.308281	0.481324	0	0	0
14203	0	0	0	0	0	8.633262	-0.031921	4.734144	-0.008456	0.008078	-0.002944	-1.076904	0.142578	-0.154541	0.154531	-0.501101	-0.090529	-0.846654	-0.187675	-61.222610	-159.201512	-0.450037	-0.170939	0.876497	0.352396	-0.935849	-0.001577	0.820539	0.308165	0.481405	0	0	0
14204	0	0	0	0	0	8.679613	-0.004761	4.741966	-0.009885	0.009132	-0.004494	-1.082275	0.136230	-0.153564	0.154468	-0.501066	-0.090475	-0.846692	-0.189165	-61.216776	-159.209697	-0.450145	-0.170907	0.876448	0.352242	-0.935908	-0.001590	0.820546	0.308006	0.481494	0	0	0
14205	0	0	0	0	0	8.632464	-0.049923	4.718864	-0.014850	0.011384	-0.002789	-1.084961	0.144775	-0.151123	0.154417	-0.501024	-0.090401	-0.846733	-0.195430	-61.209570	-159.213715	-0.450260	-0.170914	0.876387	0.352086	-0.935966	-0.001643	0.820549	0.307824	0.481605	0	0	0
14206	0	0	0	0	0	8.631854	-0.033015	4.736704	-0.011908	0.010449	0.004545	-1.084473	0.140869	-0.153809	0.154380	-0.500991	-0.090309	-0.846770	-0.207417	-61.203037	-159.212354	-0.450349	-0.170960	0.876332	0.351937	-0.936022	-0.001744	0.820564	0.307629	0.481704	0	0	0
14207	0	0	0	0	0	8.631298	-0.033739	4.737712	-0.012620	0.013001	-0.001242	-1.086182	0.145752	-0.152832	0.154342	-0.500942	-0.090240	-0.846813	-0.214008	-61.194900	-159.214542	-0.450472	-0.170987	0.876264	0.351807	-0.936071	-0.001800	0.820553	0.307465	0.481828	0	0	0
14208	0	0	0	0	0	8.647281	-0.013262	4.716926	-0.009761	0.010894	0.001857	-1.080322	0.145752	-0.153564	0.154300	-0.500904	-0.090164	-0.846851	-0.222038	-61.188118	-159.216207	-0.450574	-0.171011	0.876207	0.351665	-0.936124	-0.001868	0.820558	0.307290	0.481932	0	0	0
14209	0	0	0	0	0	8.630268	-0.034771	4.739580	-0.008413	0.008669	-0.000829	-1.080566	0.148193	-0.150146	0.154272	-0.500870	-0.090115	-0.846882	-0.226664	-61.182463	-159.217887	-0.450660	-0.171029	0.876159	0.351572	-0.936159	-0.001907	0.820550	0.307173	0.482018	0	0	0
14210	0	0	0	0	0	8.629858	-0.035054	4.740325	-0.004796	0.008643	0.000153	-1.079346	0.145020	-0.159424	0.154236	-0.500837	-0.090066	-0.846913	-0.230234	-61.176989	-159.221247	-0.450748	-0.171032	0.876113	0.351466	-0.936199	-0.001937	0.820547	0.307051	0.482102	0	0	0
14211	0	0	0	0	0	8.652894	-0.030457	4.736146	-0.005910	0.007837	-0.000623	-1.075928	0.144043	-0.149170	0.154215	-0.500804	-0.090028	-0.846941	-0.233644	-61.171811	-159.222678	-0.450826	-0.171049	0.876070	0.351394	-0.936226	-0.001966	0.820535	0.306959	0.482181	0	0	0
14212	0	0	0	0	0	8.629142	-0.053142	4.724901	-0.002567	0.010258	0.001702	-1.086182	0.140625	-0.160156	0.154195	-0.500762	-0.089986	-0.846973	-0.237451	-61.165355	-159.223791	-0.450922	-0.171075	0.876015	0.351321	-0.936253	-0.001999	0.820514	0.306862	0.482279	0	0	0
14213	0	0	0	0	0	8.621822	-0.037062	4.708808	-0.000105	0.008840	-0.000208	-1.077881	0.145996	-0.148193	0.154191	-0.500721	-0.089970	-0.847000	-0.237961	-61.159602	-159.224736	-0.451007	-0.171099	0.875967	0.351299	-0.936261	-0.002003	0.820477	0.306823	0.482367	0	0	0
14214	0	0	0	0	0	8.611518	-0.039032	4.782075	0.002398	0.008007	-0.000001	-1.078125	0.147217	-0.157715	0.154172	-0.500685	-0.089954	-0.847027	-0.237109	-61.154461	-159.228315	-0.451091	-0.171098	0.875924	0.351253	-0.936279	-0.001997	0.820450	0.306770	0.482446	0	0	0
14215	0	0	0	0	0	8.644114	0.003104	4.739437	-0.002122	0.014205	-0.001192	-1.078125	0.140381	-0.155029	0.154161	-0.500622	-0.089928	-0.847068	-0.237729	-61.145635	-159.230454	-0.451224	-0.171129	0.875849	0.351209	-0.936295	-0.002002	0.820396	0.306703	0.482581	0	0	0
14216	0	0	0	0	0	8.650256	-0.013377	4.757671	-0.008161	0.016237	0.001851	-1.077637	0.139893	-0.156738	0.154132	-0.500559	-0.089858	-0.847118	-0.244829	-61.135728	-159.231238	-0.451368	-0.171177	0.875766	0.351095	-0.936338	-0.002063	0.820365	0.306546	0.482732	0	0	0
14217	0	0	0	0	0	8.662756	-0.011136	4.827134	-0.014423	0.025356	-0.001669	-1.081543	0.145996	-0.160400	0.154093	-0.500458	-0.089773	-0.847194	-0.251951	-61.120515	-159.234003	-0.451593	-0.171238	0.875638	0.350948	-0.936392	-0.002124	0.820304	0.306344	0.482964	0	0	0
14218	0	0	0	0	0	8.638001	-0.016642	4.834369	-0.016085	0.029449	0.000237	-1.077637	0.145020	-0.151611	0.154044	-0.500344	-0.089665	-0.847281	-0.261797	-61.103015	-159.236656	-0.451851	-0.171312	0.875490	0.350765	-0.936461	-0.002208	0.820241	0.306093	0.483231	0	0	0
14219	0	0	0	0	0	8.650182	-0.014336	4.657333	-0.013008	0.013708	-0.006267	-1.080322	0.140869	-0.162109	0.153984	-0.500290	-0.089606	-0.847331	-0.263387	-61.094489	-159.244813	-0.451998	-0.171293	0.875418	0.350609	-0.936519	-0.002222	0.820227	0.305925	0.483361	0	0	0
14220	0	0	0	0	0	8.579240	-0.046514	4.656398	-0.001595	0.019330	0.000149	-1.080078	0.150635	-0.155273	0.153965	-0.500208	-0.089565	-0.847387	-0.264907	-61.082822	-159.247844	-0.452173	-0.171333	0.875320	0.350538	-0.936546	-0.002236	0.820160	0.305822	0.483540	0	0	0
14221	0	0	0	0	0	8.592123	-0.025934	4.741785	0.000996	-0.000949	-0.005578	-1.081787	0.144287	-0.150146	0.153936	-0.500205	-0.089575	-0.847393	-0.259262	-61.082691	-159.255102	-0.452197	-0.171276	0.875318	0.350500	-0.936560	-0.002188	0.820163	0.305810	0.483542	0	0	0
14222	0	0	0	0	0	8.643107	-0.086248	4.557406	-0.018030	-0.013347	0.003185	-1.075195	0.147705	-0.152344	0.153868	-0.500277	-0.089479	-0.847373	-0.273698	-61.089829	-159.254927	-0.452094	-0.171239	0.875379	0.350296	-0.936636	-0.002309	0.820307	0.305598	0.483432	0	0	0
14223	0	0	0	0	0	8.617099	-0.075190	4.684023	-0.019392	-0.021717	-0.000278	-1.080078	0.143311	-0.160889	0.153801	-0.500380	-0.089405	-0.847332	-0.285336	-61.101584	-159.255786	-0.451929	-0.171168	0.875478	0.350115	-0.936704	-0.002407	0.820475	0.305430	0.483252	0	0	0
14224	0	0	0	0	0	8.591117	-0.029263	4.844115	-0.027304	-0.022571	0.004101	-1.087402	0.159424	-0.153809	0.153717	-0.500498	-0.089279	-0.847291	-0.306002	-61.113921	-159.253643	-0.451746	-0.171119	0.875582	0.349853	-0.936801	-0.002580	0.820687	0.305160	0.483063	0	0	0
14225	0	0	0	0	0	8.639143	-0.021151	4.832311	-0.030683	-0.025568	-0.000349	-1.083496	0.146729	-0.158936	0.153620	-0.500626	-0.089160	-0.847246	-0.324070	-61.127882	-159.254547	-0.451549	-0.171036	0.875700	0.349579	-0.936903	-0.002731	0.820913	0.304893	0.482849	0	0	0
14226	0	0	0	0	0	8.609833	-0.028533	4.801783	-0.016152	-0.010445	0.001839	-1.079102	0.144775	-0.150879	0.153558	-0.500683	-0.089075	-0.847232	-0.336167	-61.133316	-159.255202	-0.451474	-0.171001	0.875745	0.349395	-0.936971	-0.002833	0.821033	0.304702	0.482765	0	0	0
14227	0	0	0	0	0	8.603279	-0.012699	4.784333	0.000275	-0.002447	-0.001344	-1.076172	0.149414	-0.158203	0.153544	-0.500689	-0.089073	-0.847231	-0.335332	-61.134034	-159.257437	-0.451470	-0.170980	0.875751	0.349370	-0.936980	-0.002825	0.821045	0.304686	0.482754	0	0	0
14228	0	0	0	0	0	8.653104	0.015713	4.685347	0.012091	0.006527	0.000067	-1.077393	0.139160	-0.157959	0.153553	-0.500651	-0.089100	-0.847249	-0.329133	-61.129728	-159.260358	-0.451540	-0.170980	0.875715	0.349412	-0.936965	-0.002774	0.820989	0.304733	0.482820	0	0	0
14229	0	0	0	0	0	8.676648	-0.014015	4.646806	0.003496	-0.001781	-0.005370	-1.078613	0.150879	-0.156006	0.153531	-0.500650	-0.089120	-0.847252	-0.322265	-61.130077	-159.267374	-0.451556	-0.170923	0.875718	0.349395	-0.936971	-0.002716	0.820987	0.304746	0.482815	0	0	0
14230	0	0	0	0	0	8.697315	-0.062216	4.697353	0.006078	-0.001449	-0.000925	-1.080322	0.138672	-0.153320	0.153520	-0.500649	-0.089132	-0.847253	-0.318433	-61.130305	-159.271185	-0.451565	-0.170892	0.875720	0.349388	-0.936974	-0.002683	0.820986	0.304754	0.482812	0	0	0
14231	0	0	0	0	0	8.664083	-0.086132	4.757808	0.008985	0.001080	-0.005726	-1.084961	0.140625	-0.151367	0.153511	-0.500631	-0.089175	-0.847261	-0.308034	-61.129015	-159.278642	-0.451605	-0.170840	0.875709	0.349415	-0.936964	-0.002596	0.820952	0.304814	0.482832	0	0	0
14232	0	0	0	0	0	8.673691	-0.047883	4.719325	0.008670	0.002944	-0.006500	-1.079346	0.137207	-0.164795	0.153474	-0.500609	-0.089203	-0.847277	-0.296746	-61.126830	-159.290538	-0.451672	-0.170758	0.875691	0.349382	-0.936977	-0.002501	0.820929	0.304821	0.482866	0	0	0
14233	0	0	0	0	0	8.666459	-0.030900	4.703108	0.011187	0.012703	-0.000141	-1.083496	0.149170	-0.159180	0.153500	-0.500543	-0.089232	-0.847309	-0.290828	-61.118863	-159.291437	-0.451788	-0.170794	0.875624	0.349453	-0.936951	-0.002452	0.820835	0.304881	0.482988	0	0	0
14234	0	0	0	0	0	8.612045	-0.006307	4.713926	0.009000	0.011676	0.000424	-1.085938	0.148682	-0.162598	0.153511	-0.500485	-0.089246	-0.847340	-0.286548	-61.111498	-159.293272	-0.451899	-0.170819	0.875561	0.349484	-0.936939	-0.002416	0.820761	0.304903	0.483101	0	0	0
14235	0	0	0	0	0	8.611587	-0.006097	4.714763	0.004939	0.007758	0.002331	-1.082275	0.145996	-0.164795	0.153529	-0.500445	-0.089246	-0.847360	-0.286804	-61.106358	-159.291208	-0.451967	-0.170863	0.875518	0.349515	-0.936928	-0.002419	0.820711	0.304913	0.483179	0	0	0
14236	0	0	0	0	0	8.578111	-0.065730	4.742195	0.004311	0.011484	0.000780	-1.081543	0.143311	-0.148438	0.153532	-0.500391	-0.089240	-0.847392	-0.285707	-61.099100	-159.292338	-0.452074	-0.170893	0.875457	0.349512	-0.936929	-0.002410	0.820653	0.304893	0.483290	0	0	0
14237	0	0	0	0	0	8.594510	-0.062156	4.704039	-0.001428	0.001057	-0.001551	-1.082520	0.143555	-0.151611	0.153515	-0.500383	-0.089228	-0.847401	-0.285616	-61.097810	-159.294838	-0.452100	-0.170881	0.875446	0.349473	-0.936943	-0.002409	0.820655	0.304855	0.483310	0	0	0
14238	0	0	0	0	0	8.611006	-0.040826	4.682418	0.005450	0.002279	-0.002474	-1.080811	0.134766	-0.155762	0.153484	-0.500369	-0.089231	-0.847414	-0.280545	-61.096055	-159.302151	-0.452146	-0.170832	0.875431	0.349426	-0.936961	-0.002367	0.820649	0.304828	0.483337	0	0	0
14239	0	0	0	0	0	8.580556	-0.011486	4.687370	0.003577	-0.000613	-0.001133	-1.081055	0.141846	-0.155518	0.153481	-0.500365	-0.089240	-0.847417	-0.278030	-61.095720	-159.304145	-0.452157	-0.170819	0.875428	0.349429	-0.936960	-0.002345	0.820642	0.304840	0.483342	0	0	0
14240	0	0	0	0	0	8.594254	-0.026000	4.737922	0.002738	-0.003867	-0.003252	-1.077148	0.140625	-0.151855	0.153443	-0.500377	-0.089243	-0.847416	-0.273507	-61.097378	-159.311654	-0.452156	-0.170750	0.875442	0.349371	-0.936982	-0.002307	0.820667	0.304811	0.483317	0	0	0
14241	0	0	0	0	0	8.617813	-0.003258	4.749533	0.000865	-0.006758	-0.001911	-1.077637	0.142090	-0.153076	0.153427	-0.500401	-0.089248	-0.847404	-0.271769	-61.100566	-159.314535	-0.452119	-0.170710	0.875469	0.349349	-0.936990	-0.002292	0.820697	0.304808	0.483268	0	0	0
14242	0	0	0	0	0	8.634692	0.017750	4.727199	-0.007402	-0.006339	-0.000421	-1.077393	0.143066	-0.151855	0.153374	-0.500433	-0.089201	-0.847400	-0.276163	-61.103678	-159.318725	-0.452087	-0.170661	0.875496	0.349217	-0.937039	-0.002329	0.820771	0.304685	0.483221	0	0	0
14243	0	0	0	0	0	8.635108	-0.000114	4.709734	-0.009944	-0.006089	-0.002748	-1.078613	0.140137	-0.157715	0.153328	-0.500461	-0.089161	-0.847396	-0.279745	-61.106485	-159.322603	-0.452058	-0.170615	0.875519	0.349102	-0.937082	-0.002359	0.820836	0.304579	0.483178	0	0	0
14244	0	0	0	0	0	8.688879	0.010579	4.733527	-0.010494	-0.001194	-0.000062	-1.072754	0.147949	-0.156982	0.153274	-0.500474	-0.089099	-0.847405	-0.286240	-61.106610	-159.326011	-0.452067	-0.170587	0.875520	0.348953	-0.937137	-0.002414	0.820894	0.304425	0.483175	0	0	0
14245	0	0	0	0	0	8.665663	-0.012587	4.721291	-0.014829	-0.002666	0.003188	-1.073730	0.145264	-0.152832	0.153242	-0.500494	-0.089021	-0.847407	-0.298766	-61.107439	-159.322870	-0.452045	-0.170608	0.875527	0.348825	-0.937184	-0.002519	0.820960	0.304267	0.483162	0	0	0
14246	0	0	0	0	0	8.695914	-0.024626	4.733400	-0.011437	0.004397	-0.002387	-1.081543	0.145020	-0.146240	0.153183	-0.500482	-0.088957	-0.847431	-0.303551	-61.104357	-159.328367	-0.452106	-0.170581	0.875501	0.348667	-0.937243	-0.002560	0.820994	0.304101	0.483209	0	0	0
14247	0	0	0	0	0	8.655906	-0.068563	4.743326	-0.007152	0.001226	0.002266	-1.076416	0.145264	-0.156982	0.153168	-0.500479	-0.088911	-0.847440	-0.310700	-61.102958	-159.326343	-0.452120	-0.170604	0.875489	0.348598	-0.937269	-0.002620	0.821016	0.304009	0.483230	0	0	0
14248	0	0	0	0	0	8.642120	-0.036382	4.709641	0.008385	0.001332	0.004866	-1.073242	0.136963	-0.156494	0.153180	-0.500470	-0.088912	-0.847444	-0.311632	-61.101687	-159.324296	-0.452132	-0.170627	0.875479	0.348618	-0.937261	-0.002628	0.821001	0.304019	0.483249	0	0	0
14249	0	0	0	0	0	8.605048	-0.026452	4.663842	0.006197	0.000304	0.005431	-1.078857	0.140625	-0.159912	0.153211	-0.500462	-0.088915	-0.847442	-0.314422	-61.100807	-159.318514	-0.452127	-0.170678	0.875471	0.348673	-0.937241	-0.002652	0.820980	0.304054	0.483263	0	0	0
14250	0	0	0	0	0	8.635283	-0.038117	4.675979	0.001193	0.001974	0.005013	-1.084229	0.152100	-0.150391	0.153214	-0.500454	-0.088890	-0.847449	-0.319338	-61.099031	-159.315386	-0.452143	-0.170712	0.875456	0.348653	-0.937248	-0.002694	0.820979	0.304013	0.483290	0	0	0
14251	0	0	0	0	0	8.658621	-0.016023	4.688003	0.000668	-0.003142	0.003668	-1.083252	0.150146	-0.150635	0.153223	-0.500464	-0.088877	-0.847443	-0.323485	-61.100130	-159.311673	-0.452117	-0.170735	0.875466	0.348655	-0.937247	-0.002729	0.820994	0.304002	0.483273	0	0	0
14252	0	0	0	0	0	8.635349	-0.003769	4.709290	-0.009236	-0.008643	0.003036	-1.082764	0.144287	-0.157959	0.153176	-0.500510	-0.088813	-0.847431	-0.332879	-61.104636	-159.311914	-0.452053	-0.170709	0.875504	0.348516	-0.937299	-0.002807	0.821088	0.303858	0.483203	0	0	0
14253	0	0	0	0	0	8.595993	-0.065497	4.701284	0.000538	-0.008952	0.007333	-1.082764	0.144043	-0.153076	0.153197	-0.500547	-0.088794	-0.847407	-0.340944	-61.109052	-159.303812	-0.451966	-0.170749	0.875541	0.348533	-0.937292	-0.002875	0.821129	0.303855	0.483136	0	0	0
14254	0	0	0	0	0	8.589416	-0.031956	4.700593	0.004834	-0.008065	0.001964	-1.078857	0.140381	-0.158691	0.153187	-0.500578	-0.088796	-0.847390	-0.340858	-61.113121	-159.304816	-0.451910	-0.170719	0.875575	0.348517	-0.937298	-0.002874	0.821165	0.303854	0.483073	0	0	0
14255	0	0	0	0	0	8.643314	-0.003234	4.740897	0.007336	-0.008900	0.002173	-1.082764	0.140869	-0.159912	0.153203	-0.500608	-0.088820	-0.847368	-0.339671	-61.117524	-159.302833	-0.451842	-0.170711	0.875612	0.348566	-0.937280	-0.002863	0.821182	0.303915	0.483006	0	0	0
14256	0	0	0	0	0	8.633973	-0.022935	4.795641	0.002961	-0.010954	0.003304	-1.070801	0.146484	-0.154297	0.153198	-0.500651	-0.088816	-0.847343	-0.341907	-61.123160	-159.301641	-0.451757	-0.170690	0.875660	0.348554	-0.937284	-0.002882	0.821234	0.303913	0.482920	0	0	0
14257	0	0	0	0	0	8.627909	-0.042041	4.743815	0.002162	-0.013622	0.003302	-1.079346	0.152832	-0.151855	0.153204	-0.500705	-0.088818	-0.847310	-0.344889	-61.130265	-159.298282	-0.451646	-0.170678	0.875720	0.348566	-0.937280	-0.002906	0.821291	0.303933	0.482811	0	0	0
14258	0	0	0	0	0	8.628612	-0.042159	4.742535	0.002436	-0.016068	0.001958	-1.075195	0.143311	-0.153320	0.153187	-0.500772	-0.088817	-0.847274	-0.346471	-61.138936	-159.298668	-0.451523	-0.170628	0.875793	0.348536	-0.937291	-0.002919	0.821371	0.303927	0.482679	0	0	0
14259	0	0	0	0	0	8.645782	-0.003454	4.736394	0.003195	-0.013983	-0.000159	-1.084961	0.139893	-0.152344	0.153180	-0.500825	-0.088832	-0.847242	-0.345267	-61.146259	-159.299415	-0.451421	-0.170583	0.875854	0.348541	-0.937289	-0.002908	0.821425	0.303958	0.482567	0	0	0
14260	0	0	0	0	0	8.676791	-0.014836	4.747107	-0.001179	-0.016037	0.000973	-1.084717	0.145020	-0.157959	0.153145	-0.500894	-0.088817	-0.847209	-0.347582	-61.154917	-159.301831	-0.451304	-0.170517	0.875927	0.348468	-0.937316	-0.002927	0.821520	0.303912	0.482434	0	0	0
14261	0	0	0	0	0	8.630682	-0.042189	4.738767	-0.006854	-0.011226	-0.003109	-1.075195	0.137451	-0.148193	0.153103	-0.500942	-0.088795	-0.847191	-0.349050	-61.160672	-159.306100	-0.451234	-0.170452	0.875976	0.348377	-0.937350	-0.002939	0.821597	0.303843	0.482346	0	0	0
14262	0	0	0	0	0	8.647722	-0.003959	4.732851	-0.003558	-0.013447	0.007119	-1.079834	0.146729	-0.160156	0.153090	-0.501004	-0.088752	-0.847161	-0.359093	-61.167813	-159.301145	-0.451117	-0.170453	0.876036	0.348313	-0.937373	-0.003022	0.821688	0.303771	0.482236	0	0	0
14263	0	0	0	0	0	8.631797	-0.043090	4.736728	-0.000968	-0.009059	0.001544	-1.077881	0.143555	-0.155273	0.153082	-0.501040	-0.088742	-0.847142	-0.362017	-61.172309	-159.299901	-0.451049	-0.170438	0.876074	0.348291	-0.937381	-0.003047	0.821734	0.303755	0.482168	0	0	0
14264	0	0	0	0	0	8.655660	-0.038603	4.731030	-0.003114	-0.009501	0.004228	-1.075439	0.141113	-0.152100	0.153068	-0.501083	-0.088709	-0.847123	-0.368873	-61.177118	-159.297261	-0.450973	-0.170433	0.876114	0.348236	-0.937402	-0.003104	0.821800	0.303695	0.482094	0	0	0
14265	0	0	0	0	0	8.663055	-0.055451	4.746970	-0.004986	-0.012389	0.005568	-1.078125	0.145508	-0.151855	0.153066	-0.501138	-0.088675	-0.847094	-0.378315	-61.183506	-159.291206	-0.450863	-0.170446	0.876168	0.348199	-0.937415	-0.003183	0.821876	0.303646	0.481995	0	0	0
14266	0	0	0	0	0	8.633229	-0.044679	4.734103	-0.000885	-0.007889	0.005779	-1.079102	0.137207	-0.150391	0.153058	-0.501174	-0.088643	-0.847078	-0.385497	-61.187470	-159.287626	-0.450796	-0.170453	0.876201	0.348155	-0.937431	-0.003243	0.821931	0.303592	0.481934	0	0	0
14267	0	0	0	0	0	8.610282	-0.050093	4.738128	-0.001369	-0.012417	0.006550	-1.081787	0.139404	-0.156738	0.153069	-0.501227	-0.088621	-0.847047	-0.393895	-61.193871	-159.280397	-0.450683	-0.170475	0.876255	0.348152	-0.937432	-0.003313	0.821994	0.303577	0.481836	0	0	0
14268	0	0	0	0	0	8.657744	-0.058499	4.710401	0.003005	-0.010363	0.005415	-1.080566	0.152832	-0.153320	0.153067	-0.501270	-0.088609	-0.847023	-0.398272	-61.199225	-159.277513	-0.450598	-0.170469	0.876300	0.348136	-0.937438	-0.003349	0.822048	0.303563	0.481754	0	0	0
14269	0	0	0	0	0	8.620959	-0.013559	4.697588	0.000461	-0.010112	0.003091	-1.084229	0.147461	-0.148438	0.153069	-0.501310	-0.088602	-0.846999	-0.402004	-61.204318	-159.274413	-0.450516	-0.170466	0.876343	0.348133	-0.937439	-0.003380	0.822094	0.303561	0.481676	0	0	0
14270	0	0	0	0	0	8.658753	-0.041783	4.725340	-0.000696	-0.015552	0.010213	-1.078613	0.148193	-0.147949	0.153075	-0.501381	-0.088563	-0.846960	-0.414004	-61.212701	-159.265604	-0.450370	-0.170490	0.876413	0.348105	-0.937449	-0.003480	0.822186	0.303516	0.481547	0	0	0
14271	0	0	0	0	0	8.669104	-0.004991	4.685372	-0.001495	-0.014166	0.000194	-1.083008	0.145996	-0.143799	0.153059	-0.501439	-0.088558	-0.846930	-0.415871	-61.220129	-159.265913	-0.450264	-0.170447	0.876476	0.348072	-0.937461	-0.003494	0.822258	0.303504	0.481433	0	0	0
14272	0	0	0	0	0	8.653345	-0.026265	4.705738	-0.003051	-0.018913	0.002306	-1.086426	0.149414	-0.155762	0.153017	-0.501524	-0.088528	-0.846890	-0.420940	-61.230540	-159.267334	-0.450120	-0.170379	0.876563	0.347976	-0.937497	-0.003536	0.822378	0.303431	0.481274	0	0	0
14273	0	0	0	0	0	8.640460	-0.011527	4.653502	-0.001221	-0.016609	-0.001153	-1.087646	0.141602	-0.145996	0.152995	-0.501591	-0.088530	-0.846854	-0.421264	-61.239372	-159.269223	-0.449999	-0.170317	0.876638	0.347940	-0.937510	-0.003538	0.822459	0.303425	0.481138	0	0	0
14274	0	0	0	0	0	8.638600	-0.047413	4.724267	-0.001432	-0.023578	-0.001730	-1.078369	0.137695	-0.152100	0.152941	-0.501691	-0.088523	-0.846805	-0.421087	-61.252399	-159.275052	-0.449830	-0.170200	0.876747	0.347846	-0.937545	-0.003535	0.822591	0.303383	0.480939	0	0	0
14275	0	0	0	0	0	8.649323	-0.027515	4.666730	0.000440	-0.020690	-0.003072	-1.085693	0.145508	-0.148438	0.152913	-0.501773	-0.088540	-0.846760	-0.418485	-61.263578	-159.279193	-0.449682	-0.170107	0.876841	0.347815	-0.937557	-0.003512	0.822685	0.303399	0.480768	0	0	0
14276	0	0	0	0	0	8.657274	-0.043434	4.681666	0.002144	-0.024187	-0.002871	-1.072754	0.139160	-0.145020	0.152865	-0.501873	-0.088553	-0.846708	-0.414944	-61.276933	-159.286245	-0.449512	-0.169980	0.876953	0.347750	-0.937581	-0.003480	0.822806	0.303396	0.480564	0	0	0
14277	0	0	0	0	0	8.658258	-0.043056	4.679850	-0.001306	-0.017770	-0.005394	-1.075928	0.143311	-0.152100	0.152824	-0.501943	-0.088566	-0.846672	-0.410886	-61.286448	-159.293185	-0.449396	-0.169874	0.877033	0.347694	-0.937602	-0.003445	0.822893	0.303391	0.480419	0	0	0
14278	0	0	0	0	0	8.682573	-0.055357	4.656391	0.001197	-0.018603	-0.005191	-1.080811	0.133545	-0.147705	0.152769	-0.502018	-0.088578	-0.846636	-0.405449	-61.296603	-159.302689	-0.449279	-0.169744	0.877118	0.347616	-0.937631	-0.003399	0.822990	0.303373	0.480263	0	0	0
14279	0	0	0	0	0	8.652943	-0.008224	4.676878	0.006729	-0.015162	-0.003435	-1.078613	0.153809	-0.145264	0.152758	-0.502072	-0.088618	-0.846602	-0.398809	-61.304616	-159.307323	-0.449178	-0.169665	0.877185	0.347635	-0.937624	-0.003342	0.823037	0.303439	0.480141	0	0	0
14280	0	0	0	0	0	8.660550	-0.041453	4.675620	0.003910	-0.012467	-0.004411	-1.077148	0.143555	-0.151367	0.152711	-0.502120	-0.088632	-0.846581	-0.392677	-61.311311	-159.316495	-0.449109	-0.169556	0.877241	0.347573	-0.937647	-0.003290	0.823100	0.303427	0.480039	0	0	0
14281	0	0	0	0	0	8.677572	-0.002333	4.669673	0.003954	-0.011883	-0.002293	-1.081543	0.147949	-0.154541	0.152699	-0.502163	-0.088655	-0.846555	-0.388795	-61.317440	-159.319798	-0.449031	-0.169497	0.877292	0.347574	-0.937647	-0.003257	0.823142	0.303462	0.479945	0	0	0
14282	0	0	0	0	0	8.661570	-0.022908	4.690599	0.005824	-0.008997	-0.003634	-1.075439	0.150879	-0.142822	0.152672	-0.502194	-0.088678	-0.846540	-0.382362	-61.322027	-159.326748	-0.448986	-0.169418	0.877331	0.347552	-0.937655	-0.003202	0.823176	0.303481	0.479876	0	0	0
14283	0	0	0	0	0	8.668874	-0.038480	4.706774	0.009125	-0.007167	-0.003429	-1.085938	0.141113	-0.147705	0.152670	-0.502212	-0.088722	-0.846525	-0.374291	-61.325457	-159.331448	-0.448951	-0.169363	0.877359	0.347591	-0.937641	-0.003135	0.823179	0.303555	0.479823	0	0	0
14284	0	0	0	0	0	8.662310	-0.021602	4.689238	0.006939	-0.008192	-0.002860	-1.076660	0.145264	-0.152832	0.152638	-0.502241	-0.088741	-0.846511	-0.368108	-61.329720	-159.338850	-0.448911	-0.169282	0.877395	0.347559	-0.937653	-0.003082	0.823214	0.303563	0.479759	0	0	0
14285	0	0	0	0	0	8.662509	-0.003709	4.705733	0.003935	-0.001888	0.001749	-1.079834	0.141602	-0.144531	0.152648	-0.502243	-0.088746	-0.846508	-0.368399	-61.330107	-159.337410	-0.448902	-0.169291	0.877398	0.347578	-0.937646	-0.003085	0.823211	0.303580	0.479753	0	0	0
14286	0	0	0	0	0	8.693002	-0.032395	4.700496	0.011083	-0.003113	-0.000535	-1.073730	0.148193	-0.146729	0.152644	-0.502247	-0.088776	-0.846502	-0.362119	-61.331371	-159.341417	-0.448895	-0.169253	0.877409	0.347603	-0.937637	-0.003032	0.823204	0.303629	0.479734	0	0	0
14287	0	0	0	0	0	8.646155	-0.024117	4.727340	0.004416	0.002635	0.000979	-1.075439	0.151367	-0.153809	0.152653	-0.502229	-0.088781	-0.846511	-0.361297	-61.329169	-159.340930	-0.448925	-0.169268	0.877391	0.347623	-0.937630	-0.003025	0.823179	0.303643	0.479767	0	0	0
14288	0	0	0	0	0	8.692803	-0.014182	4.717725	0.008789	0.004687	-0.000161	-1.079102	0.145264	-0.148682	0.152655	-0.502202	-0.088798	-0.846525	-0.356910	-61.325934	-159.343611	-0.448980	-0.169265	0.877363	0.347642	-0.937623	-0.002989	0.823142	0.303666	0.479817	0	0	0
14289	0	0	0	0	0	8.685560	0.002346	4.701431	0.007128	0.008769	0.001757	-1.084961	0.142822	-0.152588	0.152677	-0.502156	-0.088808	-0.846547	-0.355310	-61.320215	-159.342240	-0.449058	-0.169307	0.877316	0.347688	-0.937606	-0.002976	0.823080	0.303695	0.479905	0	0	0
14290	0	0	0	0	0	8.668635	-0.018443	4.724082	0.009315	0.009796	0.001187	-1.083252	0.137207	-0.146729	0.152683	-0.502108	-0.088817	-0.846574	-0.351749	-61.314062	-159.344227	-0.449152	-0.169324	0.877264	0.347707	-0.937599	-0.002947	0.823021	0.303707	0.479999	0	0	0
14291	0	0	0	0	0	8.644727	-0.023074	4.729956	0.006856	0.011214	0.003102	-1.076416	0.144775	-0.151611	0.152711	-0.502053	-0.088820	-0.846601	-0.351698	-61.306938	-159.341268	-0.449245	-0.169386	0.877204	0.347756	-0.937580	-0.002947	0.822949	0.303729	0.480108	0	0	0
14292	0	0	0	0	0	8.684226	-0.014758	4.687051	0.004943	0.007745	0.002326	-1.078613	0.142578	-0.155273	0.152708	-0.502017	-0.088809	-0.846624	-0.351759	-61.301971	-159.342188	-0.449319	-0.169405	0.877163	0.347740	-0.937586	-0.002948	0.822915	0.303700	0.480184	0	0	0
14293	0	0	0	0	0	8.667086	-0.018006	4.726926	0.008093	0.017820	0.000214	-1.083984	0.142578	-0.147949	0.152730	-0.501932	-0.088820	-0.846669	-0.347933	-61.291073	-159.342724	-0.449477	-0.169460	0.877071	0.347787	-0.937569	-0.002917	0.822809	0.303723	0.480351	0	0	0
14294	0	0	0	0	0	8.659477	-0.001711	4.711311	0.009447	0.011553	0.007541	-1.079102	0.146973	-0.152832	0.152765	-0.501878	-0.088813	-0.846696	-0.350876	-61.283877	-159.337100	-0.449563	-0.169543	0.877011	0.347837	-0.937550	-0.002942	0.822741	0.303734	0.480461	0	0	0
14295	0	0	0	0	0	8.635486	-0.024118	4.700491	0.009843	0.014909	0.002532	-1.077637	0.139404	-0.148438	0.152799	-0.501805	-0.088828	-0.846731	-0.348490	-61.274638	-159.334851	-0.449689	-0.169611	0.876934	0.347909	-0.937524	-0.002923	0.822642	0.303778	0.480603	0	0	0
14296	0	0	0	0	0	8.641614	-0.022707	4.735642	0.006312	0.016108	0.005789	-1.083740	0.143799	-0.162842	0.152820	-0.501734	-0.088809	-0.846772	-0.351410	-61.264852	-159.331324	-0.449818	-0.169691	0.876851	0.347925	-0.937518	-0.002949	0.822564	0.303752	0.480752	0	0	0
14297	0	0	0	0	0	8.634003	-0.006630	4.720033	0.006585	0.013664	0.004444	-1.081787	0.143311	-0.154541	0.152854	-0.501669	-0.088806	-0.846804	-0.352895	-61.256319	-159.326789	-0.449927	-0.169773	0.876780	0.347978	-0.937498	-0.002962	0.822482	0.303768	0.480883	0	0	0
14298	0	0	0	0	0	8.656766	-0.019473	4.699474	0.007384	0.016331	0.004444	-1.082031	0.144287	-0.154053	0.152881	-0.501594	-0.088799	-0.846845	-0.353702	-61.246291	-159.323887	-0.450062	-0.169850	0.876696	0.348015	-0.937484	-0.002970	0.822393	0.303766	0.481036	0	0	0
14299	0	0	0	0	0	8.625705	-0.008149	4.688880	0.008816	0.015279	0.005991	-1.075195	0.140625	-0.154297	0.152927	-0.501522	-0.088801	-0.846879	-0.355509	-61.236828	-159.317526	-0.450179	-0.169951	0.876616	0.348093	-0.937455	-0.002986	0.822296	0.303800	0.481181	0	0	0
14300	0	0	0	0	0	8.632022	-0.024409	4.706847	0.007174	0.009363	0.003871	-1.076172	0.147461	-0.151367	0.152943	-0.501477	-0.088797	-0.846903	-0.355906	-61.230865	-159.315862	-0.450259	-0.169996	0.876566	0.348115	-0.937447	-0.002990	0.822242	0.303800	0.481272	0	0	0
14301	0	0	0	0	0	8.624713	-0.025862	4.673902	0.011951	0.010729	0.007741	-1.080566	0.145508	-0.149170	0.153003	-0.501422	-0.088811	-0.846923	-0.357768	-61.224003	-159.307387	-0.450332	-0.170100	0.876508	0.348227	-0.937405	-0.003006	0.822155	0.303871	0.481377	0	0	0
14302	0	0	0	0	0	8.647669	-0.003469	4.686630	0.009993	0.006671	0.004849	-1.086182	0.147949	-0.155273	0.153024	-0.501388	-0.088816	-0.846939	-0.357780	-61.219662	-159.304999	-0.450387	-0.170142	0.876472	0.348266	-0.937391	-0.003006	0.822108	0.303892	0.481444	0	0	0
14303	0	0	0	0	0	8.630691	-0.007019	4.726085	0.006146	0.009731	0.007331	-1.076416	0.146729	-0.153809	0.153068	-0.501342	-0.088807	-0.846959	-0.362544	-61.213372	-159.297008	-0.450453	-0.170239	0.876419	0.348329	-0.937367	-0.003047	0.822045	0.303910	0.481539	0	0	0
14304	0	0	0	0	0	8.630390	-0.024938	4.709836	0.006734	0.005426	0.006761	-1.081787	0.142334	-0.157715	0.153092	-0.501316	-0.088796	-0.846971	-0.366394	-61.209680	-159.291827	-0.450491	-0.170300	0.876388	0.348359	-0.937356	-0.003080	0.822012	0.303910	0.481596	0	0	0
14305	0	0	0	0	0	8.670130	-0.016971	4.666679	0.005304	0.006479	0.005213	-1.087891	0.142578	-0.156006	0.153123	-0.501283	-0.088791	-0.846986	-0.369450	-61.205260	-159.286336	-0.450538	-0.170367	0.876351	0.348405	-0.937339	-0.003106	0.821967	0.303926	0.481663	0	0	0
14306	0	0	0	0	0	8.653270	-0.020593	4.705904	0.005619	0.004620	0.005987	-1.083252	0.144287	-0.150635	0.153140	-0.501260	-0.088779	-0.846997	-0.372909	-61.201999	-159.282283	-0.450572	-0.170416	0.876323	0.348422	-0.937333	-0.003135	0.821941	0.303918	0.481713	0	0	0
14307	0	0	0	0	0	8.636385	-0.024260	4.745164	0.002801	0.007313	0.005007	-1.079834	0.151367	-0.149414	0.153165	-0.501226	-0.088764	-0.847015	-0.377176	-61.197102	-159.277045	-0.450627	-0.170484	0.876282	0.348447	-0.937323	-0.003172	0.821900	0.303908	0.481788	0	0	0
14308	0	0	0	0	0	8.622321	-0.009818	4.695099	0.000298	0.008147	0.004802	-1.082764	0.147461	-0.147949	0.153159	-0.501193	-0.088725	-0.847039	-0.382710	-61.191948	-159.275046	-0.450695	-0.170528	0.876239	0.348400	-0.937340	-0.003219	0.821883	0.303831	0.481866	0	0	0
14309	0	0	0	0	0	8.628671	-0.008880	4.729771	-0.005022	0.011674	0.003617	-1.069092	0.142090	-0.154053	0.153160	-0.501146	-0.088676	-0.847072	-0.389976	-61.184557	-159.271500	-0.450790	-0.170596	0.876177	0.348354	-0.937357	-0.003281	0.821850	0.303741	0.481979	0	0	0
14310	0	0	0	0	0	8.641702	-0.024481	4.781691	-0.017535	0.015844	0.002589	-1.079346	0.149414	-0.154053	0.153107	-0.501093	-0.088564	-0.847125	-0.403253	-61.174957	-159.271826	-0.450928	-0.170645	0.876096	0.348159	-0.937429	-0.003393	0.821857	0.303491	0.482125	0	0	0
14311	0	0	0	0	0	8.617474	-0.012634	4.804839	-0.011414	0.014985	0.003773	-1.075928	0.148438	-0.157959	0.153094	-0.501036	-0.088485	-0.847169	-0.414312	-61.165668	-159.268130	-0.451050	-0.170724	0.876018	0.348062	-0.937465	-0.003487	0.821832	0.303335	0.482266	0	0	0
14312	0	0	0	0	0	8.603419	-0.016248	4.738001	-0.011041	0.003704	0.002637	-1.080078	0.146729	-0.147461	0.153059	-0.501029	-0.088412	-0.847187	-0.424097	-61.162952	-159.267394	-0.451086	-0.170745	0.875995	0.347933	-0.937512	-0.003570	0.821866	0.303177	0.482307	0	0	0
14313	0	0	0	0	0	8.603099	-0.034515	4.721787	-0.003906	0.012484	0.004390	-1.085938	0.152832	-0.154053	0.153066	-0.500977	-0.088366	-0.847221	-0.431509	-61.155092	-159.262951	-0.451186	-0.170822	0.875929	0.347900	-0.937525	-0.003633	0.821825	0.303097	0.482427	0	0	0
14314	0	0	0	0	0	8.572598	-0.023475	4.710160	-0.002989	-0.003693	0.000569	-1.078857	0.143555	-0.145508	0.153029	-0.500996	-0.088332	-0.847221	-0.434650	-61.156744	-159.265886	-0.451171	-0.170790	0.875943	0.347807	-0.937559	-0.003660	0.821873	0.303008	0.482401	0	0	0
14315	0	0	0	0	0	8.660321	-0.076656	4.588031	-0.017174	-0.020078	0.001293	-1.076416	0.135498	-0.152344	0.152975	-0.501091	-0.088263	-0.847181	-0.446699	-61.167554	-159.264828	-0.451013	-0.170740	0.876034	0.347651	-0.937617	-0.003760	0.822026	0.302858	0.482235	0	0	0
14316	0	0	0	0	0	8.607740	-0.071435	4.578772	-0.029671	-0.029949	0.006248	-1.078369	0.147217	-0.156738	0.152882	-0.501243	-0.088122	-0.847123	-0.470907	-61.184212	-159.261256	-0.450764	-0.170678	0.876174	0.347361	-0.937723	-0.003961	0.822285	0.302563	0.481979	0	0	0
14317	0	0	0	0	0	8.608951	-0.002830	4.643762	-0.031942	-0.032138	0.002576	-1.079590	0.148682	-0.152344	0.152791	-0.501402	-0.087996	-0.847058	-0.492875	-61.201926	-159.258534	-0.450503	-0.170603	0.876323	0.347089	-0.937823	-0.004144	0.822543	0.302295	0.481706	0	0	0
14318	0	0	0	0	0	8.644605	0.002184	4.810079	-0.039174	-0.032069	0.000611	-1.080811	0.157227	-0.159424	0.152659	-0.501566	-0.087836	-0.847001	-0.516948	-61.219733	-159.260137	-0.450253	-0.170494	0.876473	0.346716	-0.937960	-0.004344	0.822837	0.301931	0.481432	0	0	0
14319	0	0	0	0	0	8.626525	-0.056481	4.902108	-0.033825	-0.020959	-0.002072	-1.083984	0.146729	-0.153564	0.152549	-0.501676	-0.087704	-0.846970	-0.535067	-61.231065	-159.263039	-0.450099	-0.170410	0.876568	0.346407	-0.938073	-0.004494	0.823051	0.301626	0.481257	0	0	0
14320	0	0	0	0	0	8.636848	-0.055598	4.828489	-0.022103	-0.003167	-0.000872	-1.083252	0.150635	-0.153320	0.152469	-0.501705	-0.087599	-0.846978	-0.547654	-61.232292	-159.266275	-0.450091	-0.170378	0.876578	0.346173	-0.938159	-0.004600	0.823154	0.301378	0.481238	0	0	0
14321	0	0	0	0	0	8.626078	-0.005278	4.705014	-0.005533	-0.003437	-0.001758	-1.076904	0.148682	-0.148926	0.152439	-0.501719	-0.087574	-0.846978	-0.549723	-61.233584	-159.268994	-0.450081	-0.170350	0.876589	0.346099	-0.938187	-0.004617	0.823191	0.301308	0.481218	0	0	0
14322	0	0	0	0	0	8.696652	-0.008590	4.672780	-0.006018	-0.007962	-0.000989	-1.081299	0.148682	-0.153320	0.152390	-0.501756	-0.087537	-0.846968	-0.552991	-61.237637	-159.273152	-0.450035	-0.170295	0.876623	0.345984	-0.938229	-0.004644	0.823264	0.301207	0.481156	0	0	0
14323	0	0	0	0	0	8.687390	-0.045954	4.710748	-0.008607	-0.008294	-0.005430	-1.085205	0.152832	-0.159668	0.152335	-0.501792	-0.087511	-0.846960	-0.553037	-61.241732	-159.280188	-0.449998	-0.170218	0.876657	0.345867	-0.938272	-0.004644	0.823333	0.301118	0.481093	0	0	0
14324	0	0	0	0	0	8.664366	-0.050483	4.714955	-0.010125	-0.008405	-0.011214	-1.074463	0.155518	-0.153320	0.152238	-0.501829	-0.087486	-0.846958	-0.547955	-61.246011	-159.295748	-0.449983	-0.170072	0.876693	0.345685	-0.938339	-0.004601	0.823418	0.300990	0.481028	0	0	0
14325	0	0	0	0	0	8.641402	-0.054908	4.719059	-0.004717	-0.010769	-0.005798	-1.083252	0.145752	-0.151611	0.152190	-0.501872	-0.087480	-0.846942	-0.545410	-61.251526	-159.303196	-0.449926	-0.169984	0.876740	0.345600	-0.938371	-0.004578	0.823485	0.300941	0.480944	0	0	0
14326	0	0	0	0	0	8.627943	-0.022028	4.684717	-0.005979	-0.003327	-0.008885	-1.072754	0.142578	-0.153809	0.152113	-0.501886	-0.087462	-0.846949	-0.540389	-61.252934	-159.316355	-0.449945	-0.169873	0.876751	0.345456	-0.938424	-0.004536	0.823535	0.300838	0.480922	0	0	0
14327	0	0	0	0	0	8.641814	-0.036656	4.735190	-0.004776	-0.001355	-0.003873	-1.087891	0.144043	-0.147461	0.152077	-0.501890	-0.087443	-0.846955	-0.539793	-61.253045	-159.321619	-0.449959	-0.169831	0.876752	0.345378	-0.938453	-0.004531	0.823560	0.300773	0.480921	0	0	0
14328	0	0	0	0	0	8.604684	0.008689	4.723119	-0.005576	-0.004019	-0.003877	-1.072266	0.145508	-0.158203	0.152017	-0.501909	-0.087413	-0.846958	-0.539510	-61.254846	-159.329638	-0.449957	-0.169758	0.876767	0.345251	-0.938499	-0.004528	0.823614	0.300667	0.480893	0	0	0
14329	0	0	0	0	0	8.628332	-0.003950	4.700881	-0.001958	-0.004051	-0.002898	-1.080811	0.144531	-0.148926	0.151991	-0.501922	-0.087406	-0.846955	-0.538344	-61.256496	-159.333710	-0.449945	-0.169718	0.876781	0.345201	-0.938518	-0.004518	0.823642	0.300633	0.480868	0	0	0
14330	0	0	0	0	0	8.665881	-0.048881	4.712186	0.003318	-0.008167	-0.003837	-1.078857	0.147705	-0.149658	0.151959	-0.501951	-0.087419	-0.846942	-0.533095	-61.260606	-159.340738	-0.449907	-0.169640	0.876816	0.345161	-0.938533	-0.004474	0.823679	0.300630	0.480806	0	0	0
14331	0	0	0	0	0	8.635912	-0.036720	4.699626	0.007647	-0.006701	-0.007091	-1.082031	0.145996	-0.146240	0.151938	-0.501967	-0.087465	-0.846932	-0.522068	-61.263796	-159.349779	-0.449888	-0.169552	0.876843	0.345171	-0.938530	-0.004381	0.823685	0.300690	0.480758	0	0	0
14332	0	0	0	0	0	8.659833	-0.066159	4.660003	0.009711	-0.011477	-0.004002	-1.075684	0.142578	-0.145508	0.151910	-0.502007	-0.087504	-0.846909	-0.513133	-61.269924	-159.358067	-0.449825	-0.169454	0.876894	0.345163	-0.938533	-0.004305	0.823723	0.300735	0.480665	0	0	0
14333	0	0	0	0	0	8.606493	-0.023631	4.686059	0.006892	-0.008781	-0.004978	-1.080322	0.144043	-0.145508	0.151895	-0.502033	-0.087543	-0.846893	-0.504762	-61.274293	-159.364572	-0.449781	-0.169379	0.876931	0.345177	-0.938528	-0.004234	0.823741	0.300792	0.480598	0	0	0
14334	0	0	0	0	0	8.630439	-0.000635	4.697012	0.005655	-0.015384	-0.002096	-1.075684	0.153320	-0.153564	0.151862	-0.502093	-0.087561	-0.846861	-0.500077	-61.282673	-159.370942	-0.449680	-0.169284	0.877001	0.345139	-0.938542	-0.004194	0.823812	0.300802	0.480470	0	0	0
14335	0	0	0	0	0	8.631062	-0.017902	4.678987	0.006226	-0.009693	0.001373	-1.085205	0.147949	-0.146484	0.151872	-0.502127	-0.087582	-0.846837	-0.498734	-61.287533	-159.369869	-0.449607	-0.169266	0.877042	0.345176	-0.938529	-0.004182	0.823837	0.300854	0.480396	0	0	0
14336	0	0	0	0	0	8.661867	-0.011807	4.706901	0.000783	-0.011962	0.003853	-1.074951	0.144531	-0.144775	0.151860	-0.502178	-0.087565	-0.846811	-0.503253	-61.293859	-159.368100	-0.449512	-0.169246	0.877095	0.345139	-0.938542	-0.004219	0.823904	0.300824	0.480299	0	0	0
14337	0	0	0	0	0	8.645823	-0.015578	4.744782	0.002697	-0.008494	0.004631	-1.078125	0.140381	-0.145752	0.151875	-0.502210	-0.087563	-0.846789	-0.507332	-61.298015	-159.363151	-0.449437	-0.169262	0.877130	0.345162	-0.938534	-0.004252	0.823935	0.300840	0.480235	0	0	0
14338	0	0	0	0	0	8.662811	-0.029931	4.688267	0.000467	-0.010101	0.003081	-1.078369	0.136475	-0.155273	0.151854	-0.502255	-0.087542	-0.846769	-0.510951	-61.303329	-159.363283	-0.449362	-0.169233	0.877174	0.345107	-0.938554	-0.004282	0.824000	0.300795	0.480153	0	0	0
14339	0	0	0	0	0	8.670077	-0.046424	4.704486	-0.001553	-0.004743	0.002111	-1.072021	0.140625	-0.150879	0.151849	-0.502273	-0.087525	-0.846760	-0.514794	-61.305348	-159.361379	-0.449327	-0.169237	0.877191	0.345083	-0.938562	-0.004314	0.824029	0.300765	0.480122	0	0	0
14340	0	0	0	0	0	8.693773	-0.077184	4.665192	0.002471	-0.005466	0.008096	-1.079346	0.148926	-0.151123	0.151866	-0.502296	-0.087504	-0.846746	-0.522236	-61.307820	-159.354360	-0.449271	-0.169278	0.877212	0.345091	-0.938559	-0.004376	0.824056	0.300751	0.480084	0	0	0
14341	0	0	0	0	0	8.700753	-0.075990	4.698841	0.010538	0.001766	0.002160	-1.080566	0.142578	-0.150391	0.151895	-0.502278	-0.087533	-0.846748	-0.519141	-61.306110	-159.352468	-0.449290	-0.169302	0.877197	0.345166	-0.938532	-0.004350	0.824014	0.300824	0.480110	0	0	0
14342	0	0	0	0	0	8.691038	-0.060227	4.788497	0.022869	0.001202	0.008754	-1.078857	0.146484	-0.145508	0.151966	-0.502258	-0.087588	-0.846742	-0.515814	-61.304836	-159.345057	-0.449286	-0.169367	0.877187	0.345336	-0.938469	-0.004323	0.823945	0.300982	0.480130	0	0	0
14343	0	0	0	0	0	8.633007	-0.053671	4.641598	0.024695	0.003504	0.005294	-1.076904	0.143799	-0.145752	0.152044	-0.502223	-0.087668	-0.846740	-0.507871	-61.302114	-159.339444	-0.449309	-0.169426	0.877164	0.345542	-0.938394	-0.004256	0.823846	0.301184	0.480172	0	0	0
14344	0	0	0	0	0	8.672709	-0.045084	4.598295	0.012543	0.006405	0.007171	-1.079590	0.146729	-0.149170	0.152078	-0.502190	-0.087676	-0.846753	-0.508794	-61.297955	-159.334741	-0.449354	-0.169486	0.877129	0.345606	-0.938370	-0.004265	0.823794	0.301225	0.480236	0	0	0
14345	0	0	0	0	0	8.639481	-0.051809	4.676188	0.020323	0.001459	0.006431	-1.087158	0.141357	-0.145996	0.152150	-0.502168	-0.087736	-0.846747	-0.504564	-61.296400	-159.327751	-0.449356	-0.169549	0.877116	0.345781	-0.938306	-0.004229	0.823720	0.301390	0.480260	0	0	0
14346	0	0	0	0	0	8.669888	-0.063121	4.687950	0.008230	-0.005051	0.006386	-1.081543	0.149170	-0.151123	0.152164	-0.502186	-0.087736	-0.846734	-0.507156	-61.298796	-159.324034	-0.449311	-0.169565	0.877136	0.345805	-0.938297	-0.004251	0.823735	0.301408	0.480223	0	0	0
14347	0	0	0	0	0	8.583371	-0.098725	4.724279	0.008230	-0.005050	0.006386	-1.076660	0.146729	-0.147217	0.152202	-0.502200	-0.087750	-0.846717	-0.509870	-61.300970	-159.317027	-0.449259	-0.169608	0.877154	0.345880	-0.938269	-0.004273	0.823731	0.301471	0.480190	0	0	0
14348	0	0	0	0	0	8.600201	-0.060217	4.718729	0.014984	-0.009631	0.009107	-1.072754	0.137695	-0.154297	0.152248	-0.502233	-0.087778	-0.846686	-0.511635	-61.305935	-159.309180	-0.449164	-0.169643	0.877196	0.345983	-0.938231	-0.004287	0.823740	0.301569	0.480113	0	0	0
14349	0	0	0	0	0	8.640430	-0.052047	4.674432	0.011533	-0.003219	0.006588	-1.077637	0.140381	-0.149414	0.152296	-0.502237	-0.087804	-0.846672	-0.512653	-61.307059	-159.301949	-0.449127	-0.169693	0.877205	0.346087	-0.938193	-0.004296	0.823717	0.301660	0.480096	0	0	0
14350	0	0	0	0	0	8.654477	-0.049242	4.741588	0.009573	-0.007272	0.003695	-1.084473	0.137451	-0.149414	0.152310	-0.502261	-0.087824	-0.846654	-0.511463	-61.310615	-159.300358	-0.449071	-0.169687	0.877235	0.346130	-0.938177	-0.004285	0.823729	0.301713	0.480042	0	0	0
14351	0	0	0	0	0	8.647900	-0.050622	4.707188	0.005999	-0.006657	0.004837	-1.080566	0.144531	-0.151611	0.152336	-0.502283	-0.087834	-0.846635	-0.513852	-61.313717	-159.295180	-0.449011	-0.169710	0.877261	0.346180	-0.938158	-0.004305	0.823740	0.301757	0.479994	0	0	0
14352	0	0	0	0	0	8.648250	-0.068222	4.689639	0.008457	-0.008076	0.002921	-1.084473	0.146729	-0.146973	0.152338	-0.502311	-0.087849	-0.846616	-0.512565	-61.317795	-159.295159	-0.448953	-0.169689	0.877295	0.346198	-0.938151	-0.004294	0.823764	0.301791	0.479932	0	0	0
14353	0	0	0	0	0	8.665133	-0.047191	4.667068	0.003767	-0.008266	0.003290	-1.081787	0.151611	-0.147217	0.152350	-0.502341	-0.087854	-0.846596	-0.514628	-61.321827	-159.291809	-0.448885	-0.169693	0.877329	0.346223	-0.938142	-0.004310	0.823791	0.301817	0.479870	0	0	0
14354	0	0	0	0	0	8.672391	-0.046015	4.700224	-0.001238	-0.006598	0.002887	-1.079834	0.145264	-0.141846	0.152326	-0.502372	-0.087824	-0.846585	-0.519207	-61.325139	-159.291948	-0.448838	-0.169674	0.877357	0.346155	-0.938167	-0.004348	0.823845	0.301750	0.479819	0	0	0
14355	0	0	0	0	0	8.672656	-0.028735	4.716646	-0.005174	-0.004711	0.001140	-1.079102	0.145264	-0.155273	0.152309	-0.502393	-0.087794	-0.846579	-0.524109	-61.327145	-159.291202	-0.448807	-0.169669	0.877374	0.346097	-0.938189	-0.004389	0.823887	0.301686	0.479788	0	0	0
14356	0	0	0	0	0	8.665977	-0.030667	4.682408	-0.004766	-0.005397	0.006147	-1.079102	0.147949	-0.142334	0.152293	-0.502421	-0.087742	-0.846570	-0.533953	-61.329697	-159.287138	-0.448759	-0.169687	0.877395	0.346021	-0.938216	-0.004471	0.823945	0.301591	0.479748	0	0	0
14357	0	0	0	0	0	8.666094	-0.049032	4.665265	-0.012952	0.000236	0.001883	-1.076904	0.152832	-0.150391	0.152262	-0.502427	-0.087674	-0.846579	-0.544042	-61.328864	-159.285560	-0.448766	-0.169704	0.877388	0.345902	-0.938259	-0.004556	0.823991	0.301446	0.479760	0	0	0
14358	0	0	0	0	0	8.649658	-0.070999	4.687000	-0.009725	-0.003142	0.007862	-1.073975	0.146484	-0.145508	0.152242	-0.502452	-0.087594	-0.846577	-0.558732	-61.330158	-159.279411	-0.448729	-0.169745	0.877399	0.345792	-0.938300	-0.004678	0.824057	0.301298	0.479739	0	0	0
14359	0	0	0	0	0	8.626323	-0.076607	4.691828	-0.009379	-0.000378	0.000739	-1.083496	0.150146	-0.164307	0.152214	-0.502457	-0.087543	-0.846584	-0.565581	-61.329684	-159.279192	-0.448735	-0.169749	0.877395	0.345697	-0.938334	-0.004736	0.824094	0.301187	0.479746	0	0	0
14360	0	0	0	0	0	8.626345	-0.077194	4.691778	-0.010449	-0.000596	0.002083	-1.080078	0.147217	-0.148682	0.152179	-0.502466	-0.087480	-0.846591	-0.574416	-61.329387	-159.278696	-0.448738	-0.169755	0.877392	0.345578	-0.938378	-0.004810	0.824142	0.301049	0.479749	0	0	0
14361	0	0	0	0	0	8.656724	-0.071705	4.720496	-0.011565	-0.001400	0.001309	-1.080811	0.146484	-0.153564	0.152147	-0.502478	-0.087420	-0.846596	-0.583126	-61.329495	-159.277784	-0.448734	-0.169761	0.877393	0.345467	-0.938418	-0.004883	0.824191	0.300920	0.479747	0	0	0
14362	0	0	0	0	0	8.649918	-0.073833	4.686477	-0.012319	-0.003476	0.003424	-1.081299	0.148926	-0.145752	0.152106	-0.502503	-0.087344	-0.846597	-0.594445	-61.330917	-159.276517	-0.448710	-0.169764	0.877405	0.345325	-0.938470	-0.004977	0.824263	0.300757	0.479724	0	0	0
14363	0	0	0	0	0	8.649999	-0.057063	4.703257	-0.012951	0.000241	0.001881	-1.079102	0.148438	-0.149658	0.152074	-0.502509	-0.087275	-0.846606	-0.604531	-61.330081	-159.274942	-0.448717	-0.169780	0.877398	0.345206	-0.938513	-0.005062	0.824309	0.300612	0.479736	0	0	0
14364	0	0	0	0	0	8.619637	-0.063767	4.674486	-0.013359	0.000929	-0.003126	-1.085205	0.145264	-0.154297	0.152000	-0.502513	-0.087205	-0.846624	-0.609645	-61.329083	-159.281990	-0.448752	-0.169731	0.877390	0.345017	-0.938583	-0.005105	0.824369	0.300424	0.479751	0	0	0
14365	0	0	0	0	0	8.650002	-0.058128	4.703237	-0.012681	-0.002201	0.000533	-1.075928	0.153320	-0.145508	0.151962	-0.502529	-0.087142	-0.846628	-0.618190	-61.329655	-159.281994	-0.448744	-0.169727	0.877395	0.344894	-0.938627	-0.005176	0.824425	0.300285	0.479742	0	0	0
14366	0	0	0	0	0	8.650110	-0.093891	4.669133	-0.010178	-0.003036	0.000734	-1.076172	0.148682	-0.142578	0.151914	-0.502549	-0.087081	-0.846631	-0.625567	-61.330866	-159.283990	-0.448733	-0.169705	0.877405	0.344755	-0.938678	-0.005238	0.824489	0.300139	0.479722	0	0	0
14367	0	0	0	0	0	8.650348	-0.041864	4.719538	-0.013118	-0.006136	0.003417	-1.074219	0.145752	-0.150146	0.151885	-0.502583	-0.087012	-0.846623	-0.637431	-61.333673	-159.280497	-0.448682	-0.169717	0.877428	0.344641	-0.938719	-0.005337	0.824565	0.300003	0.479678	0	0	0
14368	0	0	0	0	0	8.650549	-0.060134	4.702207	-0.012726	-0.002784	-0.001586	-1.073975	0.147949	-0.152588	0.151819	-0.502604	-0.086945	-0.846629	-0.643810	-61.334793	-159.285566	-0.448681	-0.169672	0.877438	0.344466	-0.938783	-0.005390	0.824638	0.299829	0.479660	0	0	0
14369	0	0	0	0	0	8.627291	-0.065421	4.706899	-0.011294	-0.003838	-0.000041	-1.077393	0.141113	-0.149414	0.151781	-0.502625	-0.086891	-0.846629	-0.650979	-61.336306	-159.286234	-0.448661	-0.169658	0.877450	0.344352	-0.938825	-0.005450	0.824697	0.299707	0.479637	0	0	0
14370	0	0	0	0	0	8.634413	-0.064489	4.740334	-0.007721	-0.004455	-0.001184	-1.074463	0.153564	-0.155029	0.151734	-0.502647	-0.086848	-0.846628	-0.654766	-61.338287	-159.290197	-0.448645	-0.169616	0.877467	0.344232	-0.938868	-0.005481	0.824756	0.299593	0.479606	0	0	0
14371	0	0	0	0	0	8.651037	-0.078883	4.684329	-0.010539	-0.001760	-0.002156	-1.077148	0.141113	-0.146484	0.151690	-0.502658	-0.086801	-0.846635	-0.659262	-61.338623	-159.293418	-0.448650	-0.169589	0.877470	0.344115	-0.938911	-0.005519	0.824802	0.299474	0.479600	0	0	0
14372	0	0	0	0	0	8.681449	-0.073081	4.713006	-0.003256	-0.001241	0.001913	-1.080078	0.145752	-0.145996	0.151669	-0.502665	-0.086767	-0.846638	-0.663815	-61.338752	-159.293598	-0.448648	-0.169587	0.877471	0.344046	-0.938936	-0.005557	0.824831	0.299398	0.479598	0	0	0
14373	0	0	0	0	0	8.651142	-0.061697	4.701095	0.001070	0.000219	-0.001344	-1.077393	0.145264	-0.152100	0.151658	-0.502659	-0.086766	-0.846643	-0.662487	-61.337950	-159.295876	-0.448666	-0.169574	0.877464	0.344028	-0.938943	-0.005546	0.824829	0.299384	0.479610	0	0	0
14374	0	0	0	0	0	8.634638	-0.065134	4.739916	0.003665	0.000551	0.003093	-1.075439	0.147217	-0.154297	0.151656	-0.502655	-0.086754	-0.846648	-0.664226	-61.337085	-159.295287	-0.448677	-0.169583	0.877457	0.344013	-0.938948	-0.005560	0.824830	0.299362	0.479623	0	0	0
14375	0	0	0	0	0	8.644149	-0.045430	4.684383	-0.000316	0.001858	-0.000770	-1.085693	0.145508	-0.148682	0.151645	-0.502643	-0.086744	-0.846657	-0.664273	-61.335340	-159.296903	-0.448707	-0.169580	0.877442	0.343986	-0.938958	-0.005561	0.824825	0.299332	0.479650	0	0	0
14376	0	0	0	0	0	8.620740	-0.050263	4.689359	0.002865	-0.002111	0.003089	-1.074219	0.146973	-0.152344	0.151642	-0.502650	-0.086733	-0.846655	-0.666498	-61.335963	-159.295962	-0.448695	-0.169584	0.877447	0.343969	-0.938964	-0.005580	0.824838	0.299311	0.479640	0	0	0
14377	0	0	0	0	0	8.651151	-0.044164	4.718045	0.002502	-0.000836	0.000201	-1.078613	0.149658	-0.144775	0.151641	-0.502648	-0.086735	-0.846656	-0.665981	-61.335755	-159.296381	-0.448699	-0.169582	0.877446	0.343970	-0.938964	-0.005575	0.824836	0.299313	0.479644	0	0	0
14378	0	0	0	0	0	8.644267	-0.045427	4.684165	0.005051	-0.001088	0.002520	-1.071533	0.148682	-0.150635	0.151640	-0.502649	-0.086732	-0.846656	-0.666472	-61.335839	-159.296202	-0.448698	-0.169583	0.877446	0.343966	-0.938966	-0.005580	0.824838	0.299308	0.479642	0	0	0
14379	0	0	0	0	0	8.634731	-0.082620	4.722781	0.006121	-0.000869	0.001176	-1.075439	0.142334	-0.155273	0.151653	-0.502645	-0.086747	-0.846655	-0.664904	-61.335643	-159.295456	-0.448698	-0.169590	0.877445	0.344001	-0.938953	-0.005566	0.824823	0.299344	0.479645	0	0	0
14380	0	0	0	0	0	8.651336	-0.061493	4.700741	0.004251	-0.003749	0.002516	-1.076172	0.146240	-0.148926	0.151655	-0.502657	-0.086747	-0.846647	-0.665728	-61.337151	-159.294465	-0.448674	-0.169589	0.877457	0.344005	-0.938951	-0.005573	0.824835	0.299349	0.479622	0	0	0
14381	0	0	0	0	0	8.644541	-0.045068	4.683663	0.006075	-0.001453	-0.000942	-1.076172	0.145996	-0.152100	0.151658	-0.502654	-0.086767	-0.846646	-0.661974	-61.337304	-159.296241	-0.448677	-0.169574	0.877459	0.344030	-0.938942	-0.005542	0.824823	0.299385	0.479620	0	0	0
14382	0	0	0	0	0	8.644687	-0.044885	4.683394	0.009302	-0.004836	0.005035	-1.079346	0.145020	-0.145996	0.151679	-0.502669	-0.086780	-0.846633	-0.662601	-61.339478	-159.292806	-0.448635	-0.169590	0.877477	0.344077	-0.938925	-0.005546	0.824826	0.299431	0.479587	0	0	0
14383	0	0	0	0	0	8.682106	-0.072443	4.711805	0.007507	-0.002508	0.000602	-1.082031	0.143555	-0.151367	0.151692	-0.502670	-0.086804	-0.846627	-0.659657	-61.340225	-159.292723	-0.448625	-0.169586	0.877483	0.344120	-0.938909	-0.005522	0.824813	0.299483	0.479576	0	0	0
