// General information: 
//  MT Manager version: 2022.2.0 
//  XDA version: 2022.2.0 build 7381 rev 124627 built on 2023-07-19
// Device information: 
//  DeviceId: 10B426F3
//  ProductCode: MTW2-3A7G6
//  Firmware Version: 4.14.0
//  Hardware Version: 3.0.0
// Device settings: 
//  Filter Profile: human(46.1)
//  Option Flags: Orientation Smoother Disabled, Position/Velocity Smoother Disabled, Continuous Zero Rotation Update Disabled, AHS Disabled, ICC Disabled
// Coordinate system: ENU
PacketCounter	SampleTimeFine	Year	Month	Day	Second	Acc_X	Acc_Y	Acc_Z	Gyr_X	Gyr_Y	Gyr_Z	Mag_X	Mag_Y	Mag_Z	Quat_q0	Quat_q1	Quat_q2	Quat_q3	Roll	Pitch	Yaw	Mat[1][1]	Mat[2][1]	Mat[3][1]	Mat[1][2]	Mat[2][2]	Mat[3][2]	Mat[1][3]	Mat[2][3]	Mat[3][3]	Vel_E	Vel_N	Vel_U
57802	0	0	0	0	0	4.330180	2.119933	8.577507	-0.003155	0.005756	0.007743	-0.774170	-0.391846	-0.495605	-0.494004	-0.253950	0.020037	-0.831305	14.038563	-26.232646	115.271388	-0.382938	0.811159	0.442017	-0.831513	-0.511116	0.217591	0.402423	-0.284219	0.870215	0	0	0
57803	0	0	0	0	0	4.329878	2.119421	8.577786	0.000299	0.005732	0.010243	-0.772705	-0.400391	-0.498535	-0.493964	-0.253945	0.020030	-0.831330	14.037547	-26.232406	115.277323	-0.383023	0.811121	0.442013	-0.831468	-0.511197	0.217576	0.402437	-0.284183	0.870221	0	0	0
57804	0	0	0	0	0	4.358551	2.137467	8.576993	-0.006962	0.006102	0.007365	-0.772949	-0.398926	-0.500244	-0.493966	-0.253921	0.020054	-0.831336	14.033289	-26.231500	115.278604	-0.383044	0.811119	0.441999	-0.831488	-0.511191	0.217513	0.402375	-0.284200	0.870244	0	0	0
57805	0	0	0	0	0	4.329357	2.118087	8.578379	-0.001195	0.002197	0.007291	-0.769531	-0.400146	-0.499023	-0.493961	-0.253926	0.020064	-0.831337	14.032540	-26.232668	115.279134	-0.383047	0.811107	0.442017	-0.831486	-0.511199	0.217500	0.402375	-0.284219	0.870238	0	0	0
57806	0	0	0	0	0	4.323786	2.094555	8.584428	-0.001469	0.004669	0.009133	-0.774414	-0.398682	-0.504639	-0.493949	-0.253921	0.020070	-0.831346	14.031044	-26.232804	115.281289	-0.383077	0.811092	0.442020	-0.831477	-0.511223	0.217477	0.402364	-0.284219	0.870243	0	0	0
57807	0	0	0	0	0	4.337908	2.133554	8.549681	-0.000763	0.004028	0.004887	-0.773682	-0.400391	-0.491699	-0.493955	-0.253919	0.020071	-0.831343	14.031051	-26.232577	115.280482	-0.383067	0.811099	0.442016	-0.831485	-0.511211	0.217477	0.402359	-0.284221	0.870245	0	0	0
57808	0	0	0	0	0	4.328726	2.116915	8.578987	-0.000900	0.005264	0.005808	-0.770020	-0.397461	-0.498535	-0.493956	-0.253913	0.020070	-0.831344	14.030751	-26.231920	115.280668	-0.383072	0.811102	0.442006	-0.831486	-0.511210	0.217474	0.402351	-0.284214	0.870251	0	0	0
57809	0	0	0	0	0	4.340660	2.126146	8.526989	-0.001174	0.007735	0.007651	-0.765625	-0.400146	-0.499268	-0.493950	-0.253896	0.020066	-0.831353	14.029569	-26.230115	115.282347	-0.383101	0.811104	0.441977	-0.831483	-0.511222	0.217459	0.402331	-0.284188	0.870269	0	0	0
57810	0	0	0	0	0	4.313289	2.136799	8.545744	-0.002667	0.004201	0.004698	-0.762695	-0.400635	-0.498047	-0.493957	-0.253890	0.020073	-0.831350	14.028633	-26.229895	115.281680	-0.383093	0.811110	0.441974	-0.831495	-0.511207	0.217446	0.402312	-0.284198	0.870274	0	0	0
57811	0	0	0	0	0	4.334559	2.102366	8.533365	0.002552	0.005238	0.008309	-0.775391	-0.396729	-0.499268	-0.493958	-0.253891	0.020065	-0.831350	14.029584	-26.229428	115.281437	-0.383091	0.811115	0.441967	-0.831492	-0.511207	0.217461	0.402322	-0.284184	0.870274	0	0	0
57812	0	0	0	0	0	4.356452	2.134331	8.578840	-0.000627	0.002792	0.003966	-0.768555	-0.402100	-0.496582	-0.493965	-0.253896	0.020066	-0.831344	14.030113	-26.229889	115.280099	-0.383070	0.811120	0.441974	-0.831499	-0.511191	0.217468	0.402326	-0.284195	0.870268	0	0	0
57813	0	0	0	0	0	4.332728	2.138320	8.574262	-0.001472	0.004669	0.009133	-0.769287	-0.395264	-0.499512	-0.493954	-0.253890	0.020073	-0.831352	14.028545	-26.229955	115.282095	-0.383098	0.811107	0.441975	-0.831492	-0.511213	0.217444	0.402314	-0.284196	0.870274	0	0	0
57814	0	0	0	0	0	4.353912	2.103685	8.561975	-0.004137	0.006205	0.002105	-0.768311	-0.401855	-0.495605	-0.493974	-0.253873	0.020078	-0.831345	14.027339	-26.228262	115.280132	-0.383076	0.811132	0.441948	-0.831521	-0.511173	0.217429	0.402275	-0.284198	0.870291	0	0	0
57815	0	0	0	0	0	4.331889	2.137397	8.574916	-0.001176	0.007735	0.007651	-0.767090	-0.397217	-0.499268	-0.493972	-0.253855	0.020076	-0.831352	14.026133	-26.226390	115.281371	-0.383100	0.811136	0.441919	-0.831521	-0.511178	0.217414	0.402252	-0.284174	0.870309	0	0	0
57816	0	0	0	0	0	4.329494	2.107181	8.557868	-0.002668	0.004201	0.004698	-0.770996	-0.402588	-0.500977	-0.493979	-0.253849	0.020083	-0.831350	14.025197	-26.226170	115.280704	-0.383091	0.811142	0.441916	-0.831534	-0.511163	0.217400	0.402234	-0.284184	0.870315	0	0	0
57817	0	0	0	0	0	4.331258	2.136471	8.575466	-0.003023	0.004522	0.006821	-0.766602	-0.393799	-0.505859	-0.493985	-0.253840	0.020095	-0.831349	14.023376	-26.225932	115.280548	-0.383090	0.811145	0.441912	-0.831549	-0.511151	0.217373	0.402205	-0.284198	0.870323	0	0	0
57818	0	0	0	0	0	4.351070	2.138459	8.603678	0.001001	0.005090	0.005998	-0.776123	-0.401123	-0.502441	-0.493982	-0.253839	0.020087	-0.831351	14.024125	-26.225398	115.280824	-0.383095	0.811147	0.441904	-0.831542	-0.511157	0.217386	0.402214	-0.284182	0.870325	0	0	0
57819	0	0	0	0	0	4.325174	2.112642	8.581831	-0.004709	0.005611	0.005430	-0.766602	-0.397705	-0.489502	-0.493987	-0.253821	0.020100	-0.831353	14.021562	-26.224338	115.281174	-0.383104	0.811152	0.441887	-0.831559	-0.511146	0.217349	0.402171	-0.284188	0.870342	0	0	0
57820	0	0	0	0	0	4.333878	2.128715	8.552930	0.004727	0.002592	0.006657	-0.763184	-0.401123	-0.495850	-0.493977	-0.253840	0.020082	-0.831354	14.024436	-26.225285	115.281472	-0.383105	0.811143	0.441902	-0.831534	-0.511167	0.217390	0.402221	-0.284173	0.870324	0	0	0
57821	0	0	0	0	0	4.330139	2.135136	8.576363	-0.006396	0.006700	0.004039	-0.774414	-0.398438	-0.492432	-0.494002	-0.253814	0.020101	-0.831346	14.021372	-26.223517	115.279365	-0.383081	0.811170	0.441874	-0.831577	-0.511116	0.217347	0.402154	-0.284191	0.870349	0	0	0
57822	0	0	0	0	0	4.347942	2.107269	8.587238	0.001057	0.001703	0.005357	-0.775146	-0.397949	-0.495117	-0.494002	-0.253828	0.020100	-0.831342	14.022559	-26.224777	115.278720	-0.383068	0.811165	0.441894	-0.831573	-0.511116	0.217363	0.402176	-0.284202	0.870335	0	0	0
57823	0	0	0	0	0	4.347812	2.106997	8.587370	-0.001121	0.004349	0.007010	-0.775879	-0.394043	-0.500000	-0.493992	-0.253825	0.020102	-0.831349	14.021811	-26.224829	115.280282	-0.383089	0.811154	0.441895	-0.831564	-0.511136	0.217351	0.402174	-0.284199	0.870338	0	0	0
57824	0	0	0	0	0	4.334912	2.157101	8.571129	-0.001041	0.006500	0.006730	-0.770264	-0.398438	-0.495361	-0.493989	-0.253814	0.020099	-0.831354	14.021093	-26.223613	115.281230	-0.383107	0.811157	0.441876	-0.831563	-0.511142	0.217343	0.402160	-0.284182	0.870349	0	0	0
57825	0	0	0	0	0	4.356144	2.122496	8.558808	-0.002887	0.003287	0.005899	-0.769775	-0.389160	-0.497559	-0.493984	-0.253810	0.020110	-0.831358	14.019643	-26.224028	115.282245	-0.383120	0.811147	0.441882	-0.831563	-0.511151	0.217320	0.402147	-0.284193	0.870352	0	0	0
57826	0	0	0	0	0	4.350428	2.098960	8.564906	-0.001259	0.005585	0.007932	-0.768311	-0.400879	-0.500488	-0.493976	-0.253802	0.020112	-0.831365	14.018533	-26.223488	115.283796	-0.383144	0.811140	0.441874	-0.831558	-0.511166	0.217304	0.402135	-0.284185	0.870360	0	0	0
57827	0	0	0	0	0	4.332123	2.125908	8.554517	-0.004436	0.003141	0.003587	-0.767090	-0.395996	-0.502686	-0.493986	-0.253795	0.020126	-0.831361	14.016815	-26.223602	115.282984	-0.383132	0.811145	0.441875	-0.831577	-0.511146	0.217278	0.402107	-0.284207	0.870366	0	0	0
57828	0	0	0	0	0	4.322831	2.109229	8.583851	0.001079	0.007241	0.005718	-0.771484	-0.403564	-0.493408	-0.493985	-0.253786	0.020112	-0.831365	14.017538	-26.221834	115.283419	-0.383144	0.811154	0.441848	-0.831571	-0.511150	0.217292	0.402108	-0.284174	0.870376	0	0	0
57829	0	0	0	0	0	4.334973	2.118553	8.531770	-0.001203	0.002198	0.007290	-0.779053	-0.398682	-0.502930	-0.493985	-0.253791	0.020123	-0.831363	14.016812	-26.222988	115.283248	-0.383138	0.811147	0.441866	-0.831576	-0.511147	0.217279	0.402104	-0.284197	0.870370	0	0	0
57830	0	0	0	0	0	4.351258	2.127141	8.583260	-0.002865	0.008826	0.006260	-0.769287	-0.401367	-0.503662	-0.493987	-0.253766	0.020122	-0.831370	14.015018	-26.220414	115.284264	-0.383160	0.811159	0.441826	-0.831583	-0.511145	0.217257	0.402066	-0.284171	0.870396	0	0	0
57831	0	0	0	0	0	4.359770	2.142999	8.554532	-0.002671	0.004203	0.004697	-0.770996	-0.392578	-0.501221	-0.493994	-0.253758	0.020129	-0.831367	14.013965	-26.220072	115.283603	-0.383152	0.811165	0.441820	-0.831597	-0.511129	0.217241	0.402045	-0.284180	0.870403	0	0	0
57832	0	0	0	0	0	4.324999	2.100785	8.561712	-0.003027	0.004524	0.006820	-0.769287	-0.398926	-0.499512	-0.493993	-0.253750	0.020140	-0.831370	14.012219	-26.219967	115.284301	-0.383162	0.811161	0.441819	-0.831603	-0.511130	0.217215	0.402023	-0.284189	0.870410	0	0	0
57833	0	0	0	0	0	4.353828	2.118919	8.560872	-0.002890	0.003288	0.005899	-0.764648	-0.402588	-0.501221	-0.493992	-0.253747	0.020151	-0.831372	14.010743	-26.220314	115.284908	-0.383170	0.811155	0.441824	-0.831608	-0.511132	0.217192	0.402007	-0.284203	0.870413	0	0	0
57834	0	0	0	0	0	4.344718	2.102018	8.590156	-0.003246	0.003608	0.008022	-0.771240	-0.394775	-0.494629	-0.493986	-0.253742	0.020166	-0.831376	14.008605	-26.220885	115.286210	-0.383186	0.811142	0.441833	-0.831610	-0.511143	0.217158	0.401986	-0.284221	0.870417	0	0	0
57835	0	0	0	0	0	4.326429	2.128837	8.579800	-0.004713	0.005613	0.005429	-0.767334	-0.391113	-0.499268	-0.493998	-0.253724	0.020181	-0.831374	14.006133	-26.219876	115.285497	-0.383180	0.811154	0.441817	-0.831636	-0.511116	0.217123	0.401940	-0.284234	0.870434	0	0	0
57836	0	0	0	0	0	4.326063	2.128198	8.580144	-0.004713	0.005614	0.005429	-0.770508	-0.399658	-0.501709	-0.494006	-0.253707	0.020194	-0.831374	14.003728	-26.218972	115.285501	-0.383183	0.811160	0.441803	-0.831654	-0.511102	0.217088	0.401899	-0.284243	0.870450	0	0	0
57837	0	0	0	0	0	4.329245	2.121037	8.557183	0.000778	0.004174	0.007201	-0.775879	-0.396973	-0.506348	-0.493995	-0.253708	0.020189	-0.831381	14.003934	-26.218994	115.286929	-0.383203	0.811151	0.441803	-0.831640	-0.511123	0.217091	0.401909	-0.284231	0.870449	0	0	0
57838	0	0	0	0	0	4.355934	2.109464	8.539027	-0.003304	0.006996	0.008664	-0.776367	-0.397705	-0.503418	-0.493987	-0.253689	0.020197	-0.831391	14.001356	-26.217770	115.289152	-0.383238	0.811144	0.441784	-0.831640	-0.511139	0.217054	0.401875	-0.284222	0.870468	0	0	0
57839	0	0	0	0	0	4.348712	2.122319	8.585744	-0.002891	0.003288	0.005899	-0.772461	-0.393799	-0.498779	-0.493981	-0.253685	0.020207	-0.831395	13.999850	-26.218115	115.290293	-0.383253	0.811134	0.441790	-0.831640	-0.511149	0.217030	0.401861	-0.284232	0.870471	0	0	0
57840	0	0	0	0	0	4.351938	2.115183	8.562757	-0.000907	0.005264	0.005809	-0.770020	-0.390137	-0.501465	-0.493982	-0.253679	0.020206	-0.831397	13.999545	-26.217458	115.290480	-0.383258	0.811138	0.441779	-0.831641	-0.511148	0.217027	0.401853	-0.284224	0.870477	0	0	0
57841	0	0	0	0	0	4.328165	2.119173	8.558191	-0.002892	0.003288	0.005899	-0.766602	-0.401367	-0.493896	-0.493970	-0.253676	0.020215	-0.831405	13.998010	-26.217839	115.292477	-0.383285	0.811122	0.441785	-0.831634	-0.511171	0.217003	0.401843	-0.284229	0.870480	0	0	0
57842	0	0	0	0	0	4.324549	2.125466	8.581584	-0.000989	0.003113	0.006089	-0.771484	-0.401367	-0.493896	-0.493969	-0.253678	0.020219	-0.831404	13.997729	-26.218417	115.292505	-0.383284	0.811117	0.441794	-0.831634	-0.511172	0.216998	0.401843	-0.284240	0.870477	0	0	0
57843	0	0	0	0	0	4.324392	2.124962	8.581788	-0.004796	0.003463	0.005709	-0.768311	-0.405273	-0.503418	-0.493986	-0.253670	0.020242	-0.831396	13.995371	-26.218710	115.290872	-0.383260	0.811126	0.441799	-0.831665	-0.511137	0.216961	0.401803	-0.284276	0.870484	0	0	0
57844	0	0	0	0	0	4.313171	2.138430	8.524934	-0.001346	0.003434	0.008212	-0.768799	-0.398682	-0.502441	-0.493977	-0.253670	0.020250	-0.831402	13.994282	-26.219404	115.292265	-0.383277	0.811112	0.441810	-0.831659	-0.511154	0.216943	0.401798	-0.284286	0.870482	0	0	0
57845	0	0	0	0	0	4.327552	2.117323	8.558959	0.000776	0.004174	0.007201	-0.772461	-0.403320	-0.504395	-0.493983	-0.253671	0.020249	-0.831398	13.994579	-26.219362	115.291320	-0.383264	0.811119	0.441809	-0.831665	-0.511142	0.216948	0.401798	-0.284289	0.870482	0	0	0
57846	0	0	0	0	0	4.350856	2.112508	8.563967	-0.003031	0.004525	0.006820	-0.777832	-0.394531	-0.496338	-0.493982	-0.253663	0.020260	-0.831400	13.992831	-26.219257	115.292018	-0.383274	0.811115	0.441807	-0.831672	-0.511143	0.216922	0.401775	-0.284298	0.870489	0	0	0
57847	0	0	0	0	0	4.327043	2.116481	8.559425	-0.000908	0.005265	0.005810	-0.766357	-0.397705	-0.495605	-0.493979	-0.253657	0.020258	-0.831404	13.992428	-26.218545	115.292678	-0.383286	0.811115	0.441796	-0.831670	-0.511148	0.216917	0.401768	-0.284287	0.870496	0	0	0
57848	0	0	0	0	0	4.326706	2.116075	8.559695	-0.002812	0.005440	0.005619	-0.767578	-0.397705	-0.494629	-0.493983	-0.253645	0.020264	-0.831405	13.991072	-26.217764	115.292773	-0.383290	0.811120	0.441784	-0.831680	-0.511140	0.216898	0.401744	-0.284288	0.870507	0	0	0
57849	0	0	0	0	0	4.349921	2.111203	8.564764	0.000280	0.005731	0.010246	-0.766357	-0.396973	-0.494873	-0.493969	-0.253639	0.020264	-0.831415	13.990156	-26.217397	115.295131	-0.383324	0.811107	0.441778	-0.831666	-0.511169	0.216884	0.401740	-0.284275	0.870513	0	0	0
57850	0	0	0	0	0	4.326190	2.115240	8.560163	-0.000991	0.003114	0.006089	-0.769531	-0.396729	-0.502197	-0.493968	-0.253642	0.020268	-0.831415	13.989873	-26.217974	115.295158	-0.383323	0.811103	0.441787	-0.831666	-0.511170	0.216879	0.401739	-0.284285	0.870510	0	0	0
57851	0	0	0	0	0	4.349491	2.110554	8.565142	0.000994	0.005089	0.006000	-0.775391	-0.397949	-0.497559	-0.493967	-0.253640	0.020261	-0.831416	13.990521	-26.217337	115.295252	-0.383326	0.811107	0.441777	-0.831662	-0.511172	0.216890	0.401745	-0.284270	0.870512	0	0	0
57852	0	0	0	0	0	4.322172	2.121443	8.583776	-0.000910	0.005265	0.005810	-0.773193	-0.397949	-0.503906	-0.493968	-0.253634	0.020259	-0.831417	13.990215	-26.216680	115.295438	-0.383331	0.811110	0.441767	-0.831664	-0.511171	0.216887	0.401737	-0.284262	0.870518	0	0	0
57853	0	0	0	0	0	4.318428	2.127735	8.607229	-0.001487	0.004671	0.009134	-0.772949	-0.395752	-0.497314	-0.493951	-0.253628	0.020265	-0.831429	13.988593	-26.216748	115.298229	-0.383370	0.811091	0.441768	-0.831650	-0.511204	0.216862	0.401728	-0.284258	0.870524	0	0	0
57854	0	0	0	0	0	4.341621	2.122838	8.612316	-0.002594	0.006356	0.004418	-0.759277	-0.398682	-0.495117	-0.493960	-0.253614	0.020266	-0.831428	13.987629	-26.215291	115.297721	-0.383368	0.811104	0.441745	-0.831664	-0.511186	0.216850	0.401702	-0.284250	0.870538	0	0	0
57855	0	0	0	0	0	4.353710	2.132004	8.560364	-0.002814	0.005441	0.005619	-0.776367	-0.395752	-0.498535	-0.493969	-0.253602	0.020274	-0.831427	13.986211	-26.214419	115.297145	-0.383363	0.811114	0.441732	-0.831680	-0.511168	0.216830	0.401673	-0.284255	0.870550	0	0	0
57856	0	0	0	0	0	4.320889	2.119659	8.584863	-0.001130	0.004350	0.007011	-0.775146	-0.394043	-0.502930	-0.493964	-0.253599	0.020277	-0.831430	13.985511	-26.214437	115.297934	-0.383374	0.811109	0.441732	-0.831678	-0.511176	0.216819	0.401667	-0.284256	0.870553	0	0	0
57857	0	0	0	0	0	4.329638	2.135566	8.556052	-0.001269	0.005586	0.007933	-0.775146	-0.397949	-0.499756	-0.493943	-0.253590	0.020276	-0.831445	13.984227	-26.213859	115.301444	-0.383425	0.811089	0.441723	-0.831657	-0.511219	0.216801	0.401662	-0.284235	0.870562	0	0	0
57858	0	0	0	0	0	4.323876	2.112117	8.562103	-0.000993	0.003114	0.006089	-0.770752	-0.394287	-0.498779	-0.493942	-0.253593	0.020281	-0.831445	13.983943	-26.214436	115.301472	-0.383424	0.811085	0.441732	-0.831657	-0.511220	0.216796	0.401662	-0.284245	0.870559	0	0	0
57859	0	0	0	0	0	4.343658	2.114187	8.590308	0.002757	0.006149	0.007113	-0.769287	-0.406250	-0.498535	-0.493926	-0.253591	0.020262	-0.831455	13.985196	-26.213415	115.303575	-0.383457	0.811078	0.441716	-0.831632	-0.511253	0.216817	0.401684	-0.284205	0.870562	0	0	0
57860	0	0	0	0	0	4.352416	2.130369	8.561429	-0.000635	0.002793	0.003966	-0.766357	-0.399414	-0.496826	-0.493934	-0.253597	0.020264	-0.831449	13.985720	-26.213877	115.302238	-0.383436	0.811084	0.441723	-0.831639	-0.511238	0.216824	0.401688	-0.284216	0.870556	0	0	0
57861	0	0	0	0	0	4.323258	2.111436	8.562583	-0.001213	0.002199	0.007290	-0.779053	-0.397461	-0.507568	-0.493945	-0.253601	0.020278	-0.831440	13.985064	-26.215017	115.300518	-0.383408	0.811088	0.441741	-0.831657	-0.511213	0.216812	0.401677	-0.284250	0.870550	0	0	0
57862	0	0	0	0	0	4.339483	2.119960	8.614102	-0.002871	0.008829	0.006261	-0.768066	-0.399170	-0.499512	-0.493947	-0.253576	0.020276	-0.831447	13.983267	-26.212440	115.301534	-0.383431	0.811099	0.441701	-0.831665	-0.511210	0.216789	0.401639	-0.284223	0.870576	0	0	0
57863	0	0	0	0	0	4.322591	2.110561	8.563135	-0.000856	0.001878	0.005167	-0.771973	-0.400146	-0.496094	-0.493948	-0.253583	0.020282	-0.831444	13.983265	-26.213457	115.301141	-0.383422	0.811094	0.441717	-0.831667	-0.511208	0.216787	0.401644	-0.284240	0.870569	0	0	0
57864	0	0	0	0	0	4.322391	2.110171	8.563332	-0.002815	0.005442	0.005618	-0.780029	-0.394287	-0.508789	-0.493952	-0.253572	0.020288	-0.831445	13.981906	-26.212675	115.301236	-0.383426	0.811099	0.441704	-0.831677	-0.511200	0.216768	0.401620	-0.284241	0.870580	0	0	0
57865	0	0	0	0	0	4.318569	2.116481	8.586815	-0.000912	0.005265	0.005810	-0.765869	-0.396484	-0.500732	-0.493944	-0.253565	0.020285	-0.831452	13.981452	-26.211949	115.302615	-0.383448	0.811095	0.441693	-0.831669	-0.511215	0.216762	0.401615	-0.284225	0.870587	0	0	0
57866	0	0	0	0	0	4.350838	2.128062	8.562804	-0.000774	0.004029	0.004888	-0.768311	-0.395264	-0.498291	-0.493948	-0.253565	0.020285	-0.831450	13.981559	-26.211851	115.302040	-0.383440	0.811099	0.441691	-0.831673	-0.511207	0.216764	0.401613	-0.284227	0.870587	0	0	0
57867	0	0	0	0	0	4.298070	2.113535	8.559186	-0.001354	0.003435	0.008212	-0.773438	-0.399170	-0.501465	-0.493940	-0.253564	0.020293	-0.831455	13.980349	-26.212420	115.303351	-0.383457	0.811087	0.441700	-0.831669	-0.511222	0.216745	0.401606	-0.284236	0.870587	0	0	0
57868	0	0	0	0	0	4.323328	2.138520	8.581630	-0.000472	0.007096	0.003408	-0.772217	-0.406250	-0.496094	-0.493951	-0.253551	0.020283	-0.831452	13.980826	-26.210412	115.302331	-0.383449	0.811107	0.441669	-0.831678	-0.511203	0.216756	0.401595	-0.284212	0.870601	0	0	0
57869	0	0	0	0	0	4.344279	2.103729	8.569465	-0.007121	0.007353	0.008280	-0.773926	-0.406494	-0.503906	-0.493959	-0.253520	0.020308	-0.831456	13.976141	-26.208869	115.303011	-0.383464	0.811114	0.441645	-0.831707	-0.511184	0.216687	0.401520	-0.284227	0.870630	0	0	0
57870	0	0	0	0	0	4.320431	2.107435	8.564995	-0.001494	0.004671	0.009134	-0.763672	-0.396240	-0.504150	-0.493946	-0.253515	0.020315	-0.831465	13.974630	-26.209001	115.305166	-0.383494	0.811098	0.441647	-0.831699	-0.511209	0.216664	0.401510	-0.284228	0.870635	0	0	0
57871	0	0	0	0	0	4.316674	2.113724	8.588446	-0.000914	0.005266	0.005810	-0.769775	-0.398926	-0.510010	-0.493960	-0.253507	0.020317	-0.831460	13.974251	-26.208149	115.303674	-0.383476	0.811114	0.441633	-0.831716	-0.511182	0.216660	0.401491	-0.284230	0.870642	0	0	0
57872	0	0	0	0	0	4.322046	2.136317	8.582824	-0.003121	0.002376	0.007099	-0.774414	-0.404541	-0.505127	-0.493957	-0.253508	0.020333	-0.831460	13.972521	-26.209276	115.304214	-0.383480	0.811103	0.441651	-0.831721	-0.511185	0.216632	0.401476	-0.284257	0.870641	0	0	0
57873	0	0	0	0	0	4.319875	2.105958	8.565639	-0.003259	0.003612	0.008020	-0.773926	-0.407715	-0.506104	-0.493961	-0.253501	0.020351	-0.831460	13.970267	-26.209634	115.304366	-0.383481	0.811099	0.441657	-0.831735	-0.511177	0.216597	0.401446	-0.284281	0.870646	0	0	0
57874	0	0	0	0	0	4.352149	2.117171	8.541737	-0.004860	0.006856	0.006349	-0.775879	-0.395020	-0.500732	-0.493964	-0.253478	0.020363	-0.831465	13.967441	-26.208166	115.305131	-0.383496	0.811104	0.441634	-0.831751	-0.511169	0.216556	0.401400	-0.284281	0.870668	0	0	0
57875	0	0	0	0	0	4.321245	2.134392	8.583706	-0.004721	0.005620	0.005427	-0.772217	-0.401367	-0.499756	-0.493975	-0.253461	0.020377	-0.831463	13.964955	-26.207153	115.304634	-0.383492	0.811115	0.441618	-0.831774	-0.511146	0.216521	0.401354	-0.284292	0.870685	0	0	0
57876	0	0	0	0	0	4.362368	2.101951	8.599471	0.000629	0.005409	0.008125	-0.772705	-0.401367	-0.498047	-0.493964	-0.253458	0.020372	-0.831471	13.964886	-26.206736	115.306277	-0.383517	0.811107	0.441611	-0.831761	-0.511169	0.216520	0.401359	-0.284276	0.870688	0	0	0
57877	0	0	0	0	0	4.324037	2.126579	8.561121	-0.007124	0.007355	0.008280	-0.769531	-0.399902	-0.502930	-0.493970	-0.253427	0.020397	-0.831476	13.960179	-26.205197	115.307345	-0.383537	0.811110	0.441587	-0.831787	-0.511155	0.216452	0.401286	-0.284289	0.870718	0	0	0
57878	0	0	0	0	0	4.350798	2.114706	8.543035	-0.001219	0.002199	0.007290	-0.769287	-0.398438	-0.507324	-0.493964	-0.253433	0.020406	-0.831477	13.959498	-26.206449	115.307976	-0.383542	0.811097	0.441607	-0.831784	-0.511165	0.216439	0.401287	-0.284308	0.870711	0	0	0
57879	0	0	0	0	0	4.314530	2.108961	8.590694	-0.005083	0.005942	0.007550	-0.762939	-0.395264	-0.500000	-0.493969	-0.253412	0.020424	-0.831481	13.956159	-26.205468	115.308632	-0.383555	0.811100	0.441591	-0.831803	-0.511155	0.216390	0.401236	-0.284320	0.870731	0	0	0
57880	0	0	0	0	0	4.344681	2.090446	8.549431	-0.002819	0.005443	0.005619	-0.766113	-0.399658	-0.501709	-0.493973	-0.253400	0.020430	-0.831482	13.954799	-26.204684	115.308727	-0.383559	0.811105	0.441579	-0.831813	-0.511147	0.216371	0.401211	-0.284320	0.870742	0	0	0
57881	0	0	0	0	0	4.322874	2.124100	8.562324	-0.003319	0.007000	0.008663	-0.772217	-0.398682	-0.506104	-0.493972	-0.253379	0.020440	-0.831488	13.952122	-26.203287	115.309952	-0.383580	0.811106	0.441557	-0.831823	-0.511147	0.216333	0.401169	-0.284316	0.870762	0	0	0
57882	0	0	0	0	0	4.340435	2.095887	8.573334	-0.003541	0.006085	0.009864	-0.764404	-0.397461	-0.508789	-0.493960	-0.253363	0.020453	-0.831500	13.949142	-26.202733	115.312777	-0.383622	0.811091	0.441549	-0.831819	-0.511171	0.216289	0.401137	-0.284316	0.870778	0	0	0
57883	0	0	0	0	0	4.363634	2.090671	8.578506	-0.006488	0.004563	0.004313	-0.779541	-0.400635	-0.495605	-0.493978	-0.253344	0.020476	-0.831495	13.945941	-26.202032	115.311451	-0.383606	0.811105	0.441538	-0.831855	-0.511134	0.216241	0.401079	-0.284344	0.870795	0	0	0
57884	0	0	0	0	0	4.321890	2.121857	8.563377	-0.005446	0.006263	0.009672	-0.769775	-0.404541	-0.504883	-0.493968	-0.253322	0.020496	-0.831507	13.941910	-26.201352	115.314184	-0.383647	0.811091	0.441527	-0.831860	-0.511151	0.216181	0.401030	-0.284351	0.870815	0	0	0
57885	0	0	0	0	0	4.321499	2.121070	8.563770	-0.004863	0.006858	0.006349	-0.770264	-0.400635	-0.506104	-0.493979	-0.253299	0.020510	-0.831507	13.939070	-26.199835	115.313906	-0.383648	0.811104	0.441503	-0.831884	-0.511128	0.216141	0.400977	-0.284358	0.870838	0	0	0
57886	0	0	0	0	0	4.338979	2.093007	8.574774	-0.001057	0.006502	0.006733	-0.765625	-0.390625	-0.503662	-0.493976	-0.253288	0.020507	-0.831512	13.938342	-26.198617	115.314854	-0.383665	0.811106	0.441484	-0.831883	-0.511134	0.216132	0.400963	-0.284341	0.870849	0	0	0
57887	0	0	0	0	0	4.291670	2.101318	8.565404	-0.007073	0.003969	0.007636	-0.775879	-0.395508	-0.505371	-0.493975	-0.253270	0.020537	-0.831517	13.933926	-26.198756	115.316301	-0.383685	0.811095	0.441486	-0.831901	-0.511133	0.216065	0.400907	-0.284372	0.870865	0	0	0
57888	0	0	0	0	0	4.338362	2.091531	8.575446	-0.004864	0.006858	0.006349	-0.773926	-0.387939	-0.502441	-0.493979	-0.253248	0.020549	-0.831522	13.931098	-26.197286	115.317066	-0.383701	0.811100	0.441463	-0.831916	-0.511125	0.216024	0.400860	-0.284372	0.870887	0	0	0
57889	0	0	0	0	0	4.323462	2.111781	8.541974	-0.002739	0.007595	0.005341	-0.768799	-0.405518	-0.508545	-0.493964	-0.253227	0.020544	-0.831537	13.929477	-26.195208	115.320193	-0.383752	0.811094	0.441431	-0.831903	-0.511156	0.216004	0.400839	-0.284336	0.870908	0	0	0
57890	0	0	0	0	0	4.348600	2.136406	8.564613	-0.006630	0.005800	0.005234	-0.775879	-0.396973	-0.503174	-0.493974	-0.253205	0.020564	-0.831537	13.926014	-26.194173	115.320104	-0.383754	0.811102	0.441415	-0.831930	-0.511134	0.215953	0.400782	-0.284353	0.870929	0	0	0
57891	0	0	0	0	0	4.344589	2.142311	8.588281	-0.005144	0.009331	0.008193	-0.767334	-0.399170	-0.503174	-0.493978	-0.253169	0.020576	-0.831545	13.922273	-26.191429	115.321381	-0.383781	0.811112	0.441372	-0.831949	-0.511124	0.215901	0.400716	-0.284340	0.870964	0	0	0
57892	0	0	0	0	0	4.318391	2.116414	8.566489	-0.004282	0.007453	0.003025	-0.777832	-0.401367	-0.506348	-0.493995	-0.253146	0.020580	-0.831542	13.920648	-26.189170	115.320177	-0.383772	0.811136	0.441336	-0.831975	-0.511091	0.215881	0.400671	-0.284332	0.870987	0	0	0
57893	0	0	0	0	0	4.317858	2.115665	8.566943	-0.008674	0.007216	0.005963	-0.772949	-0.402100	-0.507568	-0.494010	-0.253112	0.020607	-0.831543	13.915633	-26.187323	115.320144	-0.383777	0.811149	0.441307	-0.832013	-0.511059	0.215808	0.400586	-0.284351	0.871019	0	0	0
57894	0	0	0	0	0	4.340572	2.110258	8.572415	-0.008063	0.013350	0.003006	-0.768799	-0.391602	-0.497314	-0.494032	-0.253055	0.020612	-0.831547	13.911447	-26.181782	115.319833	-0.383791	0.811190	0.441221	-0.832054	-0.511015	0.215754	0.400488	-0.284315	0.871077	0	0	0
57895	0	0	0	0	0	4.337396	2.079559	8.555783	-0.010330	0.013850	0.004936	-0.774902	-0.392578	-0.503906	-0.494047	-0.252989	0.020628	-0.831558	13.905288	-26.176137	115.321072	-0.383827	0.811221	0.441132	-0.832095	-0.510983	0.215671	0.400368	-0.284283	0.871142	0	0	0
57896	0	0	0	0	0	4.287936	2.124053	8.587455	-0.007925	0.012115	0.002084	-0.766846	-0.394531	-0.501709	-0.494073	-0.252938	0.020634	-0.831558	13.901517	-26.171156	115.319999	-0.383829	0.811263	0.441054	-0.832139	-0.510932	0.215623	0.400276	-0.284256	0.871193	0	0	0
57897	0	0	0	0	0	4.331895	2.084234	8.580491	-0.012682	0.012197	0.007144	-0.773438	-0.400635	-0.500488	-0.494074	-0.252873	0.020664	-0.831576	13.893463	-26.166743	115.323480	-0.383892	0.811270	0.440985	-0.832171	-0.510928	0.215509	0.400147	-0.284243	0.871257	0	0	0
57898	0	0	0	0	0	4.335235	2.142544	8.616050	-0.008373	0.010284	0.004485	-0.775879	-0.401855	-0.501953	-0.494090	-0.252828	0.020679	-0.831580	13.888904	-26.163111	115.323613	-0.383906	0.811294	0.440928	-0.832208	-0.510895	0.215446	0.400058	-0.284233	0.871301	0	0	0
57899	0	0	0	0	0	4.357170	2.070970	8.563525	-0.009831	0.012294	0.001891	-0.770264	-0.401611	-0.500000	-0.494124	-0.252771	0.020694	-0.831577	13.884055	-26.157968	115.321806	-0.383898	0.811342	0.440848	-0.832266	-0.510827	0.215382	0.399945	-0.284218	0.871358	0	0	0
57900	0	0	0	0	0	4.313436	2.138226	8.589421	-0.014450	0.011141	0.006027	-0.782227	-0.398193	-0.505615	-0.494141	-0.252707	0.020735	-0.831585	13.875534	-26.154071	115.323025	-0.383928	0.811361	0.440786	-0.832321	-0.510789	0.215259	0.399802	-0.284232	0.871419	0	0	0
57901	0	0	0	0	0	4.366784	2.114288	8.553465	-0.016299	0.007933	0.005189	-0.770752	-0.397217	-0.507080	-0.494164	-0.252651	0.020791	-0.831587	13.866334	-26.151808	115.323336	-0.383939	0.811375	0.440751	-0.832386	-0.510740	0.215124	0.399655	-0.284280	0.871470	0	0	0
57902	0	0	0	0	0	4.315439	2.128485	8.567734	-0.012606	0.014350	0.006867	-0.771484	-0.406006	-0.509766	-0.494175	-0.252579	0.020817	-0.831602	13.858425	-26.146241	115.325565	-0.383989	0.811399	0.440664	-0.832430	-0.510715	0.215014	0.399515	-0.284259	0.871541	0	0	0
57903	0	0	0	0	0	4.266020	2.172518	8.599495	-0.012690	0.012198	0.007144	-0.765137	-0.397949	-0.502441	-0.494196	-0.252513	0.020852	-0.831608	13.850459	-26.141728	115.326277	-0.384014	0.811425	0.440593	-0.832486	-0.510670	0.214901	0.399374	-0.284263	0.871605	0	0	0
57904	0	0	0	0	0	4.389961	1.972011	8.548164	-0.022215	0.013096	0.006175	-0.772705	-0.400879	-0.500488	-0.494223	-0.252422	0.020920	-0.831618	13.837319	-26.136763	115.327883	-0.384053	0.811449	0.440515	-0.832572	-0.510611	0.214710	0.399158	-0.284300	0.871691	0	0	0
57905	0	0	0	0	0	4.302303	2.203714	8.571564	-0.016420	0.014710	0.006480	-0.767090	-0.398682	-0.500244	-0.494249	-0.252337	0.020963	-0.831627	13.827271	-26.130855	115.328899	-0.384087	0.811483	0.440423	-0.832642	-0.510556	0.214568	0.398979	-0.284302	0.871773	0	0	0
57906	0	0	0	0	0	4.317062	2.144678	8.565695	-0.016870	0.012878	0.008880	-0.773438	-0.403564	-0.503418	-0.494258	-0.252260	0.021013	-0.831644	13.816471	-26.126381	115.332145	-0.384148	0.811492	0.440353	-0.832696	-0.510535	0.214412	0.398809	-0.284314	0.871847	0	0	0
57907	0	0	0	0	0	4.347528	2.028120	8.553061	-0.020740	0.016625	0.009138	-0.770996	-0.402588	-0.501709	-0.494281	-0.252156	0.021073	-0.831660	13.803123	-26.119779	115.334727	-0.384206	0.811521	0.440249	-0.832776	-0.510484	0.214221	0.398585	-0.284324	0.871946	0	0	0
57908	0	0	0	0	0	4.285201	2.061451	8.637317	-0.024636	0.014834	0.009026	-0.770508	-0.393799	-0.516602	-0.494300	-0.252052	0.021151	-0.831679	13.787705	-26.114236	115.338359	-0.384276	0.811535	0.440162	-0.832860	-0.510441	0.213996	0.398343	-0.284360	0.872045	0	0	0
57909	0	0	0	0	0	4.375538	2.168226	8.544160	-0.023241	0.016209	0.012267	-0.767090	-0.393555	-0.502930	-0.494305	-0.251943	0.021224	-0.831707	13.771985	-26.108203	115.343913	-0.384374	0.811540	0.440068	-0.832929	-0.510424	0.213768	0.398102	-0.284378	0.872149	0	0	0
57910	0	0	0	0	0	4.301343	2.089364	8.581692	-0.019434	0.015849	0.012656	-0.771973	-0.395020	-0.505371	-0.494302	-0.251846	0.021283	-0.831737	13.758492	-26.102588	115.349945	-0.384478	0.811538	0.439980	-0.832978	-0.510425	0.213573	0.397900	-0.284379	0.872241	0	0	0
57911	0	0	0	0	0	4.318091	2.059418	8.593431	-0.024646	0.014837	0.009026	-0.773682	-0.396484	-0.505127	-0.494315	-0.251741	0.021359	-0.831759	13.742943	-26.096956	115.354257	-0.384558	0.811548	0.439891	-0.833057	-0.510392	0.213347	0.397658	-0.284410	0.872341	0	0	0
57912	0	0	0	0	0	4.306862	2.136938	8.595849	-0.029335	0.017071	0.013806	-0.768799	-0.392822	-0.497803	-0.494320	-0.251614	0.021457	-0.831792	13.723385	-26.090813	115.361183	-0.384676	0.811545	0.439795	-0.833140	-0.510375	0.213060	0.397368	-0.284452	0.872460	0	0	0
57913	0	0	0	0	0	4.352931	1.961930	8.576486	-0.031104	0.016018	0.012687	-0.765869	-0.397461	-0.503418	-0.494326	-0.251488	0.021563	-0.831824	13.703100	-26.085082	115.367941	-0.384791	0.811539	0.439705	-0.833230	-0.510353	0.212762	0.397069	-0.284507	0.872578	0	0	0
57914	0	0	0	0	0	4.307288	2.220810	8.547613	-0.028978	0.016755	0.011684	-0.765869	-0.394531	-0.510254	-0.494339	-0.251364	0.021657	-0.831851	13.684349	-26.078824	115.373499	-0.384890	0.811545	0.439607	-0.833320	-0.510320	0.212487	0.396783	-0.284549	0.872694	0	0	0
57915	0	0	0	0	0	4.307728	2.024033	8.604431	-0.033305	0.018672	0.014341	-0.775879	-0.399170	-0.501221	-0.494352	-0.251220	0.021770	-0.831884	13.662173	-26.071697	115.380271	-0.385009	0.811549	0.439496	-0.833425	-0.510284	0.212162	0.396448	-0.284602	0.872829	0	0	0
57916	0	0	0	0	0	4.335590	2.039078	8.605103	-0.030234	0.018945	0.018977	-0.772461	-0.394287	-0.501221	-0.494336	-0.251083	0.021873	-0.831932	13.640574	-26.065202	115.390673	-0.385178	0.811524	0.439394	-0.833492	-0.510307	0.211845	0.396143	-0.284633	0.872958	0	0	0
57917	0	0	0	0	0	4.313662	2.130408	8.550776	-0.033175	0.017441	0.013416	-0.774658	-0.391357	-0.512207	-0.494346	-0.250946	0.021985	-0.831965	13.618869	-26.058812	115.397592	-0.385297	0.811522	0.439293	-0.833590	-0.510278	0.211526	0.395820	-0.284690	0.873085	0	0	0
57918	0	0	0	0	0	4.329655	2.038872	8.631132	-0.031358	0.015107	0.013884	-0.766113	-0.394531	-0.506592	-0.494352	-0.250823	0.022097	-0.831995	13.598272	-26.053760	115.404255	-0.385408	0.811512	0.439214	-0.833681	-0.510256	0.211221	0.395520	-0.284758	0.873199	0	0	0
57919	0	0	0	0	0	4.329272	2.096092	8.564114	-0.031648	0.017578	0.015735	-0.778564	-0.397461	-0.510986	-0.494346	-0.250688	0.022204	-0.832036	13.576685	-26.047456	115.413191	-0.385555	0.811495	0.439115	-0.833761	-0.510258	0.210904	0.395209	-0.284802	0.873325	0	0	0
57920	0	0	0	0	0	4.286026	2.064137	8.618476	-0.035612	0.019178	0.016269	-0.768311	-0.390137	-0.504883	-0.494348	-0.250537	0.022326	-0.832077	13.552737	-26.040453	115.421936	-0.385702	0.811485	0.439006	-0.833859	-0.510243	0.210551	0.394858	-0.284859	0.873466	0	0	0
57921	0	0	0	0	0	4.315445	2.042493	8.578464	-0.037980	0.017526	0.018468	-0.773926	-0.396729	-0.508545	-0.494339	-0.250386	0.022463	-0.832125	13.526822	-26.034598	115.432575	-0.385872	0.811454	0.438914	-0.833952	-0.510249	0.210166	0.394496	-0.284936	0.873604	0	0	0
57922	0	0	0	0	0	4.321982	2.091387	8.591973	-0.033492	0.019918	0.015269	-0.775391	-0.390381	-0.506836	-0.494342	-0.250238	0.022573	-0.832164	13.504318	-26.027042	115.440803	-0.386014	0.811451	0.438795	-0.834045	-0.510232	0.209837	0.394160	-0.284975	0.873743	0	0	0
57923	0	0	0	0	0	4.305612	2.048070	8.628067	-0.039080	0.019235	0.013754	-0.768066	-0.393066	-0.505371	-0.494353	-0.250078	0.022705	-0.832202	13.478959	-26.019621	115.448854	-0.386152	0.811448	0.438679	-0.834160	-0.510199	0.209463	0.393782	-0.285044	0.873891	0	0	0
57924	0	0	0	0	0	4.322878	2.076973	8.571999	-0.038662	0.020313	0.022443	-0.770264	-0.389404	-0.511963	-0.494334	-0.249914	0.022844	-0.832259	13.451521	-26.012796	115.461581	-0.386355	0.811409	0.438572	-0.834246	-0.510225	0.209057	0.393401	-0.285107	0.874042	0	0	0
57925	0	0	0	0	0	4.286621	2.031092	8.580023	-0.043427	0.021156	0.016411	-0.771484	-0.395752	-0.515137	-0.494341	-0.249734	0.022993	-0.832304	13.422810	-26.004590	115.471238	-0.386518	0.811401	0.438443	-0.834369	-0.510196	0.208634	0.392977	-0.285183	0.874208	0	0	0
57926	0	0	0	0	0	4.318432	1.941646	8.585264	-0.043725	0.023626	0.018265	-0.771973	-0.395020	-0.506348	-0.494346	-0.249545	0.023140	-0.832355	13.393399	-25.995352	115.481853	-0.386699	0.811393	0.438298	-0.834491	-0.510174	0.208201	0.392541	-0.285245	0.874384	0	0	0
57927	0	0	0	0	0	4.302731	2.121190	8.584579	-0.037492	0.021528	0.015805	-0.770264	-0.393311	-0.513184	-0.494357	-0.249379	0.023265	-0.832394	13.368293	-25.986845	115.490060	-0.386843	0.811396	0.438165	-0.834603	-0.510140	0.207833	0.392160	-0.285295	0.874538	0	0	0
57928	0	0	0	0	0	4.263182	1.985121	8.643077	-0.043373	0.023317	0.016142	-0.777100	-0.393555	-0.507080	-0.494369	-0.249191	0.023408	-0.832439	13.339689	-25.977488	115.499303	-0.387005	0.811398	0.438018	-0.834731	-0.510102	0.207413	0.391728	-0.285357	0.874711	0	0	0
57929	0	0	0	0	0	4.297888	1.986186	8.597803	-0.040081	0.024497	0.019587	-0.765381	-0.390381	-0.504639	-0.494362	-0.249006	0.023540	-0.832495	13.311874	-25.967864	115.511068	-0.387203	0.811385	0.437867	-0.834831	-0.510103	0.207005	0.391318	-0.285392	0.874884	0	0	0
57930	0	0	0	0	0	4.333288	2.052943	8.611172	-0.041712	0.022217	0.017534	-0.772461	-0.393555	-0.507813	-0.494367	-0.248827	0.023681	-0.832541	13.283922	-25.959296	115.521001	-0.387372	0.811377	0.437733	-0.834947	-0.510081	0.206593	0.390904	-0.285455	0.875048	0	0	0
57931	0	0	0	0	0	4.275582	2.040875	8.631925	-0.050050	0.020199	0.020331	-0.769043	-0.386719	-0.511230	-0.494372	-0.248636	0.023866	-0.832590	13.250515	-25.952172	115.532089	-0.387553	0.811351	0.437621	-0.835087	-0.510053	0.206096	0.390426	-0.285579	0.875222	0	0	0
57932	0	0	0	0	0	4.313083	1.973777	8.631599	-0.046966	0.025995	0.025368	-0.775879	-0.395996	-0.512451	-0.494351	-0.248427	0.024030	-0.832660	13.217193	-25.942514	115.547420	-0.387802	0.811314	0.437469	-0.835193	-0.510079	0.205603	0.389953	-0.285638	0.875413	0	0	0
57933	0	0	0	0	0	4.281866	2.047558	8.607028	-0.040437	0.021430	0.021052	-0.775391	-0.385742	-0.505615	-0.494338	-0.248253	0.024172	-0.832716	13.188974	-25.934753	115.559700	-0.388001	0.811284	0.437347	-0.835287	-0.510092	0.205186	0.389551	-0.285698	0.875572	0	0	0
57934	0	0	0	0	0	4.286379	1.968839	8.630457	-0.050209	0.026984	0.021654	-0.768555	-0.387695	-0.517822	-0.494336	-0.248033	0.024342	-0.832778	13.154750	-25.924045	115.572857	-0.388223	0.811269	0.437179	-0.835419	-0.510079	0.204681	0.389047	-0.285766	0.875774	0	0	0
57935	0	0	0	0	0	4.274777	2.044135	8.634348	-0.044719	0.025505	0.023444	-0.766113	-0.394531	-0.514160	-0.494310	-0.247832	0.024492	-0.832849	13.123125	-25.914328	115.588397	-0.388475	0.811231	0.437027	-0.835510	-0.510116	0.204215	0.388600	-0.285808	0.875959	0	0	0
57936	0	0	0	0	0	4.276709	2.032349	8.613195	-0.054897	0.025832	0.025770	-0.772217	-0.384766	-0.510254	-0.494297	-0.247605	0.024690	-0.832919	13.085182	-25.904783	115.603924	-0.388726	0.811191	0.436877	-0.835644	-0.510123	0.203651	0.388061	-0.285909	0.876165	0	0	0
57937	0	0	0	0	0	4.302051	2.015941	8.597011	-0.042979	0.026556	0.024574	-0.768311	-0.383789	-0.517822	-0.494275	-0.247403	0.024835	-0.832987	13.054262	-25.894572	115.618627	-0.388968	0.811161	0.436717	-0.835738	-0.510150	0.203196	0.387616	-0.285944	0.876350	0	0	0
57938	0	0	0	0	0	4.255716	1.952436	8.633853	-0.055367	0.029537	0.028558	-0.767822	-0.395020	-0.511230	-0.494252	-0.247158	0.025028	-0.833068	13.015074	-25.883302	115.636401	-0.389256	0.811118	0.436540	-0.835862	-0.510178	0.202616	0.387058	-0.286017	0.876573	0	0	0
57939	0	0	0	0	0	4.331362	1.919939	8.604473	-0.046978	0.028170	0.025107	-0.774658	-0.389893	-0.508789	-0.494236	-0.246939	0.025188	-0.833137	12.981627	-25.872206	115.651307	-0.389504	0.811093	0.436365	-0.835972	-0.510193	0.202123	0.386571	-0.286062	0.876773	0	0	0
57940	0	0	0	0	0	4.226582	2.078585	8.647872	-0.063434	0.030609	0.029885	-0.768799	-0.393311	-0.508789	-0.494217	-0.246670	0.025414	-0.833222	12.937406	-25.860487	115.670038	-0.389808	0.811046	0.436181	-0.836121	-0.510208	0.201466	0.385942	-0.286167	0.877016	0	0	0
57941	0	0	0	0	0	4.300011	2.015838	8.600932	-0.055190	0.030473	0.027367	-0.773193	-0.388672	-0.517090	-0.494204	-0.246422	0.025605	-0.833296	12.898619	-25.848506	115.686279	-0.390077	0.811018	0.435993	-0.836256	-0.510214	0.200893	0.385377	-0.286238	0.877241	0	0	0
57942	0	0	0	0	0	4.264945	2.094500	8.600566	-0.065624	0.029885	0.030878	-0.771973	-0.391846	-0.517090	-0.494183	-0.246150	0.025843	-0.833382	12.852936	-25.837293	115.705500	-0.390386	0.810964	0.435817	-0.836409	-0.510231	0.200212	0.384732	-0.286361	0.877484	0	0	0
57943	0	0	0	0	0	4.212595	2.005656	8.643142	-0.075209	0.032188	0.040697	-0.767822	-0.389648	-0.516113	-0.494138	-0.245843	0.026129	-0.833490	12.798907	-25.825925	115.730536	-0.390778	0.810871	0.435638	-0.836566	-0.510290	0.199404	0.383993	-0.286517	0.877757	0	0	0
57944	0	0	0	0	0	4.243570	2.009293	8.622396	-0.077538	0.032693	0.042622	-0.768311	-0.379395	-0.517334	-0.494083	-0.245529	0.026425	-0.833606	12.743069	-25.814599	115.757416	-0.391196	0.810765	0.435460	-0.836717	-0.510368	0.198567	0.383237	-0.286678	0.878035	0	0	0
57945	0	0	0	0	0	4.255329	1.979081	8.659076	-0.079932	0.036585	0.045220	-0.773926	-0.392090	-0.510742	-0.494019	-0.245190	0.026724	-0.833734	12.684814	-25.801282	115.786593	-0.391653	0.810657	0.435251	-0.836866	-0.510461	0.197697	0.382443	-0.286819	0.878335	0	0	0
57946	0	0	0	0	0	4.241288	1.923893	8.672885	-0.080885	0.038435	0.050402	-0.773682	-0.380371	-0.515625	-0.493937	-0.244843	0.027029	-0.833875	12.624633	-25.787673	115.819074	-0.392157	0.810528	0.435037	-0.836999	-0.510592	0.196797	0.381636	-0.286950	0.878643	0	0	0
57947	0	0	0	0	0	4.266116	1.903698	8.657728	-0.080629	0.035984	0.048536	-0.773438	-0.379395	-0.515137	-0.493861	-0.244506	0.027336	-0.834009	12.565233	-25.775179	115.850069	-0.392637	0.810401	0.434841	-0.837136	-0.510709	0.195906	0.380840	-0.287101	0.878939	0	0	0
57948	0	0	0	0	0	4.246287	1.922630	8.650553	-0.078814	0.039186	0.049416	-0.769043	-0.379150	-0.512207	-0.493779	-0.244160	0.027629	-0.834149	12.506489	-25.760967	115.882002	-0.393136	0.810279	0.434618	-0.837263	-0.510837	0.195028	0.380046	-0.287217	0.879245	0	0	0
57949	0	0	0	0	0	4.275320	1.863928	8.697516	-0.082715	0.034042	0.048590	-0.770264	-0.378662	-0.521240	-0.493695	-0.243826	0.027948	-0.834286	12.445942	-25.749504	115.914109	-0.393628	0.810137	0.434437	-0.837395	-0.510968	0.194118	0.379246	-0.287385	0.879535	0	0	0
57950	0	0	0	0	0	4.271473	1.922528	8.656433	-0.081699	0.032307	0.053296	-0.772949	-0.376709	-0.517822	-0.493600	-0.243501	0.028275	-0.834426	12.384936	-25.739559	115.947472	-0.394132	0.809975	0.434281	-0.837515	-0.511119	0.193197	0.378455	-0.287572	0.879815	0	0	0
57951	0	0	0	0	0	4.277776	1.868488	8.697967	-0.079312	0.025048	0.050011	-0.759033	-0.376709	-0.524414	-0.493504	-0.243212	0.028604	-0.834556	12.326463	-25.733175	115.979267	-0.394603	0.809800	0.434181	-0.837627	-0.511271	0.192310	0.377716	-0.287795	0.880059	0	0	0
57952	0	0	0	0	0	4.238155	1.921708	8.703265	-0.076077	0.020655	0.053045	-0.768066	-0.372314	-0.519531	-0.493401	-0.242950	0.028936	-0.834682	12.269449	-25.729661	116.010870	-0.395061	0.809606	0.434125	-0.837725	-0.511436	0.191440	0.377018	-0.288048	0.880276	0	0	0
57953	0	0	0	0	0	4.237566	1.912818	8.705510	-0.076291	0.016351	0.053550	-0.772949	-0.373779	-0.520508	-0.493292	-0.242703	0.029279	-0.834806	12.212247	-25.728405	116.042816	-0.395517	0.809394	0.434106	-0.837818	-0.511612	0.190563	0.376334	-0.288331	0.880476	0	0	0
57954	0	0	0	0	0	4.174694	1.906000	8.645877	-0.079986	0.013447	0.062349	-0.767578	-0.373291	-0.517334	-0.493154	-0.242460	0.029656	-0.834945	12.150907	-25.729995	116.079227	-0.396026	0.809132	0.434131	-0.837893	-0.511840	0.189617	0.375631	-0.288662	0.880668	0	0	0
57955	0	0	0	0	0	3.965598	1.973071	8.747557	-0.073458	0.010179	0.068846	-0.763672	-0.375000	-0.522705	-0.492969	-0.242244	0.030020	-0.835104	12.091590	-25.734115	116.120747	-0.396598	0.808816	0.434196	-0.837905	-0.512161	0.188699	0.375001	-0.288977	0.880833	0	0	0
57956	0	0	0	0	0	4.059638	2.076418	8.785282	-0.073522	-0.005064	0.088245	-0.767090	-0.372559	-0.521973	-0.492712	-0.242090	0.030447	-0.835285	12.028017	-25.749107	116.170814	-0.397255	0.808368	0.434431	-0.837851	-0.512616	0.187698	0.374425	-0.289425	0.880931	0	0	0
57957	0	0	0	0	0	4.144651	1.866928	8.800527	-0.082936	-0.019675	0.094615	-0.776367	-0.376953	-0.523193	-0.492438	-0.241971	0.030957	-0.835462	11.958014	-25.772824	116.222817	-0.397909	0.807845	0.434804	-0.837808	-0.513092	0.186584	0.373826	-0.290039	0.880983	0	0	0
57958	0	0	0	0	0	4.032934	1.848578	8.860605	-0.060816	-0.049114	0.108960	-0.769287	-0.378662	-0.522217	-0.492072	-0.242029	0.031465	-0.835642	11.898561	-25.814859	116.280048	-0.398574	0.807161	0.435465	-0.837623	-0.513750	0.185604	0.373532	-0.290778	0.880864	0	0	0
57959	0	0	0	0	0	4.047296	1.829354	8.938994	-0.049072	-0.087169	0.114572	-0.771240	-0.372070	-0.522217	-0.491670	-0.242272	0.032026	-0.835787	11.846379	-25.878728	116.334820	-0.399130	0.806344	0.436468	-0.837380	-0.514470	0.184702	0.373483	-0.291769	0.880557	0	0	0
57960	0	0	0	0	0	4.151676	1.835899	8.996717	-0.030734	-0.135290	0.125271	-0.777344	-0.375977	-0.519043	-0.491185	-0.242761	0.032640	-0.835906	11.804452	-25.970913	116.391118	-0.399610	0.805322	0.437915	-0.837016	-0.515345	0.183914	0.373787	-0.293048	0.880004	0	0	0
57961	0	0	0	0	0	4.130857	2.023372	9.010106	-0.017642	-0.193174	0.141038	-0.777100	-0.368164	-0.524170	-0.490612	-0.243520	0.033361	-0.835993	11.768818	-26.097272	116.449284	-0.399996	0.804049	0.439896	-0.836545	-0.516374	0.183169	0.374428	-0.294726	0.879170	0	0	0
57962	0	0	0	0	0	4.073005	1.952381	9.081430	-0.007173	-0.273899	0.155994	-0.777344	-0.366211	-0.508545	-0.489945	-0.244640	0.034253	-0.836021	11.739531	-26.270732	116.507010	-0.400209	0.802450	0.442613	-0.835969	-0.517560	0.182448	0.375484	-0.296994	0.877956	0	0	0
57963	0	0	0	0	0	4.110055	2.073892	9.188005	-0.006262	-0.383890	0.173619	-0.784668	-0.371338	-0.514893	-0.489104	-0.246221	0.035410	-0.836002	11.711821	-26.507848	116.572627	-0.400305	0.800346	0.446320	-0.835221	-0.519047	0.181650	0.377044	-0.300061	0.876243	0	0	0
57964	0	0	0	0	0	4.066919	2.013962	9.297890	-0.015698	-0.512622	0.198162	-0.786133	-0.372559	-0.507568	-0.488225	-0.248309	0.036974	-0.835830	11.679063	-26.820091	116.626242	-0.399958	0.797785	0.451190	-0.834508	-0.520538	0.180654	0.378985	-0.304268	0.873952	0	0	0
57965	0	0	0	0	0	4.075619	2.125390	9.413574	-0.032245	-0.668099	0.229857	-0.787842	-0.367676	-0.508057	-0.487136	-0.251000	0.039005	-0.835569	11.636470	-27.223127	116.688919	-0.399395	0.794491	0.457457	-0.833652	-0.522354	0.179359	0.381454	-0.309725	0.870955	0	0	0
57966	0	0	0	0	0	4.040951	2.405167	9.521295	-0.055206	-0.851016	0.272269	-0.801270	-0.361084	-0.500732	-0.485920	-0.254384	0.041650	-0.835126	11.578624	-27.733760	116.746374	-0.398341	0.790418	0.465364	-0.832799	-0.524294	0.177655	0.384409	-0.316787	0.867108	0	0	0
57967	0	0	0	0	0	4.374766	2.314320	9.200043	0.037329	-1.051509	0.376425	-0.794189	-0.359375	-0.496094	-0.484023	-0.258805	0.044505	-0.834722	11.553966	-28.368705	116.854931	-0.397484	0.785013	0.475144	-0.831085	-0.527483	0.176238	0.388979	-0.324833	0.862078	0	0	0
57968	0	0	0	0	0	3.677127	3.824505	9.784169	-0.173526	-1.207761	0.442902	-0.806152	-0.359619	-0.480469	-0.482142	-0.263342	0.048724	-0.834156	11.396008	-29.098983	116.977301	-0.396380	0.778702	0.486320	-0.830026	-0.530329	0.172650	0.392352	-0.335223	0.856554	0	0	0
57969	0	0	0	0	0	4.410636	1.472969	9.404441	-0.182822	-1.426426	0.507339	-0.814697	-0.352783	-0.463867	-0.479867	-0.268740	0.053570	-0.833449	11.222968	-29.958677	117.124983	-0.395014	0.771096	0.499375	-0.828681	-0.533717	0.168623	0.396549	-0.347215	0.849818	0	0	0
57970	0	0	0	0	0	4.253755	2.861545	9.530486	-0.183034	-1.653515	0.582642	-0.817627	-0.343750	-0.454590	-0.477245	-0.275045	0.059081	-0.832524	11.035495	-30.954343	117.288515	-0.393175	0.762137	0.514355	-0.827136	-0.537493	0.164155	0.401571	-0.360900	0.841720	0	0	0
57971	0	0	0	0	0	4.452025	2.110848	9.361120	-0.248964	-1.899007	0.661009	-0.839111	-0.341309	-0.443604	-0.474208	-0.282170	0.065531	-0.831392	10.793796	-32.095912	117.487643	-0.391013	0.751524	0.531338	-0.825487	-0.541664	0.158652	0.407038	-0.376578	0.832171	0	0	0
57972	0	0	0	0	0	4.744309	2.860757	9.476988	-0.235224	-2.156066	0.809947	-0.848633	-0.329346	-0.426270	-0.470457	-0.290311	0.072758	-0.830118	10.515264	-33.397433	117.753925	-0.388779	0.738825	0.550443	-0.823315	-0.546753	0.152362	0.413525	-0.393953	0.820852	0	0	0
57973	0	0	0	0	0	4.551035	3.001625	9.519798	-0.352832	-2.425852	1.007383	-0.865479	-0.322510	-0.406250	-0.465817	-0.299182	0.081357	-0.828786	10.099443	-34.869526	118.144829	-0.387011	0.723444	0.571710	-0.820805	-0.552792	0.143873	0.420120	-0.413582	0.807743	0	0	0
57974	0	0	0	0	0	4.871806	3.628593	9.511941	-0.459572	-2.701267	1.251405	-0.880859	-0.316650	-0.390625	-0.460188	-0.308782	0.091414	-0.827360	9.520898	-36.518522	118.685522	-0.385760	0.705029	0.595083	-0.817936	-0.559740	0.132932	0.426813	-0.435460	0.792594	0	0	0
57975	0	0	0	0	0	4.903635	3.311426	9.199695	-0.563038	-2.946131	1.536742	-0.891846	-0.294189	-0.366211	-0.453254	-0.318951	0.102850	-0.825986	8.741509	-38.325843	119.446159	-0.385663	0.683154	0.620133	-0.814371	-0.567966	0.119225	0.433664	-0.459037	0.775384	0	0	0
57976	0	0	0	0	0	6.122593	3.079340	9.033865	-0.538873	-3.100657	1.733253	-0.903320	-0.280029	-0.345947	-0.445309	-0.329613	0.114848	-0.824540	7.841768	-40.228913	120.379955	-0.386111	0.658639	0.645843	-0.810060	-0.577021	0.104166	0.441273	-0.482952	0.756331	0	0	0
57977	0	0	0	0	0	6.557267	3.815745	8.993190	-0.587523	-3.103481	1.949231	-0.922119	-0.249756	-0.322266	-0.436356	-0.339931	0.127334	-0.823302	6.736711	-42.133272	121.554712	-0.388081	0.631936	0.670857	-0.805075	-0.586760	0.086993	0.448606	-0.506330	0.736466	0	0	0
57978	0	0	0	0	0	7.820688	3.909537	9.009041	-0.552927	-2.946722	1.990278	-0.932373	-0.238770	-0.291992	-0.427177	-0.349554	0.139397	-0.822132	5.533273	-43.935881	122.854118	-0.390665	0.604937	0.693853	-0.799845	-0.596177	0.069436	0.455664	-0.527848	0.716761	0	0	0
57979	0	0	0	0	0	8.561457	5.264829	9.489253	-0.216129	-2.591565	1.762302	-0.952148	-0.233643	-0.274658	-0.418412	-0.358466	0.148839	-0.821146	4.544584	-45.500563	124.091591	-0.392868	0.580447	0.713257	-0.793861	-0.605558	0.055536	0.464154	-0.544409	0.698699	0	0	0
57980	0	0	0	0	0	8.384600	7.621719	10.034881	-0.362450	-2.067054	1.568293	-0.961426	-0.216553	-0.255371	-0.411068	-0.365018	0.157445	-0.820363	3.494883	-46.747125	125.260023	-0.395569	0.559510	0.728337	-0.789391	-0.612468	0.041771	0.469454	-0.558419	0.683945	0	0	0
57981	0	0	0	0	0	7.282480	4.456081	9.891708	-0.475461	-1.681286	1.626316	-0.964111	-0.200195	-0.234619	-0.403912	-0.369637	0.165755	-0.820212	2.275465	-47.753849	126.556901	-0.400446	0.540049	0.740263	-0.785126	-0.618760	0.026694	0.472461	-0.570511	0.671787	0	0	0
57982	0	0	0	0	0	5.405723	5.287277	9.742602	-0.206794	-1.327704	1.447531	-0.970947	-0.183105	-0.216553	-0.397258	-0.373470	0.171947	-0.820452	1.261768	-48.542072	127.759081	-0.405414	0.523428	0.749442	-0.780295	-0.625241	0.014579	0.476213	-0.578876	0.661909	0	0	0
57983	0	0	0	0	0	2.958335	10.397590	9.460353	-0.083527	-1.163131	0.799764	-0.972900	-0.179443	-0.209473	-0.393082	-0.377414	0.176045	-0.819789	0.707866	-49.217910	128.441094	-0.406091	0.511605	0.757199	-0.777372	-0.628989	0.008070	0.480399	-0.585349	0.653134	0	0	0
57984	0	0	0	0	0	3.591207	10.548190	9.607153	-0.286452	-0.943222	-0.077836	-0.972168	-0.172852	-0.200195	-0.393126	-0.380804	0.178919	-0.817575	0.607412	-49.760087	128.357734	-0.400881	0.506554	0.763346	-0.779086	-0.626880	0.006848	0.481996	-0.591967	0.645953	0	0	0
57985	0	0	0	0	0	1.392973	8.868500	8.834024	-0.095366	-0.644240	-0.841385	-0.969238	-0.188965	-0.195801	-0.396115	-0.384034	0.178926	-0.814614	1.137947	-50.123569	127.604146	-0.391222	0.507936	0.767429	-0.782789	-0.622157	0.012733	0.483928	-0.595754	0.641008	0	0	0
57986	0	0	0	0	0	0.738590	8.250054	8.985525	-0.227546	-0.641858	-1.230646	-0.963867	-0.187500	-0.194336	-0.401000	-0.387312	0.178751	-0.810702	1.872594	-50.474940	126.480253	-0.378378	0.511718	0.771346	-0.788647	-0.614495	0.020796	0.484630	-0.600451	0.636076	0	0	0
57987	0	0	0	0	0	0.716715	5.838105	9.572456	-0.269078	-0.537703	-1.468516	-0.970703	-0.212891	-0.184570	-0.406929	-0.390288	0.178023	-0.806469	2.762930	-50.750255	125.139993	-0.364168	0.517391	0.774395	-0.795312	-0.605433	0.030498	0.484624	-0.604779	0.631966	0	0	0
57988	0	0	0	0	0	0.837441	4.195108	10.491442	-0.145876	-0.354755	-1.607619	-0.962891	-0.216797	-0.175781	-0.413385	-0.392862	0.176185	-0.802329	3.826835	-50.902390	123.660228	-0.349545	0.524909	0.776073	-0.801774	-0.596143	0.042090	0.484744	-0.607523	0.629237	0	0	0
57989	0	0	0	0	0	0.807612	3.487987	11.172757	-0.038023	-0.065046	-1.644101	-0.967529	-0.235352	-0.180664	-0.419933	-0.394516	0.173189	-0.798761	4.969317	-50.868855	122.171037	-0.336027	0.534200	0.775703	-0.807504	-0.587324	0.054667	0.484792	-0.608014	0.628725	0	0	0
57990	0	0	0	0	0	0.693655	2.556685	11.428826	0.026529	0.230468	-1.594851	-0.956299	-0.257324	-0.176270	-0.426455	-0.395042	0.169443	-0.795844	6.087222	-50.651381	120.747697	-0.324157	0.544909	0.773302	-0.812657	-0.578851	0.067235	0.484264	-0.606635	0.630462	0	0	0
57991	0	0	0	0	0	0.675513	2.050169	11.595778	0.098489	0.535283	-1.524757	-0.957031	-0.263672	-0.183838	-0.432716	-0.394435	0.164844	-0.793728	7.157281	-50.247154	119.444518	-0.314355	0.556877	0.768810	-0.816959	-0.571166	0.079675	0.483487	-0.603040	0.634494	0	0	0
57992	0	0	0	0	0	0.803371	1.690949	11.584806	0.146393	0.826344	-1.480015	-0.953125	-0.280273	-0.204346	-0.438985	-0.392700	0.159546	-0.792227	8.170681	-49.666676	118.230768	-0.306157	0.570245	0.762292	-0.820859	-0.563674	0.091986	0.482139	-0.597572	0.640663	0	0	0
57993	0	0	0	0	0	0.935414	1.511860	11.561686	0.157323	1.085747	-1.464501	-0.936035	-0.292480	-0.202393	-0.445274	-0.389927	0.153609	-0.791260	9.121571	-48.926175	117.106732	-0.299376	0.584862	0.753864	-0.824448	-0.556270	0.104159	0.480271	-0.590339	0.648722	0	0	0
57994	0	0	0	0	0	1.188246	1.364048	11.297742	0.150523	1.303173	-1.473754	-0.930908	-0.313477	-0.214844	-0.451809	-0.386241	0.147228	-0.790576	10.012850	-48.051272	116.032111	-0.293373	0.600648	0.743743	-0.828110	-0.548385	0.116225	0.477668	-0.581804	0.658284	0	0	0
57995	0	0	0	0	0	1.525561	1.328823	11.127669	0.131875	1.475223	-1.510236	-0.928955	-0.314941	-0.220215	-0.458536	-0.381828	0.140401	-0.790089	10.856898	-47.063813	115.002240	-0.287905	0.617351	0.732113	-0.831786	-0.540065	0.128305	0.474598	-0.572021	0.668991	0	0	0
57996	0	0	0	0	0	1.963120	1.286554	10.901586	0.120563	1.614507	-1.577413	-0.919189	-0.334473	-0.245605	-0.465660	-0.376830	0.133199	-0.789568	11.674437	-45.981633	113.971272	-0.282318	0.634954	0.719117	-0.835728	-0.530837	0.140611	0.471015	-0.561289	0.680514	0	0	0
57997	0	0	0	0	0	2.452694	1.417325	10.647827	0.121349	1.722715	-1.667983	-0.904297	-0.346436	-0.255127	-0.473078	-0.371423	0.125512	-0.788980	12.486563	-44.816978	112.939909	-0.276485	0.653261	0.704844	-0.839733	-0.520889	0.153372	0.467337	-0.549476	0.692583	0	0	0
57998	0	0	0	0	0	2.857570	1.396081	10.292611	0.097662	1.786807	-1.771741	-0.886963	-0.367188	-0.273193	-0.480989	-0.365709	0.117597	-0.788085	13.286940	-43.594090	111.872737	-0.269814	0.672107	0.689545	-0.844132	-0.509642	0.166451	0.463294	-0.537156	0.704856	0	0	0
57999	0	0	0	0	0	3.310962	1.302070	10.023467	0.090209	1.767568	-1.879457	-0.877930	-0.379639	-0.281738	-0.489179	-0.360059	0.109499	-0.786811	14.094452	-42.355245	110.775482	-0.262122	0.690931	0.673725	-0.848635	-0.497427	0.179958	0.459468	-0.524576	0.716735	0	0	0
58000	0	0	0	0	0	4.253452	1.534740	9.968106	0.050737	1.718411	-1.980577	-0.859619	-0.393555	-0.295166	-0.497798	-0.354497	0.101519	-0.784999	14.887647	-41.119412	109.628194	-0.253058	0.709566	0.657631	-0.853518	-0.483782	0.193552	0.455488	-0.512319	0.728052	0	0	0
58001	0	0	0	0	0	5.147827	1.700490	9.902393	-0.015687	1.674392	-2.067325	-0.852051	-0.416504	-0.308594	-0.506695	-0.348928	0.093697	-0.782771	15.642940	-39.882280	108.463156	-0.243020	0.727865	0.641212	-0.858639	-0.468963	0.206913	0.451310	-0.500286	0.738941	0	0	0
58002	0	0	0	0	0	5.869778	1.785051	9.710997	-0.084953	1.630232	-2.119859	-0.837891	-0.429443	-0.326904	-0.515878	-0.343314	0.086191	-0.780113	16.341890	-38.651019	107.282503	-0.232012	0.745705	0.624575	-0.864067	-0.452883	0.219739	0.446720	-0.488693	0.749414	0	0	0
58003	0	0	0	0	0	6.504255	1.752284	9.411413	-0.125476	1.587065	-2.138327	-0.817383	-0.439697	-0.344238	-0.525022	-0.337712	0.078868	-0.777228	16.987973	-37.428644	106.129075	-0.220606	0.762853	0.607773	-0.869392	-0.436265	0.232016	0.442144	-0.477209	0.759461	0	0	0
58004	0	0	0	0	0	6.807433	1.684938	9.137639	-0.125812	1.529403	-2.132612	-0.807129	-0.454346	-0.342529	-0.534099	-0.332270	0.071733	-0.774073	17.597757	-36.229948	104.992125	-0.208670	0.779194	0.591027	-0.874533	-0.419185	0.243877	0.437777	-0.465983	0.768902	0	0	0
58005	0	0	0	0	0	7.218341	1.492056	8.728161	-0.106457	1.452554	-2.101294	-0.783203	-0.473877	-0.356445	-0.542831	-0.327107	0.064734	-0.770808	18.177643	-35.068327	103.903777	-0.196671	0.794487	0.574553	-0.879187	-0.402288	0.255333	0.433994	-0.454923	0.777621	0	0	0
58006	0	0	0	0	0	7.312804	1.603287	8.257761	-0.053097	1.345730	-2.033028	-0.770996	-0.480225	-0.372803	-0.551168	-0.322429	0.057956	-0.767394	18.742225	-33.969243	102.854376	-0.184506	0.808553	0.558748	-0.883300	-0.385709	0.266475	0.430974	-0.444376	0.785361	0	0	0
58007	0	0	0	0	0	7.351907	1.494859	7.659841	0.015064	1.191408	-1.955740	-0.750977	-0.500977	-0.386475	-0.558907	-0.318460	0.051422	-0.763912	19.306665	-32.958480	101.857678	-0.172412	0.821160	0.544031	-0.886664	-0.369957	0.277415	0.429071	-0.434543	0.791878	0	0	0
58008	0	0	0	0	0	7.428152	1.514304	7.145209	0.105393	0.968776	-1.862231	-0.736816	-0.506348	-0.387939	-0.566091	-0.315534	0.045344	-0.760213	19.891982	-32.078722	100.881795	-0.159960	0.832083	0.531084	-0.889314	-0.354971	0.288299	0.428408	-0.426184	0.796765	0	0	0
58009	0	0	0	0	0	7.682750	1.635629	6.620929	0.159438	0.699523	-1.750418	-0.726318	-0.517822	-0.389648	-0.572580	-0.313721	0.039958	-0.756396	20.482262	-31.355914	99.943844	-0.147463	0.841123	0.520353	-0.891266	-0.341111	0.298812	0.428836	-0.419709	0.799965	0	0	0
58010	0	0	0	0	0	7.904201	1.951662	6.254040	0.167644	0.397920	-1.595320	-0.715088	-0.534668	-0.393311	-0.578431	-0.313022	0.035682	-0.752437	21.047589	-30.819659	99.035618	-0.134871	0.848127	0.512338	-0.892804	-0.328290	0.308427	0.429780	-0.415819	0.801488	0	0	0
58011	0	0	0	0	0	8.257520	2.184640	6.066237	0.104333	0.091814	-1.392514	-0.708252	-0.527832	-0.387695	-0.583463	-0.313231	0.032807	-0.748586	21.539181	-30.480438	98.199692	-0.122913	0.852992	0.507244	-0.894097	-0.316988	0.316400	0.430677	-0.414636	0.801620	0	0	0
58012	0	0	0	0	0	8.772707	2.187303	6.071784	0.055703	-0.145887	-1.170416	-0.696777	-0.545410	-0.388184	-0.587743	-0.314144	0.031191	-0.744915	21.957255	-30.310531	97.437079	-0.111744	0.856040	0.504686	-0.895235	-0.307171	0.322802	0.431356	-0.415742	0.800681	0	0	0
58013	0	0	0	0	0	9.236826	2.141842	6.014450	0.035061	-0.303187	-0.950750	-0.698242	-0.543945	-0.382568	-0.591130	-0.315532	0.030423	-0.741673	22.312838	-30.265728	96.782881	-0.102009	0.857652	0.504011	-0.896049	-0.299279	0.327914	0.432076	-0.418169	0.799028	0	0	0
58014	0	0	0	0	0	9.338495	2.314950	5.838180	-0.012264	-0.404785	-0.722227	-0.695313	-0.548096	-0.383057	-0.593781	-0.317122	0.030526	-0.738868	22.583600	-30.322954	96.232787	-0.093715	0.858091	0.504873	-0.896812	-0.292984	0.331493	0.432371	-0.421711	0.797004	0	0	0
58015	0	0	0	0	0	9.576584	2.297369	5.753608	-0.076372	-0.477313	-0.534574	-0.692627	-0.561035	-0.381348	-0.595756	-0.318750	0.031342	-0.736539	22.769941	-30.456795	95.788859	-0.086945	0.857616	0.506888	-0.897577	-0.288184	0.333626	0.432200	-0.425964	0.794832	0	0	0
58016	0	0	0	0	0	9.489202	2.426972	5.683131	-0.110614	-0.477164	-0.452811	-0.693848	-0.550781	-0.372070	-0.597542	-0.320265	0.032450	-0.734385	22.912823	-30.608900	95.383447	-0.080748	0.856867	0.509175	-0.898437	-0.283781	0.335082	0.431615	-0.430404	0.792755	0	0	0
58017	0	0	0	0	0	9.353245	3.094827	5.808532	-0.208127	-0.459536	-0.432091	-0.688965	-0.548096	-0.373535	-0.599340	-0.321411	0.033860	-0.732352	22.992288	-30.754460	95.004866	-0.074971	0.856090	0.511360	-0.899622	-0.279289	0.335675	0.430185	-0.434865	0.791096	0	0	0
58018	0	0	0	0	0	9.351057	3.306946	5.731586	-0.418407	-0.416250	-0.441441	-0.685547	-0.553223	-0.374756	-0.601574	-0.321772	0.035931	-0.730260	22.949647	-30.876183	94.620711	-0.069142	0.855489	0.513185	-0.901735	-0.273634	0.334662	0.426724	-0.439617	0.790344	0	0	0
58019	0	0	0	0	0	8.767974	2.796090	5.607299	-0.603505	-0.359600	-0.471051	-0.690186	-0.559570	-0.371094	-0.604152	-0.321365	0.038424	-0.728182	22.803316	-30.960836	94.243343	-0.063450	0.855169	0.514452	-0.904561	-0.267048	0.332348	0.421597	-0.444266	0.790496	0	0	0
58020	0	0	0	0	0	8.527712	1.735341	5.524578	-0.682891	-0.331359	-0.499640	-0.679688	-0.560791	-0.375000	-0.607018	-0.320619	0.041109	-0.725977	22.617394	-31.026316	93.845145	-0.057466	0.855002	0.515432	-0.907723	-0.259679	0.329555	0.415616	-0.448931	0.791027	0	0	0
58021	0	0	0	0	0	7.950984	0.716406	5.308729	-0.626357	-0.320598	-0.514278	-0.682617	-0.556152	-0.376953	-0.609774	-0.319999	0.043497	-0.723799	22.467337	-31.082850	93.451091	-0.051554	0.854869	0.516277	-0.910545	-0.252568	0.327287	0.410183	-0.453221	0.791417	0	0	0
58022	0	0	0	0	0	7.376840	0.261600	5.136563	-0.470802	-0.388605	-0.468057	-0.686768	-0.560303	-0.369629	-0.612151	-0.320087	0.045638	-0.721618	22.401346	-31.187197	93.057591	-0.045631	0.854262	0.517836	-0.912695	-0.246377	0.326017	0.406086	-0.457750	0.790923	0	0	0
58023	0	0	0	0	0	7.563391	0.118148	4.893906	-0.326861	-0.468389	-0.354878	-0.674561	-0.565186	-0.365967	-0.613801	-0.320871	0.047650	-0.719736	22.392863	-31.357770	92.723813	-0.040580	0.852970	0.520380	-0.914128	-0.241956	0.325311	0.403389	-0.462493	0.789542	0	0	0
58024	0	0	0	0	0	7.703883	0.204721	4.569641	-0.197569	-0.528394	-0.211724	-0.688232	-0.556885	-0.366455	-0.614770	-0.322233	0.049644	-0.718164	22.421698	-31.592305	92.452354	-0.036447	0.851017	0.523872	-0.915005	-0.239186	0.324893	0.401792	-0.467504	0.787403	0	0	0
58025	0	0	0	0	0	7.987775	0.316602	4.187558	-0.119473	-0.575909	-0.068454	-0.691895	-0.555176	-0.368896	-0.615020	-0.323965	0.051701	-0.717025	22.456081	-31.882318	92.267408	-0.033595	0.848470	0.528176	-0.915467	-0.238156	0.324348	0.400988	-0.472632	0.784747	0	0	0
58026	0	0	0	0	0	7.804780	0.636751	3.871569	-0.073736	-0.620973	0.052420	-0.698242	-0.562988	-0.368408	-0.614807	-0.325967	0.053961	-0.716133	22.484383	-32.223460	92.135031	-0.031517	0.845388	0.533223	-0.915745	-0.238202	0.323528	0.400521	-0.478100	0.781667	0	0	0
58027	0	0	0	0	0	8.170532	0.620215	3.351984	-0.042401	-0.709487	0.116614	-0.697998	-0.557129	-0.358643	-0.614282	-0.328356	0.056480	-0.715297	22.522257	-32.624659	92.019559	-0.029680	0.841697	0.539133	-0.915879	-0.238935	0.322606	0.400355	-0.484206	0.777985	0	0	0
58028	0	0	0	0	0	7.827281	0.707005	2.473680	0.075935	-0.776762	0.096913	-0.701416	-0.554932	-0.350830	-0.613605	-0.331355	0.058754	-0.714311	22.645853	-33.057782	91.872428	-0.027385	0.837673	0.545485	-0.915547	-0.240073	0.322705	0.401278	-0.490579	0.773504	0	0	0
58029	0	0	0	0	0	7.494756	1.526297	1.593742	0.143222	-0.912497	0.082764	-0.708008	-0.562256	-0.346191	-0.612817	-0.335038	0.061176	-0.713066	22.834593	-33.558444	91.678579	-0.024410	0.832965	0.552787	-0.914950	-0.241426	0.323389	0.402829	-0.497879	0.768014	0	0	0
58030	0	0	0	0	0	7.466661	1.758585	0.971270	0.120071	-1.077663	0.051549	-0.705811	-0.551270	-0.341064	-0.612112	-0.339245	0.064136	-0.711420	23.049533	-34.139422	91.416742	-0.020464	0.827421	0.561209	-0.914453	-0.242411	0.324057	0.404175	-0.506567	0.761598	0	0	0
58031	0	0	0	0	0	7.511896	1.914718	0.400465	0.077630	-1.253934	-0.003149	-0.710205	-0.560059	-0.332031	-0.611596	-0.343951	0.067689	-0.709272	23.291971	-34.799425	91.067374	-0.015297	0.821012	0.570705	-0.914139	-0.242737	0.324698	0.405113	-0.516737	0.754232	0	0	0
58032	0	0	0	0	0	8.163464	1.873679	-0.041996	-0.007072	-1.413272	-0.048695	-0.713135	-0.558350	-0.321777	-0.611305	-0.348967	0.071951	-0.706648	23.535759	-35.532229	90.637583	-0.009056	0.813738	0.581161	-0.914172	-0.242258	0.324963	0.405226	-0.528338	0.746090	0	0	0
58033	0	0	0	0	0	8.514160	1.242539	-0.922730	-0.155652	-1.517572	-0.049699	-0.725830	-0.563721	-0.309326	-0.611146	-0.353882	0.077017	-0.703802	23.720914	-36.317720	90.180407	-0.002537	0.805741	0.592262	-0.914761	-0.241138	0.324137	0.403987	-0.540956	0.737672	0	0	0
58034	0	0	0	0	0	8.981281	-0.021849	-2.080315	-0.230360	-1.651638	0.026488	-0.727539	-0.556885	-0.306885	-0.610821	-0.358985	0.082919	-0.700822	23.866974	-37.190522	89.716251	0.003945	0.796620	0.604467	-0.915687	-0.240044	0.322328	0.401872	-0.554775	0.728508	0	0	0
58035	0	0	0	0	0	9.516403	-0.746947	-3.114281	-0.183844	-1.780706	0.153543	-0.729736	-0.558105	-0.297852	-0.609868	-0.364600	0.089273	-0.697967	24.022438	-38.159103	89.289899	0.009745	0.786238	0.617847	-0.916433	-0.240183	0.320098	0.400069	-0.569335	0.718194	0	0	0
58036	0	0	0	0	0	9.903815	-1.026456	-4.061260	-0.098843	-1.892482	0.306609	-0.743164	-0.554443	-0.274170	-0.608123	-0.370768	0.095943	-0.695351	24.195600	-39.221361	88.922781	0.014564	0.774572	0.632318	-0.916863	-0.241963	0.317517	0.398937	-0.584373	0.706652	0	0	0
58037	0	0	0	0	0	10.315853	-1.015058	-4.881082	0.072337	-2.047487	0.451855	-0.752197	-0.554443	-0.263184	-0.605419	-0.377886	0.102749	-0.692901	24.446496	-40.397563	88.595946	0.018661	0.761337	0.648088	-0.916647	-0.245820	0.315169	0.399263	-0.599948	0.693290	0	0	0
58038	0	0	0	0	0	10.804970	-0.691537	-5.743328	0.223344	-2.200744	0.556209	-0.768799	-0.552246	-0.246582	-0.601917	-0.385894	0.109681	-0.690472	24.783219	-41.677387	88.278469	0.022438	0.746564	0.664936	-0.915864	-0.251331	0.313090	0.400861	-0.616016	0.678111	0	0	0
58039	0	0	0	0	0	14.685554	7.157951	-5.182710	0.164382	-2.251954	0.510226	-0.768311	-0.540771	-0.234619	-0.598580	-0.393876	0.116868	-0.687681	25.135622	-42.971250	87.895238	0.026873	0.731202	0.681631	-0.915328	-0.256087	0.310797	0.401812	-0.632268	0.662408	0	0	0
58040	0	0	0	0	0	26.438474	26.802508	21.613358	-1.666927	-1.418988	0.628789	-0.779053	-0.538330	-0.230957	-0.598850	-0.393392	0.128076	-0.685725	24.195858	-43.861157	87.873361	0.026756	0.720524	0.692913	-0.922060	-0.249951	0.295516	0.386121	-0.646814	0.657679	0	0	0
58041	0	0	0	0	0	18.241374	0.732323	20.902542	-2.663919	3.561598	-0.143271	-0.769287	-0.531006	-0.266602	-0.606729	-0.373220	0.126231	-0.690400	21.999487	-41.952837	88.857643	0.014827	0.743548	0.668519	-0.931996	-0.231891	0.278587	0.362166	-0.627187	0.689545	0	0	0
58042	0	0	0	0	0	5.721130	4.416596	15.037599	0.084634	2.904963	0.377623	-0.769287	-0.521484	-0.290283	-0.607053	-0.363190	0.117818	-0.696921	21.337158	-40.486802	89.936712	0.000840	0.760555	0.649273	-0.931716	-0.235212	0.276732	0.363187	-0.605170	0.708424	0	0	0
58043	0	0	0	0	0	8.095484	5.969932	8.087416	-1.002599	2.831637	0.502259	-0.757080	-0.521973	-0.308838	-0.608738	-0.349962	0.113616	-0.702891	20.064567	-39.071875	91.028089	-0.013930	0.776231	0.630295	-0.935275	-0.233060	0.266351	0.353646	-0.585789	0.729236	0	0	0
58044	0	0	0	0	0	12.564565	-1.935054	6.877025	-0.346623	2.275703	0.644613	-0.750244	-0.514893	-0.326172	-0.608346	-0.340537	0.109028	-0.708564	19.243378	-37.969221	92.028157	-0.027900	0.787848	0.615238	-0.936359	-0.236057	0.259823	0.349932	-0.568835	0.744294	0	0	0
58045	0	0	0	0	0	6.630854	3.879130	9.429068	-0.072964	1.713807	0.534454	-0.747559	-0.509521	-0.340576	-0.607504	-0.333958	0.104981	-0.713015	18.736504	-37.141584	92.791508	-0.038822	0.796200	0.603787	-0.936437	-0.239837	0.256056	0.348682	-0.555467	0.754902	0	0	0
58046	0	0	0	0	0	5.070001	-2.634787	10.841929	-0.039711	1.064259	0.209036	-0.744141	-0.515625	-0.354004	-0.607392	-0.329948	0.102238	-0.715372	18.485866	-36.603064	93.171786	-0.044418	0.801556	0.596268	-0.936488	-0.241244	0.254540	0.347874	-0.547092	0.761363	0	0	0
58047	0	0	0	0	0	4.951764	-3.800557	10.929149	0.321499	0.439087	-0.288072	-0.739258	-0.511475	-0.352295	-0.608132	-0.329519	0.099281	-0.715358	18.729394	-36.313204	93.072280	-0.043187	0.804634	0.592199	-0.935493	-0.240639	0.258739	0.350696	-0.542824	0.763122	0	0	0
58048	0	0	0	0	0	5.131870	-2.535634	9.785326	0.657342	-0.063311	-0.790117	-0.738281	-0.526611	-0.344238	-0.609853	-0.332151	0.095820	-0.713144	19.431665	-36.200613	92.522165	-0.035511	0.806172	0.590614	-0.933479	-0.237796	0.268459	0.356870	-0.541793	0.760989	0	0	0
58049	0	0	0	0	0	5.877302	-0.301480	8.216279	0.883577	-0.370730	-1.102714	-0.730225	-0.526123	-0.341553	-0.612141	-0.336704	0.091969	-0.709546	20.428430	-36.186063	91.691682	-0.023827	0.806752	0.590409	-0.930617	-0.233649	0.281709	0.365218	-0.542733	0.756344	0	0	0
58050	0	0	0	0	0	5.811606	2.619592	7.319420	0.836530	-0.504732	-1.175871	-0.727295	-0.541992	-0.329834	-0.614672	-0.341605	0.088564	-0.705436	21.447114	-36.216388	90.778955	-0.010968	0.806717	0.590836	-0.927732	-0.228668	0.294997	0.373085	-0.544903	0.750925	0	0	0
58051	0	0	0	0	0	5.545003	5.866664	6.996333	0.484669	-0.565514	-0.999139	-0.723877	-0.553955	-0.328369	-0.617124	-0.345542	0.086887	-0.701576	22.205901	-36.305342	89.965684	0.000483	0.805873	0.592088	-0.925966	-0.223217	0.304569	0.377608	-0.548400	0.746103	0	0	0
58052	0	0	0	0	0	6.320207	6.562300	6.041047	0.293769	-0.412349	-0.685451	-0.721924	-0.554443	-0.321289	-0.618854	-0.348208	0.085945	-0.698845	22.710833	-36.374536	89.398136	0.008458	0.805113	0.593061	-0.924819	-0.219267	0.310856	0.380312	-0.551104	0.742730	0	0	0
58053	0	0	0	0	0	6.516324	7.510520	5.707530	0.219515	-0.114420	-0.312205	-0.727539	-0.560059	-0.323486	-0.619530	-0.349438	0.084990	-0.697748	22.979761	-36.366437	89.156934	0.011848	0.805154	0.592947	-0.923949	-0.217919	0.314371	0.382332	-0.551578	0.741340	0	0	0
58054	0	0	0	0	0	6.017614	7.891105	6.014287	0.058267	0.227617	0.039754	-0.717041	-0.559326	-0.325195	-0.619403	-0.348825	0.084152	-0.698268	22.963548	-36.256101	89.241190	0.010679	0.806311	0.591396	-0.923728	-0.218516	0.314606	0.382900	-0.549648	0.742479	0	0	0
58055	0	0	0	0	0	6.354125	5.876379	5.612144	-0.160331	0.583935	0.284719	-0.721680	-0.561279	-0.318604	-0.618949	-0.346187	0.083401	-0.700073	22.670261	-36.011910	89.583116	0.005885	0.808873	0.587953	-0.924363	-0.219893	0.311770	0.381470	-0.545317	0.746398	0	0	0
58056	0	0	0	0	0	6.435883	4.097577	6.052167	-0.302040	0.919109	0.394752	-0.726563	-0.555908	-0.331787	-0.618482	-0.341884	0.082297	-0.702725	22.204492	-35.612372	90.083869	-0.001190	0.812974	0.582299	-0.925518	-0.221413	0.307234	0.378702	-0.538562	0.752686	0	0	0
58057	0	0	0	0	0	6.238141	2.912044	6.437044	-0.402884	1.163114	0.388340	-0.714355	-0.546875	-0.339600	-0.618290	-0.336403	0.080779	-0.705709	21.653801	-35.078282	90.637166	-0.009101	0.818317	0.574695	-0.927015	-0.222384	0.301976	0.374914	-0.530003	0.760616	0	0	0
58058	0	0	0	0	0	6.643933	1.737893	6.776644	-0.495919	1.342127	0.286032	-0.709229	-0.542480	-0.351074	-0.618659	-0.330028	0.078860	-0.708607	21.072474	-34.422790	91.159043	-0.016686	0.824720	0.565295	-0.928824	-0.222085	0.296588	0.370145	-0.520111	0.769725	0	0	0
58059	0	0	0	0	0	6.751713	0.027681	6.900106	-0.454551	1.486088	0.072311	-0.712891	-0.540771	-0.378906	-0.619738	-0.323337	0.075993	-0.711058	20.584307	-33.642812	91.566326	-0.022756	0.832196	0.554014	-0.930482	-0.220299	0.292697	0.365631	-0.508839	0.779357	0	0	0
58060	0	0	0	0	0	5.350003	0.362648	8.897942	-0.318643	1.423354	-0.124053	-0.709961	-0.539795	-0.372070	-0.621237	-0.317346	0.072514	-0.712810	20.261710	-32.854772	91.822253	-0.026713	0.839624	0.542512	-0.931672	-0.217613	0.290916	0.362317	-0.497672	0.788067	0	0	0
58061	0	0	0	0	0	3.063307	0.992779	11.485994	-0.028485	0.888731	-0.242374	-0.704346	-0.545654	-0.391113	-0.622480	-0.314193	0.069473	-0.713425	20.218752	-32.330139	91.872029	-0.027603	0.844530	0.534797	-0.931841	-0.215384	0.292030	0.361815	-0.490285	0.792913	0	0	0
58062	0	0	0	0	0	1.851000	3.911573	11.196477	0.118362	0.073144	-0.130170	-0.698975	-0.540039	-0.385254	-0.622802	-0.314363	0.068620	-0.713151	20.324396	-32.266020	91.801790	-0.026587	0.845161	0.533851	-0.931447	-0.214818	0.293699	0.362904	-0.489446	0.792934	0	0	0
58063	0	0	0	0	0	4.325967	4.131028	8.147615	0.071454	-0.267460	-0.018681	-0.698975	-0.544189	-0.384521	-0.622682	-0.315563	0.069172	-0.712672	20.408080	-32.407045	91.722181	-0.025373	0.843881	0.535931	-0.931193	-0.214964	0.294398	0.363642	-0.491585	0.791270	0	0	0
58064	0	0	0	0	0	5.791255	3.194710	7.015186	0.021608	-0.191328	0.032626	-0.701904	-0.549561	-0.384033	-0.622484	-0.316319	0.069744	-0.712455	20.436448	-32.517323	91.692948	-0.024912	0.842861	0.537555	-0.931106	-0.215299	0.294429	0.363897	-0.493186	0.790156	0	0	0
58065	0	0	0	0	0	5.183335	3.249556	7.165419	0.010850	-0.080803	0.053064	-0.701172	-0.544434	-0.383301	-0.622268	-0.316640	0.070043	-0.712471	20.437468	-32.572399	91.702938	-0.025043	0.842340	0.538365	-0.931053	-0.215753	0.294262	0.364022	-0.493877	0.789666	0	0	0
58066	0	0	0	0	0	5.549939	3.078987	7.268467	-0.020267	0.038391	0.073904	-0.704102	-0.536377	-0.379883	-0.622069	-0.316432	0.070115	-0.712731	20.398413	-32.567581	91.754466	-0.025802	0.842362	0.538294	-0.931108	-0.216229	0.293740	0.363830	-0.493631	0.789909	0	0	0
58067	0	0	0	0	0	5.282023	3.926022	7.358407	-0.027231	0.174485	0.154096	-0.692627	-0.545166	-0.377930	-0.621642	-0.315689	0.069915	-0.713452	20.310492	-32.505649	91.889269	-0.027803	0.842880	0.537383	-0.931166	-0.217346	0.292729	0.363534	-0.492254	0.790904	0	0	0
58068	0	0	0	0	0	5.258104	4.504976	7.229822	-0.125920	0.319122	0.308305	-0.700928	-0.534912	-0.379639	-0.620869	-0.314069	0.069861	-0.714844	20.095576	-32.396097	92.155896	-0.031764	0.843767	0.535769	-0.931531	-0.219282	0.290113	0.362272	-0.489871	0.792960	0	0	0
58069	0	0	0	0	0	5.283944	2.692530	7.586302	-0.167613	0.397101	0.430938	-0.708984	-0.538574	-0.389648	-0.619747	-0.311995	0.069906	-0.716719	19.806182	-32.267593	92.517824	-0.037146	0.844748	0.533874	-0.931989	-0.222054	0.286510	0.360578	-0.486922	0.795544	0	0	0
58070	0	0	0	0	0	5.024215	2.639249	8.101847	-0.140120	0.291831	0.369873	-0.698486	-0.538330	-0.388672	-0.618759	-0.310404	0.070082	-0.718245	19.567384	-32.182625	92.815644	-0.041575	0.845333	0.532620	-0.932348	-0.224453	0.283457	0.359164	-0.484802	0.797476	0	0	0
58071	0	0	0	0	0	5.346655	2.461180	8.220796	-0.124310	0.170899	0.281805	-0.702393	-0.534668	-0.394775	-0.618017	-0.309324	0.070440	-0.719313	19.382560	-32.145286	93.029425	-0.044747	0.845518	0.532068	-0.932673	-0.226186	0.280998	0.357936	-0.483672	0.798714	0	0	0
58072	0	0	0	0	0	5.098483	2.972730	7.995308	-0.152385	0.076466	0.226058	-0.702393	-0.527100	-0.392822	-0.617485	-0.308516	0.071103	-0.720052	19.212083	-32.147839	93.186285	-0.047060	0.845369	0.532106	-0.933115	-0.227314	0.278613	0.356486	-0.483404	0.799524	0	0	0
58073	0	0	0	0	0	5.221183	2.697013	8.067974	-0.183635	0.013939	0.177536	-0.707031	-0.538818	-0.397705	-0.617152	-0.307854	0.071998	-0.720532	19.047443	-32.174794	93.298306	-0.048699	0.845025	0.532504	-0.933684	-0.227880	0.276232	0.354770	-0.483738	0.800084	0	0	0
58074	0	0	0	0	0	5.180552	2.079413	8.086612	-0.137222	-0.027664	0.130067	-0.707031	-0.531738	-0.395752	-0.616903	-0.307502	0.072779	-0.720817	18.930456	-32.215152	93.370867	-0.049747	0.844588	0.533100	-0.934107	-0.228268	0.274476	0.353509	-0.484318	0.800292	0	0	0
58075	0	0	0	0	0	5.176811	2.455518	7.905642	-0.136038	-0.036490	0.098237	-0.705566	-0.528076	-0.391602	-0.616763	-0.307196	0.073536	-0.720990	18.825838	-32.254328	93.421244	-0.050468	0.844180	0.533678	-0.934540	-0.228391	0.272897	0.352262	-0.484971	0.800446	0	0	0
58076	0	0	0	0	0	5.452676	2.138443	7.882924	-0.119342	-0.023281	0.076781	-0.708008	-0.529053	-0.396973	-0.616680	-0.306902	0.074157	-0.721123	18.736634	-32.282256	93.460808	-0.051035	0.843885	0.534091	-0.934922	-0.228414	0.271567	0.351165	-0.485473	0.800624	0	0	0
58077	0	0	0	0	0	5.461245	2.055760	8.066856	-0.075504	-0.030758	0.052691	-0.710205	-0.522461	-0.403809	-0.616613	-0.306778	0.074608	-0.721186	18.681511	-32.309827	93.483364	-0.051351	0.843609	0.534497	-0.935161	-0.228445	0.270714	0.350480	-0.485940	0.800641	0	0	0
58078	0	0	0	0	0	5.368943	2.300352	8.151442	-0.043809	-0.023414	0.045845	-0.718018	-0.522705	-0.402100	-0.616524	-0.306729	0.074910	-0.721251	18.646145	-32.332086	93.503119	-0.051630	0.843384	0.534826	-0.935292	-0.228572	0.270154	0.350089	-0.486270	0.800611	0	0	0
58079	0	0	0	0	0	5.393679	2.628131	7.881129	-0.040336	-0.014964	0.040918	-0.719482	-0.518311	-0.403320	-0.616452	-0.306661	0.075168	-0.721315	18.613331	-32.348903	93.521592	-0.051892	0.843210	0.535074	-0.935414	-0.228674	0.269645	0.349725	-0.486523	0.800617	0	0	0
58080	0	0	0	0	0	5.216528	2.704549	7.867078	-0.045662	0.010504	0.036869	-0.712402	-0.534912	-0.399658	-0.616411	-0.306487	0.075358	-0.721404	18.576037	-32.351083	93.542950	-0.052205	0.843170	0.535106	-0.935556	-0.228716	0.269117	0.349299	-0.486572	0.800773	0	0	0
58081	0	0	0	0	0	5.311048	2.744745	7.790106	-0.045868	0.018426	0.041707	-0.708740	-0.521973	-0.399658	-0.616357	-0.306282	0.075534	-0.721519	18.535908	-32.349887	93.569165	-0.052591	0.843158	0.535088	-0.935696	-0.228798	0.268560	0.348865	-0.486556	0.800972	0	0	0
58082	0	0	0	0	0	5.238296	3.025979	7.602212	-0.052063	0.043042	0.071290	-0.707764	-0.520752	-0.402344	-0.616214	-0.305958	0.075700	-0.721761	18.479355	-32.340621	93.619666	-0.053340	0.843197	0.534951	-0.935841	-0.229099	0.267797	0.348362	-0.486345	0.801319	0	0	0
58083	0	0	0	0	0	5.111289	3.040974	7.675547	-0.083179	0.075769	0.092559	-0.705811	-0.521240	-0.395264	-0.616055	-0.305411	0.075911	-0.722107	18.393799	-32.317426	93.690877	-0.054402	0.843346	0.534609	-0.936083	-0.229429	0.266668	0.347548	-0.485931	0.801923	0	0	0
58084	0	0	0	0	0	5.107668	2.711207	7.875904	-0.079854	0.097220	0.102950	-0.698975	-0.520752	-0.394043	-0.615860	-0.304793	0.076059	-0.722518	18.304323	-32.284290	93.773254	-0.055635	0.843576	0.534121	-0.936305	-0.229863	0.265512	0.346754	-0.485328	0.802632	0	0	0
58085	0	0	0	0	0	5.226402	2.984595	7.919486	-0.109670	0.108391	0.139831	-0.709961	-0.518311	-0.397949	-0.615582	-0.304029	0.076337	-0.723048	18.183798	-32.251618	93.881663	-0.057251	0.843773	0.533638	-0.936607	-0.230464	0.263918	0.345671	-0.484700	0.803478	0	0	0
58086	0	0	0	0	0	4.783076	2.945815	8.020697	-0.115813	0.101792	0.203027	-0.714355	-0.512207	-0.407227	-0.615081	-0.303245	0.076753	-0.723759	18.039015	-32.233528	94.029222	-0.059436	0.843790	0.533371	-0.936890	-0.231569	0.261939	0.344534	-0.484142	0.804303	0	0	0
58087	0	0	0	0	0	5.375677	2.854823	7.928860	-0.194041	0.087892	0.217439	-0.712646	-0.520020	-0.402588	-0.614640	-0.302265	0.077517	-0.724462	17.845963	-32.225241	94.183111	-0.061708	0.843705	0.533249	-0.937428	-0.232418	0.259252	0.342668	-0.483884	0.805254	0	0	0
58088	0	0	0	0	0	5.027876	2.206702	8.090282	-0.178149	0.077830	0.204180	-0.704834	-0.507080	-0.406738	-0.614218	-0.301375	0.078234	-0.725113	17.667840	-32.219655	94.326297	-0.063820	0.843600	0.533167	-0.937910	-0.233232	0.256763	0.340957	-0.483676	0.806106	0	0	0
58089	0	0	0	0	0	5.133524	2.067998	8.090342	-0.131341	0.043433	0.166882	-0.715088	-0.516846	-0.416504	-0.613846	-0.300767	0.078831	-0.725616	17.533022	-32.226110	94.438373	-0.065465	0.843413	0.533262	-0.938252	-0.233958	0.254847	0.339702	-0.483650	0.806650	0	0	0
58090	0	0	0	0	0	5.217587	2.278580	7.918194	-0.123647	0.032048	0.138495	-0.715088	-0.506592	-0.406250	-0.613560	-0.300235	0.079391	-0.726016	17.413721	-32.233646	94.529787	-0.066805	0.843238	0.533373	-0.938582	-0.234481	0.253146	0.338528	-0.483703	0.807112	0	0	0
58091	0	0	0	0	0	5.205913	2.420379	7.999759	-0.110086	0.032230	0.118040	-0.712891	-0.505615	-0.406982	-0.613328	-0.299751	0.079872	-0.726359	17.309078	-32.237480	94.608072	-0.067955	0.843110	0.533430	-0.938877	-0.234897	0.251661	0.337479	-0.483723	0.807539	0	0	0
58092	0	0	0	0	0	5.208117	2.393416	7.907253	-0.090203	0.039381	0.117741	-0.719482	-0.506348	-0.410156	-0.613070	-0.299303	0.080257	-0.726719	17.215282	-32.237190	94.687576	-0.069125	0.843018	0.533425	-0.939103	-0.235407	0.250339	0.336613	-0.483637	0.807953	0	0	0
58093	0	0	0	0	0	5.234085	2.340822	7.966424	-0.076379	0.037706	0.101748	-0.715820	-0.509033	-0.410889	-0.612849	-0.298910	0.080574	-0.727033	17.134981	-32.235054	94.756429	-0.070139	0.842954	0.533394	-0.939291	-0.235849	0.249213	0.335875	-0.483533	0.808322	0	0	0
58094	0	0	0	0	0	5.053651	2.076514	7.999168	-0.046669	0.046327	0.086314	-0.716064	-0.507324	-0.403564	-0.612642	-0.298582	0.080733	-0.727324	17.076253	-32.225480	94.816964	-0.071037	0.842968	0.533253	-0.939390	-0.236304	0.248410	0.335412	-0.483285	0.808662	0	0	0
58095	0	0	0	0	0	5.316798	1.782984	7.922394	0.034196	0.033387	0.046830	-0.715576	-0.506348	-0.411133	-0.612453	-0.298565	0.080579	-0.727508	17.078739	-32.216369	94.849390	-0.071522	0.843012	0.533118	-0.939244	-0.236818	0.248470	0.335715	-0.482957	0.808732	0	0	0
58096	0	0	0	0	0	5.220800	1.694779	8.007139	0.125788	0.050229	-0.005308	-0.712646	-0.498291	-0.404053	-0.612323	-0.298788	0.079961	-0.727594	17.150039	-32.189218	94.851394	-0.071572	0.843261	0.532717	-0.938828	-0.237333	0.249551	0.336868	-0.482269	0.808664	0	0	0
58097	0	0	0	0	0	5.210665	2.169588	7.945979	0.209357	0.073806	-0.033084	-0.716797	-0.507813	-0.419922	-0.612178	-0.299192	0.078927	-0.727662	17.276087	-32.144503	94.840261	-0.071444	0.843689	0.532056	-0.938147	-0.238016	0.251453	0.338786	-0.481182	0.808509	0	0	0
58098	0	0	0	0	0	5.172607	2.571896	8.238205	0.216124	0.104772	-0.026452	-0.704590	-0.510254	-0.410645	-0.612011	-0.299501	0.077783	-0.727799	17.400496	-32.083918	94.839731	-0.071483	0.844250	0.531161	-0.937434	-0.238785	0.253376	0.340745	-0.479816	0.808498	0	0	0
58099	0	0	0	0	0	5.320844	2.912146	7.853413	0.110018	0.096329	0.027069	-0.709717	-0.510498	-0.406250	-0.611804	-0.299495	0.077131	-0.728045	17.446479	-32.037174	94.872168	-0.071998	0.844641	0.530469	-0.937042	-0.239494	0.254154	0.341713	-0.478774	0.808708	0	0	0
58100	0	0	0	0	0	4.997902	2.898917	7.873944	0.062727	0.082516	0.068604	-0.706299	-0.507080	-0.406738	-0.611511	-0.299378	0.076755	-0.728379	17.452822	-32.005084	94.928547	-0.072855	0.844866	0.529995	-0.936781	-0.240327	0.254333	0.342249	-0.477959	0.808963	0	0	0
58101	0	0	0	0	0	5.292269	2.432170	7.924901	0.060738	0.073942	0.055104	-0.712402	-0.505615	-0.404053	-0.611266	-0.299292	0.076393	-0.728658	17.463441	-31.975411	94.974519	-0.073556	0.845080	0.529555	-0.936535	-0.241035	0.254565	0.342770	-0.477222	0.809177	0	0	0
58102	0	0	0	0	0	5.280188	2.554627	7.910400	0.062621	0.078761	0.061282	-0.717285	-0.505371	-0.401367	-0.610998	-0.299191	0.076018	-0.728963	17.472687	-31.944130	95.025396	-0.074332	0.845303	0.529092	-0.936278	-0.241805	0.254782	0.343306	-0.476439	0.809412	0	0	0
58103	0	0	0	0	0	5.344735	2.646912	7.828525	0.046215	0.079937	0.054501	-0.707764	-0.514404	-0.411865	-0.610779	-0.299038	0.075689	-0.729243	17.474602	-31.911089	95.072173	-0.075049	0.845545	0.528603	-0.936082	-0.242439	0.254901	0.343684	-0.475685	0.809694	0	0	0
58104	0	0	0	0	0	5.139437	2.676255	7.945102	0.043656	0.091778	0.054717	-0.708984	-0.506592	-0.412354	-0.610568	-0.298835	0.075334	-0.729540	17.473890	-31.871569	95.121427	-0.075808	0.845843	0.528017	-0.935893	-0.243063	0.255000	0.344032	-0.474836	0.810045	0	0	0
58105	0	0	0	0	0	5.164306	2.578691	7.938882	0.047454	0.096206	0.054453	-0.715332	-0.511963	-0.413330	-0.610354	-0.298627	0.074951	-0.729844	17.474870	-31.829628	95.171425	-0.076581	0.846162	0.527395	-0.935691	-0.243702	0.255130	0.344408	-0.473941	0.810409	0	0	0
58106	0	0	0	0	0	5.190164	2.458116	7.936130	0.059294	0.094053	0.034202	-0.711426	-0.509766	-0.406250	-0.610194	-0.298470	0.074501	-0.730088	17.489910	-31.785340	95.207910	-0.077157	0.846518	0.526738	-0.935463	-0.244225	0.255465	0.344899	-0.473033	0.810731	0	0	0
58107	0	0	0	0	0	5.266303	2.319477	7.937164	0.095955	0.077283	0.011018	-0.714111	-0.510986	-0.407471	-0.610058	-0.298495	0.073934	-0.730249	17.535465	-31.746281	95.226146	-0.077459	0.846851	0.526159	-0.935127	-0.244725	0.256218	0.345743	-0.472179	0.810869	0	0	0
58108	0	0	0	0	0	5.266920	2.225756	7.904498	0.145453	0.089895	-0.015145	-0.714111	-0.510742	-0.416992	-0.609949	-0.298634	0.073108	-0.730367	17.616995	-31.695776	95.230149	-0.077561	0.847307	0.525409	-0.934637	-0.245236	0.257512	0.347041	-0.471094	0.810946	0	0	0
58109	0	0	0	0	0	5.316132	2.117125	7.876274	0.212917	0.101276	-0.050684	-0.710693	-0.517090	-0.407959	-0.609871	-0.298950	0.071949	-0.730417	17.747723	-31.632930	95.213835	-0.077372	0.847903	0.524475	-0.933939	-0.245761	0.259537	0.348958	-0.469747	0.810905	0	0	0
58110	0	0	0	0	0	5.211802	2.495604	7.820904	0.250072	0.113631	-0.074842	-0.715088	-0.512695	-0.412354	-0.609830	-0.299343	0.070579	-0.730424	17.906538	-31.559023	95.184751	-0.077002	0.848615	0.523377	-0.933124	-0.246252	0.261992	0.351212	-0.468201	0.810825	0	0	0
58111	0	0	0	0	0	5.290263	2.738343	7.593774	0.262725	0.130655	-0.098659	-0.703125	-0.512939	-0.406738	-0.609862	-0.299719	0.069076	-0.730387	18.078383	-31.471606	95.144294	-0.076475	0.849464	0.522076	-0.932277	-0.246595	0.264670	0.353568	-0.466479	0.810794	0	0	0
58112	0	0	0	0	0	5.059126	3.249472	8.104332	0.251600	0.149830	-0.084074	-0.711914	-0.508057	-0.410889	-0.609862	-0.299986	0.067576	-0.730418	18.236832	-31.376201	95.117449	-0.076154	0.850364	0.520655	-0.931452	-0.247005	0.267183	0.355807	-0.464618	0.810883	0	0	0
58113	0	0	0	0	0	5.367654	2.935339	7.897541	0.178141	0.134352	-0.044102	-0.712891	-0.520264	-0.410400	-0.609820	-0.300072	0.066453	-0.730521	18.341322	-31.296405	95.113125	-0.076154	0.851091	0.519466	-0.930853	-0.247408	0.268889	0.357369	-0.463069	0.811082	0	0	0
58114	0	0	0	0	0	5.552313	3.048969	7.670349	0.145710	0.144250	-0.015146	-0.710205	-0.521240	-0.406006	-0.609723	-0.300012	0.065460	-0.730716	18.416649	-31.216399	95.129422	-0.076461	0.851791	0.518272	-0.930346	-0.247906	0.270184	0.358623	-0.461513	0.811415	0	0	0
58115	0	0	0	0	0	4.910136	3.134458	8.080863	0.095018	0.159027	0.014139	-0.715088	-0.515869	-0.409668	-0.609600	-0.299734	0.064652	-0.731005	18.451531	-31.133742	95.167557	-0.077095	0.852484	0.517038	-0.929997	-0.248417	0.270914	0.359391	-0.459957	0.811959	0	0	0
58116	0	0	0	0	0	5.237140	2.909195	7.915724	0.056546	0.169750	0.041774	-0.696533	-0.522217	-0.409912	-0.609436	-0.299291	0.063992	-0.731381	18.454318	-31.050217	95.225471	-0.078026	0.853155	0.515789	-0.929764	-0.248986	0.271192	0.359793	-0.458402	0.812660	0	0	0
58117	0	0	0	0	0	5.026677	2.813739	8.176907	-0.011154	0.158780	0.053179	-0.710205	-0.516602	-0.411377	-0.609328	-0.298677	0.063631	-0.731753	18.415770	-30.974765	95.288249	-0.079023	0.853745	0.514661	-0.929766	-0.249341	0.270860	0.359571	-0.457110	0.813486	0	0	0
58118	0	0	0	0	0	4.981249	2.512222	8.353479	-0.038891	0.108023	0.052304	-0.702881	-0.521240	-0.404785	-0.609248	-0.298165	0.063525	-0.732038	18.367354	-30.926651	95.339638	-0.079829	0.854103	0.513940	-0.929867	-0.249563	0.270308	0.359131	-0.456318	0.814125	0	0	0
58119	0	0	0	0	0	4.839662	2.352375	8.375337	-0.046561	0.016337	0.046432	-0.700439	-0.519043	-0.415527	-0.609172	-0.297967	0.063717	-0.732165	18.326287	-30.927363	95.368002	-0.080251	0.854057	0.513951	-0.930000	-0.249699	0.269722	0.358692	-0.456329	0.814312	0	0	0
58120	0	0	0	0	0	4.956333	2.535595	8.276832	-0.041157	-0.055722	0.037101	-0.705566	-0.510254	-0.412842	-0.609099	-0.298052	0.064095	-0.732158	18.299250	-30.965519	95.375298	-0.080328	0.853706	0.514522	-0.930121	-0.249781	0.269231	0.358362	-0.456941	0.814114	0	0	0
58121	0	0	0	0	0	4.966105	2.559414	8.146202	-0.041730	-0.085877	0.039474	-0.709473	-0.515625	-0.416992	-0.609008	-0.298244	0.064571	-0.732113	18.274214	-31.020553	95.377836	-0.080319	0.853210	0.515346	-0.930242	-0.249880	0.268720	0.358049	-0.457813	0.813762	0	0	0
58122	0	0	0	0	0	4.959290	2.444949	8.084821	-0.039050	-0.100860	0.040710	-0.707275	-0.512695	-0.408447	-0.608904	-0.298500	0.065083	-0.732051	18.252047	-31.083912	95.378010	-0.080268	0.852642	0.516293	-0.930352	-0.250001	0.268226	0.357775	-0.458804	0.813324	0	0	0
58123	0	0	0	0	0	5.015835	2.524243	7.970800	-0.035264	-0.097764	0.037293	-0.708252	-0.514648	-0.409424	-0.608807	-0.298756	0.065569	-0.731983	18.232683	-31.145021	95.376729	-0.080198	0.852095	0.517206	-0.930451	-0.250109	0.267779	0.357531	-0.459760	0.812891	0	0	0
58124	0	0	0	0	0	5.062770	2.710818	7.914317	-0.050050	-0.082989	0.038002	-0.705566	-0.514893	-0.416260	-0.608735	-0.298913	0.066063	-0.731935	18.203138	-31.198168	95.378981	-0.080186	0.851614	0.518000	-0.930603	-0.250155	0.267210	0.357140	-0.460625	0.812573	0	0	0
58125	0	0	0	0	0	5.071353	2.660721	7.943580	-0.042884	-0.064046	0.042073	-0.709473	-0.513916	-0.418701	-0.608643	-0.299021	0.066481	-0.731929	18.174145	-31.241777	95.387856	-0.080281	0.851209	0.518651	-0.930725	-0.250269	0.266676	0.356799	-0.461312	0.812334	0	0	0
58126	0	0	0	0	0	5.040451	2.755766	8.122348	-0.037398	-0.049784	0.056226	-0.709961	-0.517334	-0.406738	-0.608495	-0.299089	0.066855	-0.731990	18.142187	-31.280098	95.408718	-0.080558	0.850834	0.519222	-0.930816	-0.250527	0.266114	0.356499	-0.461863	0.812152	0	0	0
58127	0	0	0	0	0	4.988809	2.836867	8.228355	-0.046936	-0.056844	0.080416	-0.712158	-0.518311	-0.415283	-0.608271	-0.299145	0.067323	-0.732110	18.097350	-31.326609	95.443602	-0.081036	0.850365	0.519916	-0.930922	-0.250947	0.265348	0.356114	-0.462498	0.811959	0	0	0
58128	0	0	0	0	0	5.075546	2.793621	8.135984	-0.053671	-0.083695	0.099697	-0.711426	-0.511230	-0.410645	-0.607977	-0.299273	0.067925	-0.732247	18.045235	-31.391100	95.485225	-0.081598	0.849723	0.520877	-0.931035	-0.251499	0.264428	0.355690	-0.463378	0.811643	0	0	0
58129	0	0	0	0	0	5.077166	2.550964	8.069493	-0.056981	-0.102173	0.099979	-0.711914	-0.510010	-0.413086	-0.607681	-0.299458	0.068596	-0.732355	17.992903	-31.465718	95.523329	-0.082098	0.848992	0.521988	-0.931159	-0.252037	0.263476	0.355250	-0.464423	0.811239	0	0	0
58130	0	0	0	0	0	5.165980	2.509976	7.998968	-0.070279	-0.124750	0.092817	-0.715088	-0.518799	-0.415527	-0.607422	-0.299688	0.069373	-0.732402	17.937818	-31.551304	95.552249	-0.082451	0.848174	0.523262	-0.931335	-0.252451	0.262456	0.354706	-0.465693	0.810749	0	0	0
58131	0	0	0	0	0	5.200048	2.569463	7.959510	-0.076116	-0.134022	0.086928	-0.716309	-0.501465	-0.407471	-0.607190	-0.299935	0.070192	-0.732415	17.882129	-31.640922	95.575644	-0.082717	0.847325	0.524594	-0.931537	-0.252786	0.261416	0.354114	-0.467055	0.810224	0	0	0
58132	0	0	0	0	0	5.168037	2.520650	7.884636	-0.090367	-0.134915	0.080264	-0.716309	-0.501221	-0.409668	-0.607003	-0.300145	0.071055	-0.732401	17.820652	-31.729797	95.594676	-0.082919	0.846486	0.525914	-0.931793	-0.252996	0.260297	0.353392	-0.468459	0.809728	0	0	0
58133	0	0	0	0	0	5.301480	2.519086	7.907633	-0.108834	-0.130128	0.078525	-0.713135	-0.509521	-0.409912	-0.606852	-0.300281	0.071969	-0.732381	17.748424	-31.815783	95.613778	-0.083124	0.845672	0.527190	-0.932116	-0.253103	0.259035	0.352492	-0.469870	0.809303	0	0	0
58134	0	0	0	0	0	5.219783	2.428988	7.911968	-0.105091	-0.128356	0.071948	-0.713623	-0.502686	-0.404053	-0.606719	-0.300425	0.072853	-0.732345	17.680422	-31.899589	95.629098	-0.083275	0.844881	0.528432	-0.932429	-0.253170	0.257840	0.351628	-0.471254	0.808874	0	0	0
58135	0	0	0	0	0	5.330048	2.414538	7.862460	-0.115937	-0.111264	0.072677	-0.708984	-0.511963	-0.409668	-0.606605	-0.300472	0.073727	-0.732333	17.603881	-31.974216	95.648553	-0.083494	0.844168	0.529538	-0.932779	-0.253190	0.256551	0.350646	-0.472521	0.808561	0	0	0
58136	0	0	0	0	0	5.404862	2.587542	7.760852	-0.121465	-0.074810	0.069896	-0.718506	-0.509033	-0.411865	-0.606523	-0.300371	0.074505	-0.732364	17.521228	-32.028384	95.673753	-0.083815	0.843632	0.530339	-0.933149	-0.253158	0.255234	0.349583	-0.473493	0.808453	0	0	0
58137	0	0	0	0	0	5.262712	2.560066	7.881695	-0.124552	-0.047740	0.071110	-0.721191	-0.506348	-0.407959	-0.606450	-0.300159	0.075216	-0.732438	17.433265	-32.067979	95.705365	-0.084244	0.843221	0.530925	-0.933528	-0.253121	0.253882	0.348467	-0.474245	0.808494	0	0	0
58138	0	0	0	0	0	5.245702	2.496983	7.889258	-0.121110	-0.032108	0.076507	-0.718994	-0.503906	-0.410400	-0.606359	-0.299900	0.075873	-0.732552	17.343820	-32.099865	95.743678	-0.084779	0.842870	0.531397	-0.933887	-0.253145	0.252532	0.347372	-0.474855	0.808607	0	0	0
58139	0	0	0	0	0	5.179758	2.410651	7.923682	-0.117156	-0.029074	0.087158	-0.728027	-0.497314	-0.401367	-0.606223	-0.299636	0.076524	-0.732705	17.252461	-32.131910	95.789616	-0.085424	0.842506	0.531870	-0.934223	-0.253276	0.251154	0.346309	-0.475431	0.808725	0	0	0
58140	0	0	0	0	0	5.241913	2.224341	7.902026	-0.095289	-0.022218	0.084780	-0.713867	-0.492188	-0.416016	-0.606065	-0.299415	0.077069	-0.732868	17.173801	-32.159687	95.835399	-0.086071	0.842181	0.532281	-0.934483	-0.253491	0.249967	0.345446	-0.475892	0.808822	0	0	0
58141	0	0	0	0	0	5.346975	2.156038	7.815849	-0.080142	0.002230	0.073491	-0.720459	-0.507568	-0.415771	-0.605936	-0.299154	0.077469	-0.733040	17.104924	-32.172174	95.878871	-0.086698	0.842000	0.532465	-0.934700	-0.253682	0.248961	0.344701	-0.476111	0.809011	0	0	0
58142	0	0	0	0	0	5.387394	2.304522	7.871016	-0.054872	0.028228	0.065477	-0.726563	-0.505859	-0.405029	-0.605807	-0.298877	0.077684	-0.733236	17.050667	-32.168982	95.922281	-0.087339	0.841964	0.532418	-0.934835	-0.253925	0.248203	0.344172	-0.476045	0.809275	0	0	0
58143	0	0	0	0	0	5.375155	2.479282	7.947259	-0.057937	0.057149	0.062316	-0.717041	-0.494873	-0.411133	-0.605707	-0.298486	0.077819	-0.733464	16.992567	-32.149432	95.969384	-0.088050	0.842072	0.532129	-0.934984	-0.254127	0.247435	0.343587	-0.475746	0.809700	0	0	0
58144	0	0	0	0	0	5.322525	2.469237	7.951158	-0.046603	0.081861	0.071546	-0.726807	-0.503174	-0.406738	-0.605565	-0.298036	0.077851	-0.733761	16.935364	-32.117789	96.027285	-0.088932	0.842275	0.531662	-0.935084	-0.254462	0.246712	0.343087	-0.475208	0.810228	0	0	0
58145	0	0	0	0	0	5.248310	2.361980	7.968776	-0.032929	0.097007	0.082570	-0.724365	-0.490967	-0.417480	-0.605367	-0.297566	0.077804	-0.734119	16.880537	-32.079692	96.095291	-0.089969	0.842520	0.531098	-0.935127	-0.254954	0.246040	0.342699	-0.474508	0.810802	0	0	0
58146	0	0	0	0	0	5.151009	2.206173	7.992517	-0.020918	0.098285	0.081563	-0.721924	-0.498779	-0.417236	-0.605156	-0.297129	0.077706	-0.734481	16.833026	-32.040616	96.162776	-0.091001	0.842773	0.530520	-0.935129	-0.255496	0.245472	0.342423	-0.473767	0.811352	0	0	0
58147	0	0	0	0	0	5.026268	2.064485	8.111404	0.001622	0.086423	0.075139	-0.718750	-0.491699	-0.412354	-0.604930	-0.296806	0.077553	-0.734814	16.801774	-32.006995	96.223786	-0.091932	0.842985	0.530023	-0.935058	-0.256090	0.245119	0.342366	-0.473068	0.811783	0	0	0
58148	0	0	0	0	0	5.143577	2.085040	8.066727	0.018036	0.072764	0.044957	-0.719971	-0.490234	-0.408936	-0.604785	-0.296594	0.077335	-0.735041	16.791886	-31.975796	96.262515	-0.092533	0.843210	0.529561	-0.934959	-0.256508	0.245063	0.342476	-0.472441	0.812102	0	0	0
58149	0	0	0	0	0	5.227413	2.306633	8.041921	0.026070	0.070585	0.026837	-0.708008	-0.493408	-0.406982	-0.604694	-0.296422	0.077069	-0.735214	16.792895	-31.942848	96.289141	-0.092958	0.843469	0.529073	-0.934849	-0.256811	0.245165	0.342661	-0.471813	0.812389	0	0	0
58150	0	0	0	0	0	5.312861	2.539623	7.917426	0.025368	0.089800	0.023315	-0.718506	-0.498291	-0.415771	-0.604624	-0.296178	0.076741	-0.735404	16.792903	-31.898720	96.317175	-0.093416	0.843828	0.528419	-0.934744	-0.257080	0.245283	0.342823	-0.471024	0.812779	0	0	0
58151	0	0	0	0	0	5.357614	2.528043	7.827223	0.010308	0.116221	0.034205	-0.715576	-0.491455	-0.415283	-0.604547	-0.295787	0.076405	-0.735660	16.777727	-31.841952	96.357403	-0.094066	0.844283	0.527578	-0.934681	-0.257370	0.245218	0.342816	-0.470050	0.813345	0	0	0
58152	0	0	0	0	0	5.227382	2.435125	7.916513	0.009153	0.148102	0.041682	-0.716797	-0.494141	-0.413086	-0.604456	-0.295273	0.075987	-0.735985	16.756299	-31.768865	96.408575	-0.094895	0.844866	0.526494	-0.934614	-0.257719	0.245108	0.342771	-0.468809	0.814080	0	0	0
58153	0	0	0	0	0	5.122386	2.291460	7.990048	0.012707	0.159249	0.045285	-0.724609	-0.500244	-0.414551	-0.604349	-0.294726	0.075529	-0.736338	16.734485	-31.690299	96.464214	-0.095797	0.845490	0.525328	-0.934532	-0.258114	0.245006	0.342744	-0.467465	0.814864	0	0	0
58154	0	0	0	0	0	5.012136	2.227614	8.101380	0.020787	0.155964	0.042413	-0.720215	-0.486816	-0.423584	-0.604240	-0.294217	0.075045	-0.736680	16.718869	-31.612988	96.517233	-0.096659	0.846105	0.524179	-0.934423	-0.258523	0.244987	0.342797	-0.466125	0.815609	0	0	0
58155	0	0	0	0	0	5.027862	2.094406	8.202029	0.035582	0.134831	0.030111	-0.710693	-0.500244	-0.411377	-0.604147	-0.293835	0.074554	-0.736960	16.717944	-31.545297	96.558246	-0.097336	0.846650	0.523172	-0.934277	-0.258897	0.245152	0.343006	-0.464926	0.816205	0	0	0
58156	0	0	0	0	0	5.083992	2.251263	8.237674	0.038367	0.111682	0.007995	-0.711182	-0.495117	-0.419189	-0.604122	-0.293555	0.074089	-0.737139	16.728608	-31.486608	96.580465	-0.097725	0.847144	0.522299	-0.934141	-0.259096	0.245458	0.343264	-0.463914	0.816672	0	0	0
58157	0	0	0	0	0	5.021547	2.442208	8.187893	0.045543	0.080073	0.002804	-0.712402	-0.500000	-0.420166	-0.604093	-0.293415	0.073687	-0.737258	16.748169	-31.444461	96.593263	-0.097959	0.847504	0.521672	-0.933987	-0.259283	0.245847	0.343618	-0.463152	0.816956	0	0	0
58158	0	0	0	0	0	5.139854	2.485098	8.091730	0.041775	0.071689	0.007651	-0.714600	-0.490234	-0.422363	-0.604049	-0.293292	0.073329	-0.737378	16.764957	-31.407667	96.607539	-0.098208	0.847812	0.521124	-0.933839	-0.259495	0.246183	0.343946	-0.462469	0.817205	0	0	0
58159	0	0	0	0	0	5.139187	2.449986	8.001479	0.033536	0.075365	0.000725	-0.715088	-0.496094	-0.423340	-0.604044	-0.293134	0.072982	-0.737480	16.778805	-31.367763	96.618143	-0.098407	0.848154	0.520529	-0.933728	-0.259609	0.246486	0.344192	-0.461777	0.817493	0	0	0
58160	0	0	0	0	0	5.085995	2.381450	8.037232	0.025581	0.071587	-0.004583	-0.707031	-0.501953	-0.420166	-0.604069	-0.292967	0.072667	-0.737557	16.790425	-31.329007	96.624550	-0.098542	0.848493	0.519952	-0.933648	-0.259641	0.246753	0.344369	-0.461136	0.817779	0	0	0
58161	0	0	0	0	0	5.031503	2.381803	8.038201	0.023732	0.066780	-0.010772	-0.709473	-0.496338	-0.420166	-0.604117	-0.292815	0.072365	-0.737608	16.803370	-31.291912	96.626094	-0.098604	0.848824	0.519398	-0.933582	-0.259612	0.247035	0.344531	-0.460542	0.818046	0	0	0
58162	0	0	0	0	0	5.098601	2.431955	8.012749	0.017880	0.061044	-0.013734	-0.712646	-0.497070	-0.417725	-0.604183	-0.292667	0.072096	-0.737639	16.814687	-31.257424	96.624598	-0.098618	0.849137	0.518884	-0.933538	-0.259530	0.247287	0.344647	-0.460011	0.818296	0	0	0
58163	0	0	0	0	0	5.192360	2.389574	8.026723	0.009590	0.066177	-0.015369	-0.715088	-0.497070	-0.423340	-0.604268	-0.292476	0.071842	-0.737670	16.821110	-31.219904	96.623120	-0.098635	0.849477	0.518324	-0.933525	-0.259397	0.247477	0.344678	-0.459458	0.818593	0	0	0
58164	0	0	0	0	0	5.109914	2.419307	8.071862	0.011179	0.076823	-0.018264	-0.716797	-0.492432	-0.426514	-0.604366	-0.292251	0.071543	-0.737707	16.828499	-31.176011	96.621792	-0.098661	0.849873	0.517669	-0.933508	-0.259246	0.247698	0.344715	-0.458810	0.818941	0	0	0
58165	0	0	0	0	0	5.076726	2.427227	8.122572	0.013400	0.071254	-0.021060	-0.711914	-0.501709	-0.427734	-0.604469	-0.292055	0.071251	-0.737730	16.838461	-31.134762	96.617700	-0.098644	0.850251	0.517053	-0.933487	-0.259082	0.247948	0.344777	-0.458204	0.819255	0	0	0
58166	0	0	0	0	0	4.990766	2.533267	8.180681	0.011885	0.058148	-0.022315	-0.711914	-0.493408	-0.425537	-0.604573	-0.291903	0.071001	-0.737728	16.849456	-31.100437	96.610173	-0.098567	0.850571	0.516540	-0.933472	-0.258900	0.248195	0.344839	-0.457712	0.819503	0	0	0
58167	0	0	0	0	0	5.010456	2.535761	8.184155	0.000293	0.044294	-0.016176	-0.707031	-0.494629	-0.423828	-0.604668	-0.291764	0.070845	-0.737721	16.852990	-31.074773	96.603940	-0.098502	0.850811	0.516156	-0.933492	-0.258716	0.248312	0.344805	-0.457369	0.819710	0	0	0
58168	0	0	0	0	0	5.013142	2.539461	8.038005	-0.007589	0.038976	-0.012732	-0.709961	-0.494629	-0.426025	-0.604759	-0.291620	0.070739	-0.737713	16.851569	-31.052551	96.598840	-0.098449	0.851019	0.515824	-0.933535	-0.258526	0.248350	0.344704	-0.457090	0.819907	0	0	0
58169	0	0	0	0	0	5.063887	2.502996	7.949706	-0.018111	0.048830	-0.008283	-0.712646	-0.497314	-0.426758	-0.604852	-0.291406	0.070649	-0.737730	16.841496	-31.025711	96.598554	-0.098472	0.851259	0.515423	-0.933610	-0.258325	0.248276	0.344494	-0.456755	0.820182	0	0	0
58170	0	0	0	0	0	5.103081	2.603553	7.965546	-0.030998	0.067092	-0.006663	-0.716064	-0.499023	-0.421631	-0.604965	-0.291086	0.070553	-0.737773	16.821858	-30.989080	96.602773	-0.098573	0.851579	0.514875	-0.933727	-0.258080	0.248090	0.344147	-0.456297	0.820582	0	0	0
58171	0	0	0	0	0	5.095336	2.562873	8.049515	-0.045391	0.072400	-0.004150	-0.711426	-0.493408	-0.427734	-0.605091	-0.290701	0.070498	-0.737826	16.792473	-30.950008	96.609673	-0.098716	0.851916	0.514290	-0.933892	-0.257790	0.247771	0.343659	-0.455832	0.821045	0	0	0
58172	0	0	0	0	0	5.038585	2.518874	8.131622	-0.051650	0.075192	0.006316	-0.717529	-0.495605	-0.416016	-0.605188	-0.290284	0.070472	-0.737913	16.755962	-30.911075	96.623709	-0.098965	0.852239	0.513707	-0.934067	-0.257562	0.247348	0.343111	-0.455358	0.821538	0	0	0
58173	0	0	0	0	0	5.012119	2.416744	8.149230	-0.051272	0.065433	0.005940	-0.707275	-0.489990	-0.423096	-0.605283	-0.289904	0.070475	-0.737985	16.720620	-30.877488	96.635688	-0.099178	0.852517	0.513204	-0.934241	-0.257332	0.246928	0.342574	-0.454967	0.821978	0	0	0
58174	0	0	0	0	0	4.984648	2.362924	8.159292	-0.050941	0.056827	0.006560	-0.716309	-0.494873	-0.426514	-0.605371	-0.289556	0.070503	-0.738046	16.686290	-30.848659	96.646291	-0.099365	0.852755	0.512772	-0.934413	-0.257110	0.246509	0.342051	-0.454647	0.822373	0	0	0
58175	0	0	0	0	0	5.032935	2.284836	8.151814	-0.048727	0.052262	0.002611	-0.708252	-0.491943	-0.424561	-0.605470	-0.289233	0.070531	-0.738089	16.654822	-30.821729	96.653540	-0.099501	0.852982	0.512369	-0.934582	-0.256863	0.246127	0.341550	-0.454360	0.822739	0	0	0
58176	0	0	0	0	0	5.034053	2.201742	8.117507	-0.046524	0.048546	-0.004645	-0.716064	-0.491943	-0.424561	-0.605591	-0.288933	0.070551	-0.738106	16.627532	-30.795598	96.655356	-0.099555	0.853211	0.511977	-0.934749	-0.256565	0.245802	0.341076	-0.454099	0.823080	0	0	0
58177	0	0	0	0	0	5.000790	2.297632	8.130060	-0.040402	0.048070	-0.013108	-0.711670	-0.493164	-0.420898	-0.605733	-0.288656	0.070539	-0.738098	16.606404	-30.768389	96.651723	-0.099529	0.853458	0.511569	-0.934905	-0.256222	0.245568	0.340657	-0.453827	0.823404	0	0	0
58178	0	0	0	0	0	5.043287	2.390766	8.097822	-0.034149	0.044443	-0.020263	-0.702148	-0.502197	-0.429443	-0.605892	-0.288414	0.070503	-0.738066	16.591720	-30.741952	96.642755	-0.099423	0.853708	0.511172	-0.935045	-0.255847	0.245424	0.340302	-0.453568	0.823693	0	0	0
58179	0	0	0	0	0	5.035466	2.485568	8.087387	-0.034520	0.052201	-0.017570	-0.710693	-0.496094	-0.424072	-0.606045	-0.288141	0.070451	-0.738052	16.575027	-30.711741	96.636992	-0.099368	0.853986	0.510719	-0.935185	-0.255493	0.245261	0.339934	-0.453246	0.824023	0	0	0
58180	0	0	0	0	0	5.082316	2.499696	8.017905	-0.037143	0.065219	-0.016387	-0.711914	-0.494629	-0.427979	-0.606201	-0.287813	0.070368	-0.738060	16.555347	-30.674533	96.634433	-0.099368	0.854320	0.510161	-0.935331	-0.255137	0.245072	0.339531	-0.452817	0.824424	0	0	0
58181	0	0	0	0	0	5.028986	2.426178	8.054111	-0.037460	0.070973	-0.011387	-0.708740	-0.497803	-0.426514	-0.606341	-0.287459	0.070278	-0.738091	16.533141	-30.635032	96.636215	-0.099436	0.854666	0.509568	-0.935474	-0.254823	0.244853	0.339117	-0.452340	0.824856	0	0	0
58182	0	0	0	0	0	4.972119	2.404147	8.107797	-0.037679	0.075277	-0.011693	-0.715820	-0.495850	-0.440674	-0.606484	-0.287090	0.070175	-0.738127	16.510671	-30.593065	96.638527	-0.099513	0.855032	0.508937	-0.935618	-0.254505	0.244635	0.338698	-0.451826	0.825310	0	0	0
58183	0	0	0	0	0	5.062116	2.474700	8.083406	-0.041788	0.074635	-0.004190	-0.707031	-0.493164	-0.427734	-0.606605	-0.286707	0.070100	-0.738184	16.483314	-30.552714	96.645542	-0.099659	0.855376	0.508331	-0.935768	-0.254233	0.244343	0.338240	-0.451329	0.825770	0	0	0
58184	0	0	0	0	0	5.033475	2.442717	8.066502	-0.048432	0.086414	-0.004113	-0.705566	-0.497803	-0.421631	-0.606739	-0.286261	0.070013	-0.738255	16.451188	-30.505858	96.654741	-0.099845	0.855772	0.507626	-0.935940	-0.253932	0.243997	0.337709	-0.450746	0.826305	0	0	0
58185	0	0	0	0	0	5.045138	2.584522	8.053625	-0.057254	0.099743	0.003369	-0.703125	-0.493408	-0.433594	-0.606862	-0.285736	0.069930	-0.738365	16.410188	-30.452938	96.671215	-0.100145	0.856209	0.506830	-0.936135	-0.253656	0.243538	0.337080	-0.450072	0.826929	0	0	0
58186	0	0	0	0	0	5.063636	2.507717	8.072049	-0.066166	0.114220	0.011851	-0.703369	-0.499268	-0.443115	-0.606972	-0.285128	0.069846	-0.738517	16.360168	-30.393366	96.695714	-0.100573	0.856689	0.505934	-0.936350	-0.253412	0.242965	0.336355	-0.449295	0.827647	0	0	0
58187	0	0	0	0	0	5.033444	2.358572	8.122661	-0.072998	0.127442	0.017233	-0.701172	-0.499023	-0.438477	-0.607077	-0.284448	0.069757	-0.738702	16.303149	-30.327406	96.726046	-0.101095	0.857213	0.504941	-0.936582	-0.253184	0.242304	0.335549	-0.448423	0.828447	0	0	0
58188	0	0	0	0	0	5.027920	2.297009	8.089355	-0.073437	0.135761	0.012323	-0.706543	-0.499512	-0.443115	-0.607202	-0.283738	0.069636	-0.738884	16.246923	-30.256022	96.754685	-0.101597	0.857787	0.503865	-0.936820	-0.252913	0.241667	0.334733	-0.447478	0.829287	0	0	0
58189	0	0	0	0	0	4.989506	2.251081	8.175476	-0.065712	0.141389	0.013265	-0.708984	-0.494629	-0.437012	-0.607315	-0.283029	0.069472	-0.739078	16.194220	-30.181712	96.784871	-0.102126	0.858381	0.502744	-0.937031	-0.252685	0.241086	0.333979	-0.446466	0.830136	0	0	0
58190	0	0	0	0	0	4.895384	2.351885	8.262770	-0.061566	0.138891	0.007071	-0.704834	-0.497803	-0.439697	-0.607443	-0.282345	0.069290	-0.739251	16.146344	-30.107722	96.810552	-0.102588	0.858980	0.501627	-0.937234	-0.252423	0.240573	0.333269	-0.445462	0.830960	0	0	0
58191	0	0	0	0	0	4.887148	2.364308	8.219080	-0.057025	0.126208	0.010232	-0.700684	-0.493896	-0.435303	-0.607549	-0.281720	0.069135	-0.739418	16.101144	-30.041262	96.835912	-0.103037	0.859511	0.500624	-0.937418	-0.252210	0.240078	0.332612	-0.444557	0.831708	0	0	0
58192	0	0	0	0	0	4.953471	2.355776	8.183015	-0.055155	0.126538	0.014599	-0.703125	-0.493896	-0.432861	-0.607635	-0.281098	0.068977	-0.739598	16.055819	-29.975232	96.863944	-0.103526	0.860033	0.499626	-0.937590	-0.252043	0.239580	0.331974	-0.443641	0.832452	0	0	0
58193	0	0	0	0	0	4.945292	2.347372	8.166360	-0.053145	0.124572	0.016961	-0.710693	-0.497314	-0.443604	-0.607709	-0.280489	0.068823	-0.739783	16.010996	-29.910710	96.893105	-0.104031	0.860538	0.498650	-0.937754	-0.251906	0.239083	0.331353	-0.442739	0.833179	0	0	0
58194	0	0	0	0	0	4.905890	2.395836	8.214048	-0.051565	0.130352	0.022042	-0.701416	-0.493408	-0.450684	-0.607764	-0.279861	0.068650	-0.739992	15.965161	-29.843715	96.926401	-0.104602	0.861056	0.497636	-0.937906	-0.251820	0.238577	0.330743	-0.441780	0.833930	0	0	0
58195	0	0	0	0	0	4.894559	2.369191	8.249214	-0.059905	0.133343	0.020466	-0.707275	-0.491455	-0.447754	-0.607837	-0.279196	0.068499	-0.740197	15.914678	-29.774848	96.959237	-0.105168	0.861589	0.496593	-0.938087	-0.251684	0.238006	0.330048	-0.440817	0.834715	0	0	0
58196	0	0	0	0	0	4.837906	2.243412	8.293691	-0.055605	0.124234	0.028792	-0.703125	-0.493896	-0.441650	-0.607870	-0.278576	0.068370	-0.740416	15.865106	-29.712235	96.995535	-0.105779	0.862060	0.495644	-0.938245	-0.251640	0.237432	0.329404	-0.439920	0.835442	0	0	0
58197	0	0	0	0	0	4.857397	2.208404	8.257261	-0.046972	0.114364	0.024342	-0.702881	-0.491211	-0.441406	-0.607903	-0.278020	0.068234	-0.740610	15.822664	-29.654404	97.027275	-0.106318	0.862497	0.494767	-0.938379	-0.251597	0.236949	0.328850	-0.439087	0.836098	0	0	0
58198	0	0	0	0	0	4.843530	2.258395	8.305450	-0.040376	0.105459	0.018674	-0.697998	-0.492432	-0.443848	-0.607945	-0.277519	0.068091	-0.740776	15.786794	-29.600516	97.053637	-0.106772	0.862910	0.493950	-0.938496	-0.251533	0.236552	0.328368	-0.438313	0.836694	0	0	0
58199	0	0	0	0	0	4.834985	2.323653	8.277669	-0.038262	0.102342	0.020037	-0.708252	-0.489502	-0.437988	-0.607978	-0.277035	0.067953	-0.740943	15.751878	-29.548607	97.080308	-0.107229	0.863304	0.493162	-0.938605	-0.251490	0.236164	0.327906	-0.437561	0.837268	0	0	0
58200	0	0	0	0	0	4.830084	2.222927	8.296075	-0.035967	0.097800	0.016090	-0.698975	-0.491943	-0.453125	-0.608021	-0.276576	0.067813	-0.741092	15.720106	-29.498514	97.103563	-0.107633	0.863688	0.492401	-0.938710	-0.251424	0.235816	0.327473	-0.436840	0.837814	0	0	0
58201	0	0	0	0	0	4.795021	2.269935	8.317238	-0.027468	0.088483	0.020267	-0.689941	-0.494141	-0.447754	-0.608033	-0.276176	0.067678	-0.741244	15.692588	-29.454262	97.127890	-0.108046	0.864019	0.491729	-0.938783	-0.251432	0.235516	0.327127	-0.436180	0.838293	0	0	0
58202	0	0	0	0	0	4.740126	2.264903	8.317971	-0.024557	0.072168	0.018187	-0.699951	-0.484131	-0.448730	-0.608043	-0.275846	0.067577	-0.741368	15.669008	-29.418613	97.147840	-0.108385	0.864285	0.491187	-0.938848	-0.251435	0.235254	0.326828	-0.435652	0.838684	0	0	0
58203	0	0	0	0	0	4.734321	2.286424	8.318434	-0.017900	0.060516	0.020283	-0.703125	-0.489258	-0.452393	-0.608033	-0.275579	0.067491	-0.741483	15.649456	-29.389744	97.167031	-0.108706	0.864494	0.490748	-0.938890	-0.251483	0.235035	0.326601	-0.435209	0.839003	0	0	0
58204	0	0	0	0	0	4.831443	2.281379	8.280802	-0.023527	0.050775	0.021768	-0.699463	-0.492676	-0.446045	-0.608021	-0.275330	0.067456	-0.741589	15.627253	-29.366439	97.185415	-0.109008	0.864657	0.490393	-0.938948	-0.251521	0.234763	0.326334	-0.434863	0.839286	0	0	0
58205	0	0	0	0	0	4.707700	2.225630	8.280404	-0.016981	0.045031	0.014823	-0.694824	-0.490967	-0.444336	-0.608024	-0.275125	0.067407	-0.741667	15.611298	-29.345278	97.198451	-0.109227	0.864812	0.490071	-0.938993	-0.251527	0.234578	0.326132	-0.434551	0.839525	0	0	0
58206	0	0	0	0	0	4.807586	2.217937	8.218185	-0.017269	0.047597	0.021140	-0.701416	-0.481201	-0.457275	-0.608004	-0.274907	0.067357	-0.741768	15.593174	-29.323619	97.215851	-0.109513	0.864962	0.489742	-0.939030	-0.251587	0.234362	0.325927	-0.434217	0.839778	0	0	0
58207	0	0	0	0	0	4.773601	2.224436	8.291252	-0.005049	0.049577	0.015014	-0.703613	-0.488281	-0.452637	-0.607992	-0.274721	0.067250	-0.741857	15.583603	-29.299965	97.229818	-0.109750	0.865136	0.489382	-0.939036	-0.251648	0.234276	0.325833	-0.433835	0.840012	0	0	0
58208	0	0	0	0	0	4.743398	2.294849	8.282419	-0.007176	0.050683	0.015939	-0.697510	-0.489014	-0.458496	-0.607979	-0.274524	0.067147	-0.741950	15.572628	-29.275797	97.244453	-0.109997	0.865313	0.489014	-0.939046	-0.251706	0.234171	0.325719	-0.433449	0.840255	0	0	0
58209	0	0	0	0	0	4.817192	2.265858	8.245786	-0.011307	0.052621	0.013481	-0.693848	-0.481445	-0.452637	-0.607981	-0.274308	0.067051	-0.742036	15.559704	-29.250214	97.257938	-0.110228	0.865503	0.488625	-0.939074	-0.251726	0.234040	0.325562	-0.433057	0.840519	0	0	0
58210	0	0	0	0	0	4.787514	2.242318	8.273830	-0.011092	0.050194	0.009316	-0.698242	-0.489502	-0.453613	-0.607998	-0.274104	0.066955	-0.742107	15.548593	-29.225293	97.268278	-0.110411	0.865694	0.488245	-0.939104	-0.251711	0.233934	0.325412	-0.432684	0.840769	0	0	0
58211	0	0	0	0	0	4.730207	2.269478	8.317605	-0.012817	0.046583	0.004064	-0.695068	-0.492432	-0.455566	-0.608036	-0.273908	0.066870	-0.742156	15.538252	-29.201597	97.274719	-0.110534	0.865882	0.487884	-0.939147	-0.251642	0.233836	0.325247	-0.432348	0.841005	0	0	0
58212	0	0	0	0	0	4.808358	2.304176	8.199134	-0.012798	0.047455	0.000762	-0.692871	-0.493652	-0.453125	-0.608086	-0.273712	0.066777	-0.742196	15.529052	-29.176872	97.279154	-0.110627	0.866082	0.487507	-0.939192	-0.251545	0.233757	0.325083	-0.432003	0.841246	0	0	0
58213	0	0	0	0	0	4.804182	2.302652	8.202009	-0.023395	0.054866	0.000926	-0.690430	-0.484619	-0.455322	-0.608153	-0.273455	0.066702	-0.742242	15.512943	-29.148108	97.284907	-0.110745	0.866314	0.487069	-0.939273	-0.251402	0.233586	0.324809	-0.431622	0.841547	0	0	0
58214	0	0	0	0	0	4.796815	2.258037	8.259798	-0.033506	0.054536	-0.001645	-0.693604	-0.484131	-0.456055	-0.608242	-0.273169	0.066661	-0.742278	15.492027	-29.119103	97.289044	-0.110839	0.866550	0.486627	-0.939389	-0.251195	0.233345	0.324443	-0.431268	0.841870	0	0	0
58215	0	0	0	0	0	4.686548	2.333716	8.318094	-0.031192	0.053896	-0.012329	-0.695313	-0.486328	-0.458496	-0.608368	-0.272896	0.066599	-0.742280	15.475593	-29.088853	97.286387	-0.110832	0.866810	0.486165	-0.939509	-0.250906	0.233172	0.324097	-0.430914	0.842184	0	0	0
58216	0	0	0	0	0	4.582125	2.215898	8.400844	-0.038245	0.037114	-0.019142	-0.697510	-0.484619	-0.447754	-0.608523	-0.272667	0.066605	-0.742237	15.458829	-29.066793	97.276400	-0.110704	0.867015	0.485829	-0.939659	-0.250527	0.232975	0.323706	-0.430722	0.842433	0	0	0
58217	0	0	0	0	0	4.654376	2.144881	8.418065	-0.016462	0.015294	-0.027649	-0.694336	-0.493164	-0.461426	-0.608672	-0.272588	0.066585	-0.742146	15.458830	-29.055537	97.257352	-0.110428	0.867146	0.485657	-0.939748	-0.250169	0.233001	0.323542	-0.430665	0.842525	0	0	0
58218	0	0	0	0	0	4.680256	2.327862	8.299502	-0.001774	0.006956	-0.026490	-0.699707	-0.482422	-0.451904	-0.608795	-0.272584	0.066537	-0.742051	15.467771	-29.049009	97.237454	-0.110134	0.867240	0.485558	-0.939788	-0.249883	0.233147	0.323527	-0.430644	0.842542	0	0	0
58219	0	0	0	0	0	4.655664	2.165063	8.367463	0.012706	0.000034	-0.020017	-0.698242	-0.490234	-0.456055	-0.608871	-0.272647	0.066467	-0.741972	15.483428	-29.047327	97.220521	-0.109879	0.867286	0.485532	-0.939774	-0.249717	0.233381	0.323654	-0.430646	0.842492	0	0	0
58220	0	0	0	0	0	4.783917	2.163625	8.304372	0.030171	-0.018425	-0.025674	-0.696533	-0.494141	-0.457275	-0.608938	-0.272834	0.066378	-0.741855	15.512578	-29.054926	97.196699	-0.109511	0.867268	0.485648	-0.939709	-0.249576	0.233793	0.323967	-0.430765	0.842311	0	0	0
58221	0	0	0	0	0	4.730803	2.359390	8.273679	0.040405	-0.021251	-0.021808	-0.699707	-0.490723	-0.453613	-0.608977	-0.273061	0.066267	-0.741750	15.546480	-29.064700	97.174832	-0.109169	0.867227	0.485797	-0.939607	-0.249512	0.234269	0.324376	-0.430883	0.842092	0	0	0
58222	0	0	0	0	0	4.804220	2.321605	8.308125	0.044574	-0.021441	-0.025946	-0.695313	-0.478271	-0.447998	-0.609025	-0.273304	0.066134	-0.741634	15.584237	-29.073898	97.150293	-0.108788	0.867197	0.485937	-0.939496	-0.249431	0.234803	0.324828	-0.430992	0.841863	0	0	0
58223	0	0	0	0	0	4.784009	2.228687	8.316567	0.046413	-0.020991	-0.019402	-0.696533	-0.500000	-0.456055	-0.609045	-0.273547	0.066003	-0.741539	15.620820	-29.083897	97.130155	-0.108473	0.867151	0.486090	-0.939371	-0.249416	0.235317	0.325294	-0.431093	0.841631	0	0	0
58224	0	0	0	0	0	4.682787	2.215186	8.381616	0.059257	-0.030777	-0.023639	-0.702393	-0.487793	-0.452148	-0.609061	-0.273868	0.065847	-0.741421	15.667102	-29.098573	97.105401	-0.108083	0.867074	0.486314	-0.939208	-0.249419	0.235963	0.325893	-0.431246	0.841321	0	0	0
58225	0	0	0	0	0	4.761740	2.312022	8.299485	0.067915	-0.042248	-0.019287	-0.696777	-0.490967	-0.456299	-0.609045	-0.274256	0.065702	-0.741304	15.717839	-29.120265	97.081368	-0.107696	0.866936	0.486644	-0.939013	-0.249496	0.236658	0.326583	-0.431478	0.840934	0	0	0
58226	0	0	0	0	0	4.794110	2.289523	8.252699	0.074203	-0.044552	-0.023202	-0.685303	-0.489990	-0.451660	-0.609034	-0.274673	0.065533	-0.741173	15.773779	-29.142567	97.054400	-0.107265	0.866799	0.486984	-0.938800	-0.249567	0.237428	0.327337	-0.431713	0.840520	0	0	0
58227	0	0	0	0	0	4.814329	2.331709	8.320026	0.082100	-0.040217	-0.025316	-0.691162	-0.490723	-0.448730	-0.609022	-0.275098	0.065320	-0.741045	15.834348	-29.162138	97.026827	-0.106828	0.866685	0.487283	-0.938563	-0.249652	0.238271	0.328157	-0.431892	0.840109	0	0	0
58228	0	0	0	0	0	4.766972	2.271308	8.369906	0.074794	-0.052715	-0.032383	-0.699951	-0.487793	-0.451172	-0.609041	-0.275550	0.065162	-0.740875	15.894214	-29.187452	96.992535	-0.106283	0.866535	0.487668	-0.938356	-0.249646	0.239090	0.328924	-0.432196	0.839652	0	0	0
58229	0	0	0	0	0	4.833140	2.169163	8.261539	0.085668	-0.064695	-0.036556	-0.696533	-0.486572	-0.444092	-0.609056	-0.276080	0.064995	-0.740679	15.962487	-29.218713	96.953536	-0.105660	0.866343	0.488145	-0.938118	-0.249653	0.240017	0.329803	-0.432577	0.839111	0	0	0
58230	0	0	0	0	0	4.878042	2.377165	8.258397	0.093821	-0.064804	-0.040542	-0.698486	-0.489502	-0.446289	-0.609075	-0.276638	0.064791	-0.740474	16.036913	-29.249326	96.911818	-0.104998	0.866161	0.488611	-0.937855	-0.249659	0.241034	0.330761	-0.432938	0.838547	0	0	0
58231	0	0	0	0	0	4.836460	2.357401	8.228415	0.091636	-0.061831	-0.044079	-0.695068	-0.495117	-0.453857	-0.609110	-0.277178	0.064583	-0.740261	16.110762	-29.277742	96.868529	-0.104315	0.865999	0.489044	-0.937603	-0.249628	0.242048	0.331692	-0.433279	0.838003	0	0	0
58232	0	0	0	0	0	4.862277	2.326391	8.279995	0.093616	-0.060924	-0.047307	-0.697021	-0.501953	-0.442871	-0.609155	-0.277722	0.064358	-0.740040	16.186904	-29.305046	96.823136	-0.103601	0.865850	0.489459	-0.937345	-0.249576	0.243096	0.332642	-0.433607	0.837457	0	0	0
58233	0	0	0	0	0	4.843792	2.332169	8.248906	0.095375	-0.057577	-0.046381	-0.699219	-0.497803	-0.451660	-0.609196	-0.278258	0.064120	-0.739825	16.263329	-29.330628	96.778850	-0.102906	0.865713	0.489849	-0.937081	-0.249538	0.244152	0.333601	-0.433903	0.836922	0	0	0
58234	0	0	0	0	0	4.847020	2.297589	8.274629	0.099553	-0.058067	-0.054842	-0.695068	-0.492432	-0.447754	-0.609261	-0.278812	0.063855	-0.739586	16.345031	-29.355042	96.729124	-0.102130	0.865594	0.490220	-0.936809	-0.249448	0.245286	0.334603	-0.434191	0.836373	0	0	0
58235	0	0	0	0	0	4.871756	2.451368	8.227075	0.099495	-0.057209	-0.058152	-0.689941	-0.503906	-0.446533	-0.609338	-0.279363	0.063584	-0.739338	16.427479	-29.378413	96.677510	-0.101327	0.865487	0.490575	-0.936539	-0.249328	0.246433	0.335599	-0.434473	0.835827	0	0	0
58236	0	0	0	0	0	4.903237	2.456412	8.175664	0.091047	-0.053795	-0.053311	-0.696289	-0.500244	-0.445557	-0.609410	-0.279875	0.063339	-0.739106	16.503529	-29.400606	96.629444	-0.100579	0.865383	0.490913	-0.936291	-0.249215	0.247488	0.336515	-0.434746	0.835317	0	0	0
58237	0	0	0	0	0	4.911437	2.366333	8.160588	0.084584	-0.046625	-0.057312	-0.697998	-0.504639	-0.440186	-0.609509	-0.280340	0.063092	-0.738869	16.576306	-29.418175	96.580081	-0.099816	0.865320	0.491180	-0.936069	-0.249036	0.248506	0.337359	-0.434974	0.834857	0	0	0
58238	0	0	0	0	0	4.881817	2.478302	8.189082	0.086195	-0.040120	-0.057704	-0.697998	-0.494873	-0.439209	-0.609608	-0.280788	0.062818	-0.738641	16.649739	-29.432032	96.531735	-0.099072	0.865286	0.491391	-0.935840	-0.248864	0.249542	0.338214	-0.435140	0.834424	0	0	0
58239	0	0	0	0	0	4.880862	2.605098	8.143912	0.077545	-0.032404	-0.053170	-0.694092	-0.500000	-0.446289	-0.609704	-0.281178	0.062559	-0.738435	16.715928	-29.442404	96.487809	-0.098399	0.865273	0.491548	-0.935634	-0.248694	0.250480	0.338979	-0.435262	0.834050	0	0	0
58240	0	0	0	0	0	4.833962	2.497220	8.202504	0.070921	-0.025490	-0.045254	-0.695313	-0.496094	-0.446045	-0.609783	-0.281521	0.062313	-0.738260	16.775429	-29.450192	96.450034	-0.097821	0.865272	0.491667	-0.935442	-0.248563	0.251327	0.339676	-0.435341	0.833726	0	0	0
58241	0	0	0	0	0	4.888265	2.431737	8.189478	0.068913	-0.025690	-0.047484	-0.691406	-0.501953	-0.439209	-0.609872	-0.281858	0.062074	-0.738077	16.834279	-29.457713	96.410928	-0.097223	0.865274	0.491781	-0.935258	-0.248405	0.252164	0.340352	-0.435426	0.833405	0	0	0
58242	0	0	0	0	0	4.862546	2.486830	8.178011	0.068326	-0.015084	-0.050429	-0.698975	-0.506836	-0.433105	-0.609977	-0.282156	0.061799	-0.737900	16.892937	-29.458868	96.371858	-0.096632	0.865330	0.491799	-0.935078	-0.248218	0.253014	0.341014	-0.435421	0.833137	0	0	0
58243	0	0	0	0	0	4.887616	2.471702	8.181063	0.062006	-0.010931	-0.050970	-0.698730	-0.494385	-0.441406	-0.610094	-0.282419	0.061536	-0.737725	16.947581	-29.457675	96.333266	-0.096050	0.865405	0.491780	-0.934921	-0.247998	0.253812	0.341611	-0.435397	0.832905	0	0	0
58244	0	0	0	0	0	4.934739	2.550343	8.148096	0.051698	-0.007035	-0.053813	-0.685059	-0.502441	-0.438965	-0.610236	-0.282638	0.061293	-0.737544	16.996998	-29.453788	96.293610	-0.095455	0.865505	0.491721	-0.934799	-0.247710	0.254540	0.342109	-0.435364	0.832718	0	0	0
58245	0	0	0	0	0	4.883837	2.578369	8.139765	0.033169	0.001491	-0.064886	-0.696777	-0.506348	-0.432617	-0.610448	-0.282771	0.061078	-0.737335	17.038195	-29.443385	96.248786	-0.094787	0.865668	0.491563	-0.934752	-0.247245	0.255165	0.342425	-0.435303	0.832620	0	0	0
58246	0	0	0	0	0	4.807504	2.493279	8.220251	0.013077	-0.002712	-0.056693	-0.705811	-0.506836	-0.436279	-0.610657	-0.282856	0.060960	-0.737139	17.065948	-29.436599	96.208166	-0.094180	0.865793	0.491460	-0.934764	-0.246763	0.255585	0.342558	-0.435328	0.832552	0	0	0
58247	0	0	0	0	0	4.854815	2.544866	8.192070	0.023098	-0.001451	-0.057482	-0.697998	-0.512451	-0.441162	-0.610854	-0.282968	0.060801	-0.736946	17.099387	-29.429044	96.167479	-0.093572	0.865924	0.491345	-0.934743	-0.246320	0.256090	0.342783	-0.435319	0.832465	0	0	0
58248	0	0	0	0	0	4.823143	2.647309	8.199773	0.002772	-0.000519	-0.052917	-0.694336	-0.506104	-0.429688	-0.611065	-0.283013	0.060720	-0.736761	17.119846	-29.421657	96.129671	-0.093007	0.866048	0.491233	-0.934786	-0.245826	0.256406	0.342818	-0.435350	0.832434	0	0	0
58249	0	0	0	0	0	4.795767	2.606537	8.253396	-0.015449	-0.001534	-0.045965	-0.689209	-0.510986	-0.436523	-0.611275	-0.283003	0.060720	-0.736590	17.127639	-29.416040	96.096049	-0.092504	0.866151	0.491148	-0.934887	-0.245312	0.256533	0.342681	-0.435437	0.832445	0	0	0
58250	0	0	0	0	0	4.906919	2.429796	8.189488	-0.023534	-0.000064	-0.052881	-0.688965	-0.513184	-0.442383	-0.611523	-0.282965	0.060735	-0.736398	17.132959	-29.408399	96.058360	-0.091942	0.866276	0.491031	-0.935020	-0.244703	0.256630	0.342469	-0.435529	0.832484	0	0	0
58251	0	0	0	0	0	4.827414	2.502086	8.198336	-0.031743	0.002712	-0.056647	-0.690674	-0.505371	-0.438721	-0.611798	-0.282893	0.060767	-0.736195	17.134292	-29.398618	96.018660	-0.091350	0.866423	0.490883	-0.935186	-0.244022	0.256674	0.342174	-0.435619	0.832558	0	0	0
58252	0	0	0	0	0	4.849857	2.503176	8.201297	-0.042138	0.007737	-0.058493	-0.692627	-0.507080	-0.437744	-0.612094	-0.282772	0.060818	-0.735990	17.129927	-29.385756	95.978963	-0.090761	0.866596	0.490687	-0.935386	-0.243283	0.256643	0.341782	-0.435689	0.832683	0	0	0
58253	0	0	0	0	0	4.805287	2.444613	8.158017	-0.044132	0.006683	-0.057412	-0.686523	-0.503662	-0.437744	-0.612389	-0.282647	0.060882	-0.735788	17.123978	-29.373701	95.939854	-0.090180	0.866760	0.490504	-0.935593	-0.242546	0.256587	0.341369	-0.435773	0.832808	0	0	0
58254	0	0	0	0	0	4.740788	2.664845	8.172548	-0.046532	0.011390	-0.051346	-0.685547	-0.511963	-0.437500	-0.612667	-0.282497	0.060949	-0.735609	17.114528	-29.360053	95.905361	-0.089671	0.866931	0.490296	-0.935802	-0.241850	0.256484	0.340932	-0.435821	0.832962	0	0	0
