// General information: 
//  MT Manager version: 2022.2.0 
//  XDA version: 2022.2.0 build 7381 rev 124627 built on 2023-07-19
// Device information: 
//  DeviceId: 10B426DD
//  ProductCode: MTW2-3A7G6
//  Firmware Version: 4.14.0
//  Hardware Version: 3.0.0
// Device settings: 
//  Filter Profile: human(46.1)
//  Option Flags: Orientation Smoother Disabled, Position/Velocity Smoother Disabled, Continuous Zero Rotation Update Disabled, AHS Disabled, ICC Disabled
// Coordinate system: ENU
PacketCounter	SampleTimeFine	Year	Month	Day	Second	Acc_X	Acc_Y	Acc_Z	Gyr_X	Gyr_Y	Gyr_Z	Mag_X	Mag_Y	Mag_Z	Quat_q0	Quat_q1	Quat_q2	Quat_q3	Roll	Pitch	Yaw	Mat[1][1]	Mat[2][1]	Mat[3][1]	Mat[1][2]	Mat[2][2]	Mat[3][2]	Mat[1][3]	Mat[2][3]	Mat[3][3]	Vel_E	Vel_N	Vel_U
57802	0	0	0	0	0	8.595728	-0.010106	4.852862	-0.043781	-0.006783	0.005225	-0.947754	-0.352295	-0.368408	-0.516535	-0.404471	0.303334	-0.691074	-0.164694	-60.739190	106.544775	-0.139189	0.468549	0.872404	-0.959308	-0.282360	-0.001405	0.245673	-0.837099	0.488784	0	0	0
57803	0	0	0	0	0	8.591414	-0.045759	4.843213	-0.046487	-0.007044	0.005695	-0.946289	-0.360596	-0.370605	-0.516604	-0.404360	0.303527	-0.691003	-0.197914	-60.742707	106.551347	-0.139227	0.468482	0.872434	-0.959418	-0.281984	-0.001688	0.245222	-0.837263	0.488729	0	0	0
57804	0	0	0	0	0	8.581108	-0.023088	4.821723	-0.044833	-0.005061	0.004441	-0.946045	-0.359375	-0.373535	-0.516683	-0.404246	0.303708	-0.690931	-0.228464	-60.745006	106.555090	-0.139248	0.468439	0.872453	-0.959530	-0.281600	-0.001949	0.244770	-0.837416	0.488693	0	0	0
57805	0	0	0	0	0	8.560283	-0.019245	4.810471	-0.029908	-0.009873	0.001624	-0.942627	-0.361572	-0.372314	-0.516734	-0.404191	0.303844	-0.690865	-0.247616	-60.750018	106.555687	-0.139231	0.468364	0.872496	-0.959609	-0.281330	-0.002112	0.244470	-0.837549	0.488616	0	0	0
57806	0	0	0	0	0	8.524534	0.022139	4.737337	-0.025847	-0.019480	0.005088	-0.949951	-0.360107	-0.374756	-0.516750	-0.404175	0.303998	-0.690794	-0.268021	-60.760575	106.560269	-0.139223	0.468199	0.872586	-0.959673	-0.281108	-0.002285	0.244221	-0.837716	0.488455	0	0	0
57807	0	0	0	0	0	8.584232	-0.030191	4.758600	-0.037611	-0.013963	-0.002496	-0.947754	-0.359131	-0.367432	-0.516826	-0.404121	0.304163	-0.690697	-0.287355	-60.767915	106.555879	-0.139155	0.468103	0.872649	-0.959777	-0.280752	-0.002449	0.243851	-0.837889	0.488342	0	0	0
57808	0	0	0	0	0	8.606255	-0.037718	4.767671	-0.036733	-0.021086	-0.001190	-0.942627	-0.357422	-0.369141	-0.516884	-0.404092	0.304347	-0.690590	-0.307592	-60.779410	106.553121	-0.139083	0.467941	0.872747	-0.959877	-0.280409	-0.002621	0.243500	-0.838094	0.488166	0	0	0
57809	0	0	0	0	0	8.619209	-0.066481	4.726777	-0.035861	-0.025660	0.000131	-0.941650	-0.360352	-0.371338	-0.516925	-0.404080	0.304540	-0.690480	-0.328740	-60.793545	106.552427	-0.139016	0.467737	0.872867	-0.959970	-0.280087	-0.002800	0.243169	-0.838316	0.487950	0	0	0
57810	0	0	0	0	0	8.575543	-0.052684	4.823047	-0.034356	-0.022882	-0.004828	-0.937500	-0.360107	-0.370605	-0.516988	-0.404068	0.304712	-0.690364	-0.343909	-60.806082	106.545423	-0.138904	0.467571	0.872974	-0.960069	-0.279747	-0.002928	0.242843	-0.838522	0.487758	0	0	0
57811	0	0	0	0	0	8.550723	-0.036144	4.770212	-0.027705	-0.022201	-0.001472	-0.951416	-0.356445	-0.372803	-0.517028	-0.404066	0.304867	-0.690267	-0.358576	-60.818136	106.542107	-0.138825	0.467403	0.873076	-0.960148	-0.279477	-0.003051	0.242578	-0.838706	0.487574	0	0	0
57812	0	0	0	0	0	8.647236	-0.041788	4.800078	-0.027704	-0.025822	0.002713	-0.943115	-0.361572	-0.368896	-0.517047	-0.404071	0.305039	-0.690174	-0.377697	-60.832331	106.543998	-0.138779	0.467191	0.873197	-0.960220	-0.279228	-0.003213	0.242320	-0.838907	0.487356	0	0	0
57813	0	0	0	0	0	8.594309	-0.093929	4.878115	-0.027709	-0.022189	-0.001485	-0.945801	-0.355469	-0.375244	-0.517084	-0.404070	0.305192	-0.690079	-0.392521	-60.844442	106.541209	-0.138703	0.467020	0.873300	-0.960296	-0.278963	-0.003338	0.242060	-0.839090	0.487171	0	0	0
57814	0	0	0	0	0	8.601225	-0.063903	4.825562	-0.021609	-0.022532	0.003693	-0.943848	-0.361572	-0.367188	-0.517092	-0.404077	0.305337	-0.690005	-0.409149	-60.856749	106.544243	-0.138675	0.466833	0.873405	-0.960352	-0.278770	-0.003478	0.241855	-0.839258	0.486982	0	0	0
57815	0	0	0	0	0	8.618671	-0.059306	4.794020	-0.025913	-0.018466	0.001011	-0.943115	-0.356445	-0.374512	-0.517124	-0.404063	0.305480	-0.689926	-0.425477	-60.866683	106.544191	-0.138631	0.466688	0.873489	-0.960421	-0.278529	-0.003615	0.241605	-0.839419	0.486830	0	0	0
57816	0	0	0	0	0	8.604295	-0.068212	4.762303	-0.022722	-0.020934	0.003130	-0.947998	-0.360352	-0.374023	-0.517139	-0.404063	0.305623	-0.689851	-0.442167	-60.878075	106.546565	-0.138601	0.466516	0.873586	-0.960480	-0.278324	-0.003756	0.241387	-0.839583	0.486655	0	0	0
57817	0	0	0	0	0	8.615821	-0.049903	4.750250	-0.022587	-0.019599	-0.001530	-0.942139	-0.352783	-0.376465	-0.517173	-0.404064	0.305753	-0.689768	-0.454027	-60.888610	106.543309	-0.138529	0.466370	0.873676	-0.960546	-0.278095	-0.003855	0.241166	-0.839740	0.486494	0	0	0
57818	0	0	0	0	0	8.594478	-0.043500	4.797710	-0.023694	-0.021633	0.002100	-0.952148	-0.360107	-0.374512	-0.517192	-0.404066	0.305900	-0.689688	-0.470232	-60.900407	106.544490	-0.138487	0.466195	0.873776	-0.960609	-0.277876	-0.003991	0.240941	-0.839909	0.486313	0	0	0
57819	0	0	0	0	0	8.611867	-0.038702	4.766218	-0.020648	-0.018178	0.000501	-0.940918	-0.356689	-0.360840	-0.517217	-0.404064	0.306024	-0.689615	-0.483186	-60.910105	106.543722	-0.138439	0.466055	0.873858	-0.960667	-0.277673	-0.004100	0.240736	-0.840054	0.486164	0	0	0
57820	0	0	0	0	0	8.612798	-0.039892	4.764525	-0.022726	-0.020919	0.003111	-0.938477	-0.361084	-0.366455	-0.517232	-0.404063	0.306167	-0.689541	-0.499883	-60.921487	106.546101	-0.138409	0.465883	0.873955	-0.960726	-0.277467	-0.004240	0.240518	-0.840218	0.485989	0	0	0
57821	0	0	0	0	0	8.592637	-0.080024	4.783371	-0.027310	-0.018833	-0.002873	-0.949951	-0.357910	-0.365723	-0.517277	-0.404055	0.306306	-0.689449	-0.512859	-60.931761	106.541717	-0.138328	0.465743	0.874042	-0.960802	-0.277202	-0.004349	0.240261	-0.840382	0.485831	0	0	0
57822	0	0	0	0	0	8.587681	-0.067685	4.801214	-0.021204	-0.019186	0.002305	-0.951660	-0.356201	-0.366211	-0.517294	-0.404054	0.306438	-0.689379	-0.527849	-60.942155	106.543139	-0.138295	0.465587	0.874130	-0.960858	-0.277005	-0.004474	0.240055	-0.840533	0.485672	0	0	0
57823	0	0	0	0	0	8.620321	-0.055168	4.799863	-0.023154	-0.016965	-0.003924	-0.948486	-0.353516	-0.369629	-0.517335	-0.404052	0.306556	-0.689297	-0.537605	-60.951402	106.538068	-0.138213	0.465464	0.874208	-0.960923	-0.276777	-0.004556	0.239840	-0.840677	0.485530	0	0	0
57824	0	0	0	0	0	8.578749	-0.089009	4.808572	-0.019269	-0.014141	0.000157	-0.945801	-0.357178	-0.366455	-0.517363	-0.404042	0.306664	-0.689234	-0.549229	-60.958916	106.536908	-0.138171	0.465357	0.874272	-0.960978	-0.276586	-0.004653	0.239646	-0.840799	0.485414	0	0	0
57825	0	0	0	0	0	8.595925	-0.083910	4.777394	-0.018019	-0.018024	0.000231	-0.946289	-0.346924	-0.370117	-0.517379	-0.404049	0.306776	-0.689167	-0.560389	-60.968668	106.536451	-0.138125	0.465216	0.874354	-0.961027	-0.276414	-0.004746	0.239476	-0.840934	0.485265	0	0	0
57826	0	0	0	0	0	8.613213	-0.078658	4.745992	-0.017328	-0.019296	-0.002061	-0.944092	-0.359863	-0.372070	-0.517403	-0.404065	0.306886	-0.689090	-0.568668	-60.979148	106.532738	-0.138050	0.465071	0.874443	-0.961080	-0.276229	-0.004815	0.239307	-0.841074	0.485104	0	0	0
57827	0	0	0	0	0	8.608448	-0.110823	4.794812	-0.020936	-0.020131	-0.002840	-0.943604	-0.354492	-0.374268	-0.517435	-0.404076	0.307009	-0.689006	-0.578441	-60.990040	106.528414	-0.137967	0.464922	0.874535	-0.961142	-0.276012	-0.004896	0.239106	-0.841228	0.484937	0	0	0
57828	0	0	0	0	0	8.615183	-0.080098	4.742392	-0.018714	-0.023308	-0.001748	-0.948486	-0.364502	-0.365234	-0.517455	-0.404101	0.307135	-0.688920	-0.587883	-61.002818	106.525123	-0.137885	0.464743	0.874644	-0.961197	-0.275817	-0.004974	0.238930	-0.841391	0.484741	0	0	0
57829	0	0	0	0	0	8.625852	-0.060094	4.789857	-0.020930	-0.023753	0.001330	-0.952881	-0.358398	-0.376465	-0.517468	-0.404118	0.307274	-0.688838	-0.601704	-61.015796	106.525496	-0.137832	0.464553	0.874753	-0.961253	-0.275619	-0.005089	0.238735	-0.841561	0.484542	0	0	0
57830	0	0	0	0	0	8.664541	-0.060878	4.768564	-0.025941	-0.021343	-0.007488	-0.946777	-0.360840	-0.374023	-0.517525	-0.404127	0.307408	-0.688730	-0.609333	-61.027483	106.515400	-0.137699	0.464406	0.874852	-0.961334	-0.275337	-0.005151	0.238487	-0.841734	0.484363	0	0	0
57831	0	0	0	0	0	8.612591	-0.069293	4.755986	-0.019959	-0.023042	0.002342	-0.945557	-0.352051	-0.375244	-0.517535	-0.404141	0.307546	-0.688653	-0.623737	-61.039959	106.516696	-0.137655	0.464220	0.874958	-0.961388	-0.275146	-0.005271	0.238294	-0.841899	0.484171	0	0	0
57832	0	0	0	0	0	8.613617	-0.070243	4.754113	-0.020943	-0.020111	-0.002862	-0.947266	-0.356445	-0.369385	-0.517568	-0.404152	0.307669	-0.688567	-0.633278	-61.050913	106.512062	-0.137570	0.464071	0.875050	-0.961450	-0.274927	-0.005350	0.238092	-0.842053	0.484003	0	0	0
57833	0	0	0	0	0	8.603991	-0.090435	4.762732	-0.018447	-0.017682	-0.002635	-0.940430	-0.362061	-0.367920	-0.517599	-0.404159	0.307777	-0.688491	-0.641794	-61.060377	106.507794	-0.137495	0.463942	0.875130	-0.961506	-0.274729	-0.005420	0.237909	-0.842188	0.483857	0	0	0
57834	0	0	0	0	0	8.652945	-0.071354	4.731584	-0.013177	-0.017415	-0.003129	-0.950195	-0.353760	-0.364502	-0.517621	-0.404181	0.307866	-0.688422	-0.646580	-61.069789	106.502810	-0.137413	0.463816	0.875210	-0.961550	-0.274575	-0.005459	0.237778	-0.842308	0.483713	0	0	0
57835	0	0	0	0	0	8.605549	-0.091272	4.759901	-0.010820	-0.012695	-0.002424	-0.944824	-0.350098	-0.369873	-0.517641	-0.404192	0.307934	-0.688370	-0.650634	-61.076514	106.498897	-0.137353	0.463727	0.875266	-0.961586	-0.274449	-0.005492	0.237669	-0.842398	0.483610	0	0	0
57836	0	0	0	0	0	8.615777	-0.070507	4.808310	-0.009581	-0.012946	-0.006531	-0.946045	-0.360107	-0.371338	-0.517674	-0.404213	0.307992	-0.688306	-0.649778	-61.083388	106.489823	-0.137249	0.463648	0.875324	-0.961626	-0.274308	-0.005484	0.237566	-0.842487	0.483505	0	0	0
57837	0	0	0	0	0	8.584608	-0.084079	4.807067	-0.007212	-0.011859	-0.001649	-0.952637	-0.354248	-0.374756	-0.517688	-0.404229	0.308048	-0.688262	-0.652740	-61.089531	106.486636	-0.137197	0.463566	0.875376	-0.961654	-0.274211	-0.005507	0.237485	-0.842564	0.483411	0	0	0
57838	0	0	0	0	0	8.633240	-0.064649	4.776470	-0.002631	-0.010322	0.000150	-0.952393	-0.358154	-0.370117	-0.517688	-0.404248	0.308089	-0.688232	-0.654799	-61.094858	106.485441	-0.137164	0.463491	0.875421	-0.961668	-0.274160	-0.005524	0.237445	-0.842622	0.483329	0	0	0
57839	0	0	0	0	0	8.633736	-0.064542	4.775574	-0.004450	-0.010387	-0.006547	-0.947998	-0.352295	-0.367188	-0.517715	-0.404273	0.308122	-0.688183	-0.651136	-61.100208	106.476612	-0.137070	0.463434	0.875466	-0.961695	-0.274065	-0.005492	0.237390	-0.842685	0.483248	0	0	0
57840	0	0	0	0	0	8.629250	-0.052152	4.734544	-0.004589	-0.008094	-0.006070	-0.945068	-0.350830	-0.372070	-0.517744	-0.404290	0.308151	-0.688138	-0.647833	-61.104299	106.468012	-0.136982	0.463394	0.875501	-0.961723	-0.273969	-0.005464	0.237328	-0.842738	0.483186	0	0	0
57841	0	0	0	0	0	8.650852	-0.057751	4.744335	-0.003066	-0.006371	-0.006862	-0.942139	-0.360840	-0.363037	-0.517774	-0.404305	0.308168	-0.688099	-0.643124	-61.107356	106.458949	-0.136896	0.463371	0.875527	-0.961747	-0.273886	-0.005423	0.237281	-0.842777	0.483140	0	0	0
57842	0	0	0	0	0	8.640630	-0.076754	4.754078	0.000543	-0.005537	-0.006086	-0.947998	-0.359863	-0.365479	-0.517796	-0.404326	0.308173	-0.688067	-0.636832	-61.109981	106.450294	-0.136814	0.463353	0.875549	-0.961762	-0.273833	-0.005370	0.237266	-0.842804	0.483100	0	0	0
57843	0	0	0	0	0	8.631155	-0.052305	4.672884	-0.001941	-0.011591	-0.002145	-0.945313	-0.365723	-0.372070	-0.517799	-0.404357	0.308208	-0.688031	-0.635929	-61.116106	106.446635	-0.136758	0.463272	0.875600	-0.961776	-0.273784	-0.005361	0.237242	-0.842865	0.483007	0	0	0
57844	0	0	0	0	0	8.635502	-0.062504	4.772406	0.006085	0.000333	-0.007436	-0.944580	-0.359131	-0.370361	-0.517825	-0.404375	0.308175	-0.688017	-0.624989	-61.115376	106.436298	-0.136678	0.463308	0.875594	-0.961780	-0.273772	-0.005269	0.237272	-0.842849	0.483019	0	0	0
57845	0	0	0	0	0	8.598117	-0.061895	4.791480	0.003740	-0.008014	-0.003974	-0.946777	-0.362549	-0.374023	-0.517832	-0.404408	0.308179	-0.687989	-0.618854	-61.119310	106.429677	-0.136607	0.463266	0.875627	-0.961787	-0.273750	-0.005217	0.237287	-0.842879	0.482959	0	0	0
57846	0	0	0	0	0	8.621443	-0.070102	4.681705	0.005687	-0.006609	-0.001928	-0.955811	-0.352783	-0.365479	-0.517829	-0.404440	0.308177	-0.687974	-0.613940	-61.122522	106.425961	-0.136563	0.463228	0.875654	-0.961784	-0.273760	-0.005175	0.237322	-0.842897	0.482910	0	0	0
57847	0	0	0	0	0	8.598886	-0.061098	4.790110	0.001668	-0.010756	-0.001369	-0.943359	-0.358154	-0.364258	-0.517823	-0.404475	0.308200	-0.687947	-0.612056	-61.128093	106.423326	-0.136518	0.463152	0.875701	-0.961789	-0.273743	-0.005158	0.237328	-0.842944	0.482826	0	0	0
57848	0	0	0	0	0	8.622235	-0.069383	4.680257	0.006236	-0.005588	-0.003744	-0.944336	-0.357666	-0.365234	-0.517827	-0.404507	0.308190	-0.687931	-0.604927	-61.130731	106.417441	-0.136459	0.463127	0.875724	-0.961788	-0.273749	-0.005097	0.237368	-0.842956	0.482786	0	0	0
57849	0	0	0	0	0	8.642906	-0.073462	4.749991	0.004575	-0.005019	-0.002474	-0.944824	-0.355225	-0.363281	-0.517828	-0.404532	0.308185	-0.687917	-0.600006	-61.133064	106.413366	-0.136416	0.463103	0.875743	-0.961787	-0.273753	-0.005056	0.237396	-0.842968	0.482751	0	0	0
57850	0	0	0	0	0	8.600634	-0.061079	4.728717	0.003601	-0.005721	-0.003497	-0.948975	-0.355225	-0.371826	-0.517835	-0.404558	0.308185	-0.687896	-0.594643	-61.135776	106.407773	-0.136359	0.463077	0.875766	-0.961791	-0.273738	-0.005010	0.237410	-0.842987	0.482710	0	0	0
57851	0	0	0	0	0	8.628059	-0.080171	4.718924	0.003615	-0.009350	0.000676	-0.952637	-0.356445	-0.364502	-0.517821	-0.404590	0.308202	-0.687881	-0.593805	-61.140533	106.407629	-0.136337	0.463007	0.875806	-0.961789	-0.273747	-0.005002	0.237433	-0.843022	0.482637	0	0	0
57852	0	0	0	0	0	8.612133	-0.085868	4.748078	0.005262	-0.006289	-0.004768	-0.949951	-0.358887	-0.373047	-0.517828	-0.404624	0.308195	-0.687859	-0.586173	-61.143578	106.400533	-0.136267	0.462979	0.875832	-0.961791	-0.273740	-0.004937	0.237464	-0.843040	0.482591	0	0	0
57853	0	0	0	0	0	8.622735	-0.020915	4.706158	0.005276	-0.009918	-0.000595	-0.948486	-0.354004	-0.367920	-0.517814	-0.404664	0.308204	-0.687841	-0.583019	-61.148676	106.398864	-0.136231	0.462909	0.875875	-0.961786	-0.273758	-0.004910	0.237505	-0.843073	0.482513	0	0	0
57854	0	0	0	0	0	8.591721	-0.079050	4.736141	0.007911	-0.009784	-0.000844	-0.936768	-0.357666	-0.362061	-0.517797	-0.404711	0.308205	-0.687826	-0.577984	-61.153700	106.396466	-0.136190	0.462841	0.875917	-0.961777	-0.273791	-0.004867	0.237566	-0.843100	0.482437	0	0	0
57855	0	0	0	0	0	8.619078	-0.053121	4.694986	0.002918	-0.014632	-0.001306	-0.953613	-0.355225	-0.368164	-0.517783	-0.404763	0.308234	-0.687794	-0.575428	-61.161508	106.393919	-0.136136	0.462732	0.875983	-0.961779	-0.273786	-0.004844	0.237590	-0.843161	0.482318	0	0	0
57856	0	0	0	0	0	8.597782	-0.045498	4.742946	0.004169	-0.018510	-0.001243	-0.949951	-0.354492	-0.373779	-0.517762	-0.404830	0.308269	-0.687754	-0.572210	-61.171533	106.391149	-0.136070	0.462592	0.876067	-0.961779	-0.273786	-0.004816	0.237627	-0.843238	0.482165	0	0	0
57857	0	0	0	0	0	8.577370	-0.039254	4.730996	0.005143	-0.017807	-0.000222	-0.952148	-0.357910	-0.367920	-0.517735	-0.404896	0.308302	-0.687721	-0.569780	-61.181094	106.390024	-0.136020	0.462454	0.876148	-0.961774	-0.273802	-0.004794	0.237674	-0.843308	0.482019	0	0	0
57858	0	0	0	0	0	8.610016	-0.025594	4.729490	0.000985	-0.019661	0.000817	-0.944092	-0.355225	-0.368408	-0.517711	-0.404956	0.308355	-0.687679	-0.570541	-61.191766	106.389713	-0.135972	0.462298	0.876237	-0.961779	-0.273785	-0.004798	0.237682	-0.843399	0.481856	0	0	0
57859	0	0	0	0	0	8.621716	-0.050987	4.748514	0.001532	-0.018639	-0.000999	-0.948242	-0.365234	-0.364990	-0.517693	-0.405017	0.308400	-0.687637	-0.569208	-61.201832	106.387526	-0.135911	0.462156	0.876322	-0.961784	-0.273767	-0.004786	0.237696	-0.843483	0.481702	0	0	0
57860	0	0	0	0	0	8.617608	-0.038958	4.706631	-0.001651	-0.019791	0.001063	-0.943359	-0.358887	-0.366699	-0.517674	-0.405070	0.308463	-0.687592	-0.571737	-61.212578	106.387509	-0.135864	0.461998	0.876412	-0.961795	-0.273728	-0.004805	0.237679	-0.843582	0.481537	0	0	0
57861	0	0	0	0	0	8.628265	-0.018124	4.754427	-0.002078	-0.019471	-0.001776	-0.956055	-0.356445	-0.375000	-0.517666	-0.405126	0.308521	-0.687539	-0.571329	-61.223152	106.384022	-0.135790	0.461851	0.876501	-0.961810	-0.273675	-0.004800	0.237659	-0.843680	0.481376	0	0	0
57862	0	0	0	0	0	8.586950	-0.051039	4.762972	0.000556	-0.019336	-0.002028	-0.946533	-0.358154	-0.367676	-0.517653	-0.405188	0.308569	-0.687490	-0.569364	-61.233655	106.380321	-0.135715	0.461706	0.876590	-0.961820	-0.273641	-0.004782	0.237663	-0.843770	0.481215	0	0	0
57863	0	0	0	0	0	8.635891	-0.031517	4.731492	-0.001225	-0.020103	0.003894	-0.948486	-0.359619	-0.363770	-0.517623	-0.405238	0.308638	-0.687453	-0.574778	-61.244472	106.383782	-0.135696	0.461539	0.876680	-0.961826	-0.273618	-0.004826	0.237648	-0.843869	0.481049	0	0	0
57864	0	0	0	0	0	8.658084	-0.037763	4.740200	-0.002765	-0.018197	0.000514	-0.957520	-0.354248	-0.373779	-0.517610	-0.405284	0.308700	-0.687407	-0.577356	-61.254308	106.383094	-0.135648	0.461396	0.876763	-0.961840	-0.273568	-0.004846	0.237618	-0.843963	0.480898	0	0	0
57865	0	0	0	0	0	8.642746	-0.043900	4.768430	-0.002081	-0.019465	-0.001783	-0.943604	-0.354492	-0.367188	-0.517600	-0.405340	0.308757	-0.687356	-0.577344	-61.264857	106.380108	-0.135579	0.461248	0.876851	-0.961855	-0.273517	-0.004844	0.237599	-0.844061	0.480737	0	0	0
57866	0	0	0	0	0	8.606892	-0.045456	4.726394	-0.000541	-0.021368	0.001592	-0.947754	-0.355225	-0.364258	-0.517575	-0.405401	0.308822	-0.687310	-0.579810	-61.276504	106.380744	-0.135534	0.461076	0.876949	-0.961862	-0.273491	-0.004863	0.237595	-0.844164	0.480559	0	0	0
57867	0	0	0	0	0	8.633904	-0.018542	4.744178	-0.000970	-0.021049	-0.001246	-0.948730	-0.359619	-0.365479	-0.517559	-0.405464	0.308881	-0.687259	-0.579708	-61.287953	106.378341	-0.135465	0.460913	0.877045	-0.961874	-0.273451	-0.004861	0.237588	-0.844265	0.480383	0	0	0
57868	0	0	0	0	0	8.608858	-0.045560	4.722811	-0.001654	-0.019777	0.001047	-0.951172	-0.366699	-0.363770	-0.517539	-0.405517	0.308945	-0.687213	-0.582226	-61.298691	106.378310	-0.135418	0.460756	0.877135	-0.961885	-0.273412	-0.004880	0.237571	-0.844364	0.480219	0	0	0
57869	0	0	0	0	0	8.630062	-0.005303	4.760282	-0.004718	-0.019591	-0.001540	-0.952148	-0.364990	-0.367920	-0.517534	-0.405567	0.309011	-0.687158	-0.583559	-61.309366	106.375238	-0.135347	0.460606	0.877225	-0.961905	-0.273340	-0.004890	0.237529	-0.844469	0.480055	0	0	0
57870	0	0	0	0	0	8.616466	-0.059426	4.699829	-0.003861	-0.020225	0.004131	-0.942139	-0.355713	-0.370117	-0.517508	-0.405611	0.309090	-0.687116	-0.590577	-61.320343	106.378895	-0.135329	0.460436	0.877317	-0.961917	-0.273297	-0.004947	0.237491	-0.844575	0.479887	0	0	0
57871	0	0	0	0	0	8.637687	-0.019317	4.737282	-0.007784	-0.019403	-0.004128	-0.946533	-0.357910	-0.375000	-0.517522	-0.405654	0.309163	-0.687047	-0.591108	-61.330789	106.372347	-0.135232	0.460298	0.877404	-0.961951	-0.273179	-0.004949	0.237410	-0.844689	0.479727	0	0	0
57872	0	0	0	0	0	8.633876	-0.052459	4.726352	-0.009014	-0.019151	-0.000020	-0.950195	-0.363037	-0.373047	-0.517522	-0.405688	0.309248	-0.686989	-0.596721	-61.341175	106.371038	-0.135176	0.460149	0.877491	-0.961980	-0.273073	-0.004995	0.237321	-0.844804	0.479567	0	0	0
57873	0	0	0	0	0	8.623276	-0.026219	4.763932	-0.014421	-0.017127	0.000965	-0.953125	-0.367188	-0.370361	-0.517538	-0.405696	0.309349	-0.686927	-0.606430	-61.350179	106.370150	-0.135130	0.460018	0.877566	-0.962025	-0.272914	-0.005075	0.237166	-0.844927	0.479428	0	0	0
57874	0	0	0	0	0	8.656139	-0.058793	4.793597	-0.024259	-0.012380	0.003960	-0.954834	-0.354980	-0.366699	-0.517566	-0.405660	0.309477	-0.686869	-0.624882	-61.356661	106.373517	-0.135129	0.459915	0.877621	-0.962085	-0.272698	-0.005228	0.236921	-0.845052	0.479327	0	0	0
57875	0	0	0	0	0	8.613123	-0.001677	4.800747	-0.017761	-0.012362	-0.000658	-0.948242	-0.360352	-0.364746	-0.517597	-0.405649	0.309573	-0.686809	-0.634748	-61.363120	106.371411	-0.135085	0.459825	0.877675	-0.962136	-0.272517	-0.005309	0.236740	-0.845160	0.479227	0	0	0
57876	0	0	0	0	0	8.615513	-0.050147	4.710612	-0.008020	-0.022067	0.005155	-0.949463	-0.359863	-0.362549	-0.517573	-0.405687	0.309672	-0.686760	-0.645271	-61.375144	106.376345	-0.135072	0.459637	0.877775	-0.962157	-0.272443	-0.005395	0.236664	-0.845286	0.479042	0	0	0
57877	0	0	0	0	0	8.610180	-0.036054	4.788244	-0.016808	-0.018199	-0.003928	-0.947754	-0.361084	-0.367432	-0.517602	-0.405705	0.309772	-0.686683	-0.651150	-61.385031	106.370566	-0.134983	0.459505	0.877858	-0.962209	-0.272258	-0.005443	0.236503	-0.845417	0.478890	0	0	0
57878	0	0	0	0	0	8.632866	-0.044044	4.737286	-0.009406	-0.015904	0.005581	-0.947510	-0.355225	-0.369873	-0.517589	-0.405717	0.309861	-0.686645	-0.662850	-61.393520	106.375935	-0.134990	0.459368	0.877929	-0.962232	-0.272175	-0.005539	0.236406	-0.845519	0.478759	0	0	0
57879	0	0	0	0	0	8.617968	-0.007265	4.674421	-0.005387	-0.032093	0.004764	-0.939209	-0.356201	-0.364990	-0.517547	-0.405796	0.309977	-0.686578	-0.671624	-61.411176	106.380360	-0.134949	0.459098	0.878076	-0.962247	-0.272118	-0.005609	0.236366	-0.845684	0.478488	0	0	0
57880	0	0	0	0	0	8.573169	-0.075344	4.612659	-0.013998	-0.037754	0.003520	-0.943604	-0.360840	-0.366211	-0.517517	-0.405875	0.310134	-0.686483	-0.684071	-61.432196	106.383582	-0.134884	0.458781	0.878252	-0.962284	-0.271987	-0.005709	0.236254	-0.845898	0.478164	0	0	0
57881	0	0	0	0	0	8.600289	-0.047060	4.747995	-0.030110	-0.050660	0.001569	-0.947510	-0.357178	-0.371582	-0.517508	-0.405959	0.310376	-0.686331	-0.703755	-61.460516	106.384260	-0.134767	0.458363	0.878488	-0.962363	-0.271705	-0.005868	0.236000	-0.846215	0.477728	0	0	0
57882	0	0	0	0	0	8.671368	-0.033861	4.783835	-0.034543	-0.047923	0.003567	-0.942627	-0.354736	-0.373291	-0.517503	-0.406019	0.310630	-0.686184	-0.728190	-61.487361	106.387725	-0.134678	0.457960	0.878712	-0.962448	-0.271399	-0.006067	0.235704	-0.846531	0.477314	0	0	0
57883	0	0	0	0	0	8.630397	-0.022775	4.819234	-0.034519	-0.041375	0.007851	-0.956787	-0.358643	-0.362549	-0.517498	-0.406047	0.310878	-0.686058	-0.757198	-61.510173	106.395601	-0.134643	0.457606	0.878902	-0.962530	-0.271101	-0.006304	0.235386	-0.846818	0.476961	0	0	0
57884	0	0	0	0	0	8.610829	-0.018788	4.805815	-0.025933	-0.032085	0.004925	-0.948242	-0.362061	-0.368896	-0.517496	-0.406074	0.311064	-0.685960	-0.777960	-61.527932	106.400499	-0.134605	0.457333	0.879050	-0.962593	-0.270874	-0.006473	0.235152	-0.847038	0.476686	0	0	0
57885	0	0	0	0	0	8.628739	-0.015467	4.713533	-0.017864	-0.027442	0.007973	-0.948486	-0.360596	-0.368652	-0.517474	-0.406100	0.311217	-0.685892	-0.797186	-61.542970	106.408978	-0.134607	0.457092	0.879175	-0.962632	-0.270731	-0.006630	0.234989	-0.847214	0.476453	0	0	0
57886	0	0	0	0	0	8.657012	-0.036149	4.701777	-0.009959	-0.027049	0.007208	-0.941895	-0.349365	-0.364990	-0.517439	-0.406147	0.311340	-0.685835	-0.811162	-61.557824	106.416565	-0.134603	0.456855	0.879298	-0.962654	-0.270650	-0.006743	0.234901	-0.847368	0.476224	0	0	0
57887	0	0	0	0	0	8.711407	-0.029378	4.709546	-0.010153	-0.027668	-0.000765	-0.952393	-0.355469	-0.372803	-0.517432	-0.406206	0.311450	-0.685754	-0.816928	-61.572957	106.414362	-0.134520	0.456637	0.879424	-0.962689	-0.270526	-0.006787	0.234808	-0.847525	0.475991	0	0	0
57888	0	0	0	0	0	8.643154	0.001730	4.695903	-0.008230	-0.032798	-0.003029	-0.953369	-0.346436	-0.366943	-0.517420	-0.406294	0.311561	-0.685662	-0.819176	-61.591188	106.409739	-0.134404	0.456380	0.879575	-0.962720	-0.270413	-0.006802	0.234744	-0.847699	0.475711	0	0	0
57889	0	0	0	0	0	8.676386	0.015126	4.693110	-0.010457	-0.029622	-0.004099	-0.950439	-0.364502	-0.371094	-0.517421	-0.406363	0.311670	-0.685570	-0.821971	-61.607455	106.404037	-0.134288	0.456154	0.879710	-0.962759	-0.270274	-0.006821	0.234651	-0.847866	0.475461	0	0	0
57890	0	0	0	0	0	8.634714	0.028224	4.730008	-0.014643	-0.027839	-0.007216	-0.955078	-0.357910	-0.367676	-0.517444	-0.406423	0.311782	-0.685466	-0.823376	-61.622879	106.394281	-0.134144	0.455949	0.879838	-0.962812	-0.270087	-0.006830	0.234519	-0.848035	0.475224	0	0	0
57891	0	0	0	0	0	8.663272	0.007464	4.658423	-0.021029	-0.026507	-0.007245	-0.946533	-0.359131	-0.363525	-0.517485	-0.406460	0.311913	-0.685353	-0.828268	-61.637398	106.383911	-0.133998	0.455760	0.879959	-0.962881	-0.269839	-0.006867	0.234317	-0.848216	0.475000	0	0	0
57892	0	0	0	0	0	8.637390	0.026624	4.665848	-0.021192	-0.020599	-0.010907	-0.955078	-0.362549	-0.369873	-0.517545	-0.406484	0.312021	-0.685245	-0.829389	-61.648705	106.369571	-0.133835	0.455627	0.880053	-0.962953	-0.269580	-0.006874	0.234113	-0.848370	0.474827	0	0	0
57893	0	0	0	0	0	8.649395	0.000855	4.684399	-0.021165	-0.024216	-0.006763	-0.951172	-0.360596	-0.369385	-0.517587	-0.406513	0.312147	-0.685138	-0.834799	-61.661949	106.359870	-0.133701	0.455454	0.880162	-0.963022	-0.269335	-0.006916	0.233909	-0.848540	0.474622	0	0	0
57894	0	0	0	0	0	8.618221	0.032188	4.651608	-0.017855	-0.025346	-0.009326	-0.947754	-0.350586	-0.363770	-0.517628	-0.406560	0.312259	-0.685029	-0.835751	-61.675964	106.347513	-0.133542	0.455276	0.880278	-0.963084	-0.269112	-0.006920	0.233743	-0.848706	0.474407	0	0	0
57895	0	0	0	0	0	8.608186	0.058698	4.688745	-0.023127	-0.025598	-0.008823	-0.952637	-0.352783	-0.362793	-0.517678	-0.406591	0.312391	-0.684913	-0.840374	-61.690003	106.335673	-0.133387	0.455097	0.880395	-0.963159	-0.268843	-0.006956	0.233522	-0.848888	0.474191	0	0	0
57896	0	0	0	0	0	8.652205	0.046471	4.706728	-0.028031	-0.029067	-0.013955	-0.944580	-0.354736	-0.362549	-0.517749	-0.406631	0.312539	-0.684768	-0.842279	-61.706189	106.317780	-0.133175	0.454900	0.880529	-0.963251	-0.268512	-0.006968	0.233263	-0.849098	0.473942	0	0	0
57897	0	0	0	0	0	8.632257	0.052376	4.693950	-0.034591	-0.031966	-0.017812	-0.949219	-0.360107	-0.362305	-0.517840	-0.406670	0.312708	-0.684598	-0.844029	-61.724027	106.295575	-0.132922	0.454688	0.880676	-0.963363	-0.268110	-0.006978	0.232946	-0.849338	0.473668	0	0	0
57898	0	0	0	0	0	8.649588	0.059558	4.720929	-0.037097	-0.034362	-0.018068	-0.951660	-0.361328	-0.364990	-0.517936	-0.406711	0.312891	-0.684418	-0.846808	-61.743282	106.272783	-0.132658	0.454457	0.880835	-0.963481	-0.267684	-0.006997	0.232606	-0.849597	0.473371	0	0	0
57899	0	0	0	0	0	8.624377	0.078519	4.727255	-0.043627	-0.040876	-0.017789	-0.947998	-0.360596	-0.362549	-0.518034	-0.406756	0.313114	-0.684215	-0.853542	-61.766217	106.250205	-0.132380	0.454171	0.881025	-0.963615	-0.267201	-0.007047	0.232211	-0.849901	0.473018	0	0	0
57900	0	0	0	0	0	8.653030	0.058924	4.714626	-0.045489	-0.030766	-0.024316	-0.961914	-0.358398	-0.366943	-0.518173	-0.406773	0.313304	-0.684012	-0.854373	-61.783466	106.219755	-0.132065	0.453986	0.881167	-0.963761	-0.266675	-0.007050	0.231785	-0.850165	0.472753	0	0	0
57901	0	0	0	0	0	8.633024	0.065784	4.761535	-0.051614	-0.033976	-0.025355	-0.949463	-0.357178	-0.369629	-0.518323	-0.406786	0.313521	-0.683792	-0.857612	-61.802518	106.188111	-0.131733	0.453778	0.881324	-0.963922	-0.266092	-0.007072	0.231304	-0.850459	0.472459	0	0	0
57902	0	0	0	0	0	8.633863	0.110732	4.728081	-0.055814	-0.032169	-0.028486	-0.950928	-0.366455	-0.371094	-0.518495	-0.406788	0.313741	-0.683559	-0.859886	-61.820608	106.152596	-0.131374	0.453592	0.881473	-0.964096	-0.265459	-0.007087	0.230780	-0.850756	0.472181	0	0	0
57903	0	0	0	0	0	8.625088	0.090723	4.735503	-0.060517	-0.035009	-0.025671	-0.946045	-0.358643	-0.365234	-0.518668	-0.406779	0.313992	-0.683318	-0.867731	-61.840090	106.119621	-0.131029	0.453380	0.881634	-0.964281	-0.264785	-0.007147	0.230203	-0.851079	0.471880	0	0	0
57904	0	0	0	0	0	8.615601	0.115886	4.712267	-0.060430	-0.033632	-0.030342	-0.951904	-0.363037	-0.364502	-0.518853	-0.406776	0.314228	-0.683071	-0.870643	-61.859038	106.081842	-0.130650	0.453186	0.881790	-0.964468	-0.264104	-0.007167	0.229636	-0.851394	0.471588	0	0	0
57905	0	0	0	0	0	8.606050	0.141987	4.748849	-0.064595	-0.035446	-0.029341	-0.946777	-0.359375	-0.361816	-0.519043	-0.406765	0.314486	-0.682814	-0.876849	-61.878916	106.044864	-0.130273	0.452976	0.881953	-0.964663	-0.263387	-0.007213	0.229027	-0.851728	0.471281	0	0	0
57906	0	0	0	0	0	8.639355	0.155082	4.745827	-0.067819	-0.032937	-0.031452	-0.952148	-0.363281	-0.363281	-0.519248	-0.406743	0.314743	-0.682553	-0.882745	-61.897478	106.005682	-0.129884	0.452790	0.882106	-0.964867	-0.262637	-0.007257	0.228388	-0.852058	0.470995	0	0	0
57907	0	0	0	0	0	8.646438	0.142393	4.783101	-0.060900	-0.033219	-0.033269	-0.949219	-0.366211	-0.362061	-0.519445	-0.406741	0.314973	-0.682298	-0.882504	-61.916170	105.964041	-0.129476	0.452608	0.882260	-0.965058	-0.261937	-0.007251	0.227815	-0.852370	0.470707	0	0	0
57908	0	0	0	0	0	8.604230	0.201063	4.789625	-0.045978	-0.031766	-0.040477	-0.948975	-0.355469	-0.375977	-0.519639	-0.406785	0.315134	-0.682050	-0.866116	-61.934138	105.913799	-0.129003	0.452455	0.882407	-0.965223	-0.261332	-0.007112	0.227384	-0.852637	0.470432	0	0	0
57909	0	0	0	0	0	8.621457	0.206240	4.577516	-0.060690	-0.034087	-0.038474	-0.944336	-0.355713	-0.364502	-0.519856	-0.406793	0.315357	-0.681777	-0.860195	-61.953219	105.865275	-0.128539	0.452281	0.882564	-0.965421	-0.260601	-0.007059	0.226804	-0.852953	0.470139	0	0	0
57910	0	0	0	0	0	8.607553	0.201569	4.723695	-0.067802	-0.048076	-0.040814	-0.948486	-0.359131	-0.364258	-0.520068	-0.406836	0.315634	-0.681461	-0.856124	-61.980528	105.814840	-0.128027	0.451990	0.882788	-0.965635	-0.259808	-0.007019	0.226183	-0.853349	0.469719	0	0	0
57911	0	0	0	0	0	8.620101	0.222589	4.769240	-0.063301	-0.049379	-0.047546	-0.952393	-0.360596	-0.364746	-0.520294	-0.406905	0.315886	-0.681130	-0.842178	-62.008518	105.755943	-0.127445	0.451706	0.883017	-0.965847	-0.259020	-0.006898	0.225603	-0.853739	0.469290	0	0	0
57912	0	0	0	0	0	8.579596	0.235373	4.744869	-0.069386	-0.056190	-0.044505	-0.948242	-0.355225	-0.359619	-0.520510	-0.406977	0.316182	-0.680785	-0.835037	-62.040498	105.701031	-0.126878	0.451353	0.883279	-0.966068	-0.258197	-0.006833	0.224976	-0.854175	0.468798	0	0	0
57913	0	0	0	0	0	8.534745	0.215541	4.770353	-0.070918	-0.057859	-0.043784	-0.945068	-0.362549	-0.366455	-0.520723	-0.407050	0.316488	-0.680436	-0.829520	-62.073376	105.647107	-0.126317	0.450984	0.883548	-0.966290	-0.257366	-0.006780	0.224337	-0.854620	0.468291	0	0	0
57914	0	0	0	0	0	8.606305	0.229724	4.685158	-0.071059	-0.065652	-0.043578	-0.943604	-0.358154	-0.368164	-0.520923	-0.407148	0.316817	-0.680071	-0.824337	-62.110764	105.593360	-0.125739	0.450547	0.883854	-0.966512	-0.256533	-0.006730	0.223705	-0.855101	0.467715	0	0	0
57915	0	0	0	0	0	8.625262	0.237019	4.709409	-0.076883	-0.066883	-0.041331	-0.954834	-0.364502	-0.358643	-0.521131	-0.407229	0.317173	-0.679697	-0.824725	-62.148618	105.541498	-0.125174	0.450098	0.884162	-0.966747	-0.255647	-0.006724	0.223007	-0.855603	0.467131	0	0	0
57916	0	0	0	0	0	8.601215	0.256010	4.713918	-0.079143	-0.063659	-0.042427	-0.949707	-0.357422	-0.359375	-0.521347	-0.407298	0.317526	-0.679326	-0.825239	-62.184853	105.488993	-0.124613	0.449674	0.884458	-0.966984	-0.254750	-0.006721	0.222293	-0.856094	0.466572	0	0	0
57917	0	0	0	0	0	8.636892	0.223546	4.678337	-0.079889	-0.073847	-0.035798	-0.953369	-0.357178	-0.369629	-0.521524	-0.407389	0.317919	-0.678951	-0.833347	-62.226881	105.444974	-0.124094	0.449144	0.884800	-0.967212	-0.253881	-0.006777	0.221590	-0.856630	0.465922	0	0	0
57918	0	0	0	0	0	8.629195	0.249152	4.712019	-0.078847	-0.071729	-0.039469	-0.944824	-0.360352	-0.364990	-0.521716	-0.407481	0.318298	-0.678571	-0.836894	-62.267720	105.396127	-0.123544	0.448641	0.885132	-0.967443	-0.252998	-0.006797	0.220887	-0.857154	0.465291	0	0	0
57919	0	0	0	0	0	8.648282	0.255251	4.675674	-0.078736	-0.078971	-0.031294	-0.958740	-0.363037	-0.365479	-0.521872	-0.407582	0.318712	-0.678196	-0.849359	-62.312428	105.356911	-0.123054	0.448060	0.885494	-0.967665	-0.252144	-0.006888	0.220186	-0.857710	0.464599	0	0	0
57920	0	0	0	0	0	8.656422	0.287071	4.679034	-0.083113	-0.074833	-0.033940	-0.946777	-0.355957	-0.364746	-0.522049	-0.407664	0.319124	-0.677816	-0.861310	-62.355006	105.314833	-0.122551	0.447515	0.885839	-0.967897	-0.251250	-0.006975	0.219446	-0.858256	0.463939	0	0	0
57921	0	0	0	0	0	8.639740	0.246405	4.692802	-0.085040	-0.079779	-0.031975	-0.953125	-0.363770	-0.365723	-0.522216	-0.407753	0.319560	-0.677428	-0.876550	-62.400252	105.274979	-0.122055	0.446925	0.886206	-0.968131	-0.250343	-0.007087	0.218687	-0.858829	0.463238	0	0	0
57922	0	0	0	0	0	8.663574	0.284453	4.665939	-0.084799	-0.079201	-0.024031	-0.955566	-0.357666	-0.362305	-0.522356	-0.407829	0.320009	-0.677063	-0.900318	-62.445255	105.245176	-0.121640	0.446317	0.886569	-0.968353	-0.249477	-0.007269	0.217935	-0.859396	0.462539	0	0	0
57923	0	0	0	0	0	8.635483	0.268820	4.659789	-0.084428	-0.075847	-0.025368	-0.948242	-0.360840	-0.358643	-0.522506	-0.407896	0.320445	-0.676700	-0.922266	-62.488219	105.213387	-0.121217	0.445743	0.886916	-0.968576	-0.248605	-0.007435	0.217178	-0.859947	0.461871	0	0	0
57924	0	0	0	0	0	8.628175	0.292776	4.693253	-0.085363	-0.080116	-0.022370	-0.948242	-0.356689	-0.367432	-0.522639	-0.407971	0.320902	-0.676336	-0.948173	-62.533742	105.185655	-0.120817	0.445121	0.887283	-0.968796	-0.247742	-0.007632	0.216420	-0.860518	0.461163	0	0	0
57925	0	0	0	0	0	8.637195	0.277708	4.666770	-0.082547	-0.075777	-0.018772	-0.952881	-0.364502	-0.368408	-0.522763	-0.408031	0.321345	-0.675993	-0.976266	-62.576568	105.161843	-0.120459	0.444531	0.887627	-0.969006	-0.246911	-0.007847	0.215677	-0.861062	0.460496	0	0	0
57926	0	0	0	0	0	8.625231	0.268377	4.690533	-0.087847	-0.075963	-0.018341	-0.950439	-0.364258	-0.358154	-0.522894	-0.408079	0.321807	-0.675643	-1.007964	-62.619685	105.139052	-0.120107	0.443934	0.887973	-0.969225	-0.246044	-0.008090	0.214889	-0.861618	0.459824	0	0	0
57927	0	0	0	0	0	8.638737	0.285732	4.674218	-0.083243	-0.074442	-0.016566	-0.950684	-0.362305	-0.363525	-0.523016	-0.408129	0.322254	-0.675306	-1.038624	-62.661742	105.117655	-0.119771	0.443349	0.888311	-0.969433	-0.245215	-0.008324	0.214136	-0.862155	0.459167	0	0	0
57928	0	0	0	0	0	8.626000	0.276326	4.638235	-0.081666	-0.076339	-0.013283	-0.956055	-0.362793	-0.360596	-0.523116	-0.408185	0.322706	-0.674978	-1.072417	-62.705032	105.101226	-0.119469	0.442736	0.888658	-0.969631	-0.244422	-0.008583	0.213407	-0.862695	0.458491	0	0	0
57929	0	0	0	0	0	8.630293	0.273419	4.691797	-0.080826	-0.073361	-0.011755	-0.945801	-0.361084	-0.355469	-0.523216	-0.408230	0.323150	-0.674660	-1.107131	-62.746449	105.086106	-0.119185	0.442147	0.888989	-0.969826	-0.243637	-0.008848	0.212678	-0.863219	0.457844	0	0	0
57930	0	0	0	0	0	8.648323	0.323011	4.685739	-0.081027	-0.072459	-0.006632	-0.951416	-0.361328	-0.359131	-0.523299	-0.408265	0.323604	-0.674358	-1.147929	-62.787451	105.077979	-0.118957	0.441549	0.889316	-0.970014	-0.242878	-0.009161	0.211950	-0.863739	0.457201	0	0	0
57931	0	0	0	0	0	8.672422	0.314048	4.629449	-0.076804	-0.074246	-0.003595	-0.948975	-0.355713	-0.359619	-0.523361	-0.408311	0.324053	-0.674066	-1.189450	-62.829332	105.073303	-0.118752	0.440931	0.889650	-0.970188	-0.242166	-0.009479	0.211264	-0.864254	0.456544	0	0	0
57932	0	0	0	0	0	8.653967	0.317070	4.614118	-0.078773	-0.064076	-0.009981	-0.955322	-0.366211	-0.362793	-0.523463	-0.408328	0.324470	-0.673776	-1.225105	-62.865578	105.060853	-0.118510	0.440413	0.889939	-0.970374	-0.241412	-0.009751	0.210547	-0.864729	0.455975	0	0	0
57933	0	0	0	0	0	8.656389	0.359591	4.638752	-0.076447	-0.070865	-0.004951	-0.954834	-0.355713	-0.356445	-0.523536	-0.408364	0.324907	-0.673487	-1.264984	-62.905468	105.054300	-0.118299	0.439829	0.890256	-0.970549	-0.240692	-0.010055	0.209855	-0.865227	0.455349	0	0	0
57934	0	0	0	0	0	8.643213	0.349713	4.603421	-0.076727	-0.066317	-0.003901	-0.946777	-0.358643	-0.363525	-0.523609	-0.408384	0.325335	-0.673211	-1.306396	-62.942927	105.049641	-0.118112	0.439276	0.890554	-0.970722	-0.239981	-0.010371	0.209160	-0.865705	0.454760	0	0	0
57935	0	0	0	0	0	8.684197	0.347246	4.637250	-0.077351	-0.063649	-0.006239	-0.946533	-0.364746	-0.365967	-0.523699	-0.408395	0.325753	-0.672932	-1.345379	-62.978703	105.041569	-0.117905	0.438756	0.890838	-0.970900	-0.239249	-0.010667	0.208452	-0.866172	0.454196	0	0	0
57936	0	0	0	0	0	8.648463	0.388883	4.623198	-0.079012	-0.063056	-0.004993	-0.954590	-0.355225	-0.361084	-0.523786	-0.408400	0.326178	-0.672656	-1.386876	-63.014312	105.035539	-0.117716	0.438233	0.891120	-0.971077	-0.238513	-0.010983	0.207730	-0.866639	0.453635	0	0	0
57937	0	0	0	0	0	8.629756	0.391645	4.608457	-0.078418	-0.065637	-0.002759	-0.950439	-0.353760	-0.366699	-0.523865	-0.408408	0.326613	-0.672378	-1.430361	-63.051097	105.031446	-0.117536	0.437689	0.891411	-0.971254	-0.237778	-0.011313	0.207007	-0.867116	0.453054	0	0	0
57938	0	0	0	0	0	8.639249	0.374868	4.642703	-0.081076	-0.065705	-0.002565	-0.948730	-0.366211	-0.362793	-0.523944	-0.408412	0.327056	-0.672099	-1.475944	-63.088191	105.028677	-0.117365	0.437137	0.891704	-0.971431	-0.237034	-0.011658	0.206268	-0.867598	0.452468	0	0	0
57939	0	0	0	0	0	8.641005	0.372275	4.577562	-0.076286	-0.065057	-0.005948	-0.955566	-0.362061	-0.357422	-0.524032	-0.408428	0.327476	-0.671816	-1.514646	-63.124661	105.020452	-0.117155	0.436606	0.891992	-0.971606	-0.236301	-0.011949	0.205562	-0.868065	0.451893	0	0	0
57940	0	0	0	0	0	8.633720	0.394339	4.612247	-0.079106	-0.074319	-0.001021	-0.951660	-0.365723	-0.359131	-0.524086	-0.408463	0.327938	-0.671527	-1.561209	-63.166667	105.020047	-0.116983	0.435975	0.892323	-0.971777	-0.235580	-0.012298	0.204852	-0.868578	0.451229	0	0	0
57941	0	0	0	0	0	8.620491	0.384536	4.576816	-0.076190	-0.067210	-0.006611	-0.953369	-0.361328	-0.362793	-0.524169	-0.408490	0.328360	-0.671239	-1.599047	-63.204549	105.011513	-0.116765	0.435422	0.892622	-0.971949	-0.234854	-0.012580	0.204158	-0.869052	0.450631	0	0	0
57942	0	0	0	0	0	8.645292	0.375349	4.580610	-0.077237	-0.069244	-0.003088	-0.952148	-0.365234	-0.364014	-0.524235	-0.408517	0.328798	-0.670957	-1.642147	-63.243682	105.008430	-0.116584	0.434840	0.892929	-0.972118	-0.234139	-0.012901	0.203460	-0.869536	0.450012	0	0	0
57943	0	0	0	0	0	8.691854	0.360156	4.593630	-0.073449	-0.069254	-0.007523	-0.950195	-0.362061	-0.359863	-0.524314	-0.408557	0.329215	-0.670666	-1.677585	-63.282649	104.998549	-0.116351	0.434273	0.893235	-0.972286	-0.233425	-0.013162	0.202788	-0.870011	0.449397	0	0	0
57944	0	0	0	0	0	8.721884	0.338642	4.576983	-0.075109	-0.068663	-0.006274	-0.950684	-0.352295	-0.363525	-0.524387	-0.408592	0.329638	-0.670380	-1.715912	-63.321505	104.991490	-0.116141	0.433702	0.893540	-0.972452	-0.232714	-0.013444	0.202109	-0.870486	0.448782	0	0	0
57945	0	0	0	0	0	8.746595	0.329541	4.580823	-0.073379	-0.062827	-0.003076	-0.954590	-0.367188	-0.355957	-0.524460	-0.408605	0.330046	-0.670115	-1.756449	-63.356748	104.987541	-0.115969	0.433179	0.893816	-0.972613	-0.232023	-0.013745	0.201432	-0.870931	0.448223	0	0	0
57946	0	0	0	0	0	8.707891	0.292646	4.586213	-0.069361	-0.058746	-0.003523	-0.955811	-0.354980	-0.356445	-0.524528	-0.408617	0.330430	-0.669865	-1.794361	-63.389880	104.983707	-0.115806	0.432688	0.894075	-0.972764	-0.231374	-0.014025	0.200797	-0.871348	0.447697	0	0	0
57947	0	0	0	0	0	8.720814	0.264601	4.540783	-0.066368	-0.056753	-0.000396	-0.956299	-0.355469	-0.358398	-0.524584	-0.408625	0.330803	-0.669632	-1.833652	-63.421721	104.983319	-0.115675	0.432208	0.894324	-0.972905	-0.230762	-0.014316	0.200188	-0.871748	0.447191	0	0	0
57948	0	0	0	0	0	8.706526	0.255425	4.506906	-0.060572	-0.045471	-0.002192	-0.950684	-0.354736	-0.354980	-0.524652	-0.408613	0.331124	-0.669427	-1.867640	-63.447229	104.980729	-0.115553	0.431829	0.894523	-0.973036	-0.230195	-0.014569	0.199623	-0.872086	0.446784	0	0	0
57949	0	0	0	0	0	8.667168	0.218801	4.513472	-0.055826	-0.047710	0.003695	-0.951904	-0.356201	-0.364502	-0.524687	-0.408611	0.331447	-0.669241	-1.905501	-63.473788	104.985472	-0.115481	0.431419	0.894730	-0.973150	-0.229692	-0.014850	0.199106	-0.872422	0.446360	0	0	0
57950	0	0	0	0	0	8.669177	0.216085	4.509742	-0.055063	-0.041128	0.001258	-0.954590	-0.353760	-0.355957	-0.524739	-0.408593	0.331746	-0.669063	-1.940183	-63.496744	104.987187	-0.115401	0.431069	0.894909	-0.973265	-0.229187	-0.015108	0.198589	-0.872727	0.445993	0	0	0
57951	0	0	0	0	0	8.657750	0.195924	4.396718	-0.049905	-0.038663	0.001325	-0.940430	-0.355469	-0.364746	-0.524787	-0.408579	0.332021	-0.668898	-1.971619	-63.518118	104.988310	-0.115323	0.430744	0.895075	-0.973371	-0.228722	-0.015341	0.198115	-0.873010	0.445651	0	0	0
57952	0	0	0	0	0	8.663200	0.146197	4.482186	-0.046261	-0.037894	0.002120	-0.949707	-0.350830	-0.358154	-0.524823	-0.408572	0.332283	-0.668743	-2.002175	-63.539205	104.991049	-0.115259	0.430420	0.895239	-0.973467	-0.228297	-0.015568	0.197680	-0.873280	0.445313	0	0	0
57953	0	0	0	0	0	8.638414	0.117671	4.459194	-0.045629	-0.039074	-0.000256	-0.954590	-0.352539	-0.358887	-0.524868	-0.408573	0.332542	-0.668579	-2.029360	-63.560811	104.989932	-0.115163	0.430097	0.895407	-0.973567	-0.227858	-0.015767	0.197245	-0.873555	0.444968	0	0	0
57954	0	0	0	0	0	8.666899	0.096993	4.444898	-0.040101	-0.034776	0.003237	-0.950195	-0.353516	-0.355469	-0.524893	-0.408570	0.332778	-0.668444	-2.057591	-63.580087	104.994015	-0.115116	0.429797	0.895557	-0.973649	-0.227492	-0.015975	0.196866	-0.873797	0.444660	0	0	0
57955	0	0	0	0	0	8.627300	0.015943	4.421524	-0.039100	-0.034116	0.004281	-0.945801	-0.355713	-0.362549	-0.524915	-0.408565	0.333010	-0.668314	-2.086108	-63.598850	104.998997	-0.115077	0.429504	0.895703	-0.973728	-0.227137	-0.016186	0.196495	-0.874034	0.444358	0	0	0
57956	0	0	0	0	0	8.628947	-0.031024	4.387973	-0.031541	-0.027094	0.005283	-0.947021	-0.352295	-0.362549	-0.524929	-0.408555	0.333201	-0.668214	-2.111514	-63.613684	105.005399	-0.115065	0.429267	0.895818	-0.973791	-0.226854	-0.016374	0.196191	-0.874224	0.444119	0	0	0
57957	0	0	0	0	0	8.615685	-0.085351	4.384583	-0.032174	-0.034440	0.002470	-0.955811	-0.359131	-0.364746	-0.524945	-0.408571	0.333408	-0.668088	-2.133960	-63.632602	105.007606	-0.115005	0.428977	0.895965	-0.973861	-0.226543	-0.016537	0.195881	-0.874447	0.443817	0	0	0
57958	0	0	0	0	0	8.600508	-0.093083	4.351974	-0.019965	-0.036014	0.004800	-0.949219	-0.362549	-0.358887	-0.524921	-0.408622	0.333583	-0.667988	-2.152594	-63.652551	105.013851	-0.114971	0.428663	0.896119	-0.973901	-0.226360	-0.016670	0.195699	-0.874648	0.443500	0	0	0
57959	0	0	0	0	0	8.587568	-0.147099	4.347890	-0.012940	-0.041463	0.011648	-0.952637	-0.355957	-0.360352	-0.524855	-0.408697	0.333763	-0.667904	-2.174877	-63.675334	105.028280	-0.114987	0.428290	0.896296	-0.973922	-0.226258	-0.016829	0.195587	-0.874857	0.443138	0	0	0
57960	0	0	0	0	0	8.604268	-0.140714	4.313993	-0.003238	-0.043935	0.009021	-0.956299	-0.359375	-0.356934	-0.524770	-0.408812	0.333911	-0.667827	-2.189202	-63.699724	105.040406	-0.114978	0.427897	0.896484	-0.973925	-0.226239	-0.016925	0.195577	-0.875054	0.442752	0	0	0
57961	0	0	0	0	0	8.589714	-0.192915	4.249513	-0.002498	-0.048790	0.010678	-0.954346	-0.355957	-0.365723	-0.524672	-0.408941	0.334073	-0.667743	-2.204845	-63.726747	105.054299	-0.114972	0.427461	0.896693	-0.973925	-0.226228	-0.017030	0.195578	-0.875270	0.442325	0	0	0
57962	0	0	0	0	0	8.652296	-0.199850	4.292713	0.006429	-0.057809	0.010426	-0.952148	-0.352295	-0.349121	-0.524540	-0.409125	0.334228	-0.667657	-2.215934	-63.759046	105.068988	-0.114950	0.426943	0.896943	-0.973908	-0.226299	-0.017096	0.195678	-0.875505	0.441816	0	0	0
57963	0	0	0	0	0	8.713161	-0.204805	4.275696	0.014497	-0.058292	0.004475	-0.958984	-0.360352	-0.355225	-0.524412	-0.409341	0.334345	-0.667567	-2.215157	-63.791642	105.075445	-0.114866	0.426437	0.897194	-0.973882	-0.226411	-0.017070	0.195856	-0.875722	0.441307	0	0	0
57964	0	0	0	0	0	8.809921	-0.243317	4.346170	0.024668	-0.064021	0.013882	-0.954834	-0.363037	-0.356201	-0.524219	-0.409587	0.334463	-0.667508	-2.220145	-63.827421	105.094972	-0.114865	0.425857	0.897470	-0.973825	-0.226657	-0.017087	0.196141	-0.875941	0.440745	0	0	0
57965	0	0	0	0	0	8.924429	-0.285306	4.306198	0.024935	-0.057063	0.008645	-0.955566	-0.359131	-0.358887	-0.524058	-0.409819	0.334551	-0.667448	-2.218126	-63.859231	105.106695	-0.114822	0.425353	0.897714	-0.973774	-0.226878	-0.017052	0.196418	-0.876129	0.440248	0	0	0
57966	0	0	0	0	0	9.018746	-0.277088	4.348381	0.030365	-0.049113	0.008111	-0.959473	-0.354980	-0.355225	-0.523898	-0.410041	0.334599	-0.667414	-2.212486	-63.886602	105.118010	-0.114794	0.424916	0.897925	-0.973712	-0.227148	-0.016992	0.196742	-0.876271	0.439821	0	0	0
57967	0	0	0	0	0	9.115096	-0.315325	4.419736	0.034385	-0.047946	0.016931	-0.947754	-0.355713	-0.358887	-0.523706	-0.410253	0.334648	-0.667410	-2.214431	-63.912995	105.140115	-0.114850	0.424472	0.898127	-0.973633	-0.227487	-0.016991	0.197100	-0.876398	0.439407	0	0	0
57968	0	0	0	0	0	9.140945	-0.367706	4.453876	0.039695	-0.037768	0.016981	-0.953369	-0.360596	-0.357178	-0.523516	-0.410446	0.334653	-0.667437	-2.213331	-63.933675	105.162431	-0.114931	0.424115	0.898286	-0.973542	-0.227877	-0.016970	0.197501	-0.876470	0.439083	0	0	0
57969	0	0	0	0	0	9.110680	-0.381496	4.451962	0.045889	-0.026144	0.023283	-0.952148	-0.359131	-0.349365	-0.523316	-0.410604	0.334620	-0.667513	-2.215148	-63.947426	105.191488	-0.115089	0.423848	0.898391	-0.973434	-0.228339	-0.016976	0.197942	-0.876478	0.438867	0	0	0
57970	0	0	0	0	0	9.021462	-0.435610	4.432701	0.052980	-0.010213	0.026612	-0.947021	-0.353027	-0.350342	-0.523113	-0.410723	0.334529	-0.667645	-2.216492	-63.952117	105.224991	-0.115318	0.423710	0.898427	-0.973305	-0.228886	-0.016983	0.198442	-0.876402	0.438794	0	0	0
57971	0	0	0	0	0	8.904869	-0.471007	4.426089	0.066603	0.000684	0.033914	-0.954346	-0.357178	-0.353027	-0.522878	-0.410829	0.334378	-0.667839	-2.217717	-63.950308	105.266900	-0.115635	0.423653	0.898414	-0.973141	-0.229580	-0.016994	0.199058	-0.876249	0.438822	0	0	0
57972	0	0	0	0	0	8.765849	-0.500403	4.411627	0.076831	0.014922	0.044397	-0.949707	-0.354736	-0.354492	-0.522609	-0.410897	0.334177	-0.668108	-2.225075	-63.940211	105.322312	-0.116087	0.423693	0.898336	-0.972944	-0.230411	-0.017056	0.199760	-0.876011	0.438978	0	0	0
57973	0	0	0	0	0	8.662280	-0.563309	4.485922	0.087658	0.019440	0.047330	-0.959229	-0.354980	-0.353516	-0.522318	-0.410973	0.333935	-0.668411	-2.229082	-63.927343	105.380614	-0.116571	0.423770	0.898237	-0.972722	-0.231344	-0.017095	0.200557	-0.875728	0.439178	0	0	0
57974	0	0	0	0	0	8.522453	-0.592529	4.472930	0.094082	0.026652	0.052394	-0.958008	-0.360840	-0.357666	-0.522005	-0.411033	0.333662	-0.668754	-2.235312	-63.910347	105.445786	-0.117124	0.423894	0.898107	-0.972479	-0.232360	-0.017153	0.201413	-0.875399	0.439442	0	0	0
57975	0	0	0	0	0	8.544776	-0.736039	4.452424	0.101952	0.021353	0.069986	-0.951904	-0.354248	-0.354736	-0.521612	-0.411101	0.333413	-0.669143	-2.257449	-63.895865	105.533425	-0.117833	0.423933	0.897996	-0.972199	-0.233513	-0.017332	0.202346	-0.875073	0.439662	0	0	0
57976	0	0	0	0	0	8.528586	-0.744852	4.485224	0.099403	0.019084	0.069590	-0.946289	-0.357422	-0.362549	-0.521218	-0.411172	0.333178	-0.669523	-2.280969	-63.882794	105.621264	-0.118538	0.423949	0.897895	-0.971923	-0.234648	-0.017520	0.203261	-0.874762	0.439860	0	0	0
57977	0	0	0	0	0	8.527075	-0.837365	4.426208	0.100465	0.013347	0.083802	-0.950928	-0.345459	-0.361572	-0.520770	-0.411239	0.332984	-0.669928	-2.320372	-63.872508	105.726907	-0.119363	0.423885	0.897816	-0.971628	-0.235841	-0.017829	0.204184	-0.874472	0.440009	0	0	0
57978	0	0	0	0	0	8.584182	-0.890937	4.385097	0.102377	0.001955	0.094491	-0.949463	-0.351563	-0.354736	-0.520258	-0.411333	0.332834	-0.670342	-2.371967	-63.868606	105.847928	-0.120275	0.423690	0.897786	-0.971313	-0.237107	-0.018228	0.205148	-0.874224	0.440054	0	0	0
57979	0	0	0	0	0	8.600024	-0.933935	4.384867	0.100284	-0.003468	0.106112	-0.959961	-0.363525	-0.363281	-0.519705	-0.411418	0.332730	-0.670770	-2.438327	-63.867332	105.983599	-0.121284	0.423424	0.897777	-0.970988	-0.238394	-0.018739	0.206091	-0.874003	0.440052	0	0	0
57980	0	0	0	0	0	8.700840	-1.002322	4.361052	0.092917	-0.007679	0.113648	-0.958984	-0.361328	-0.356689	-0.519132	-0.411487	0.332676	-0.671198	-2.518149	-63.868348	106.130026	-0.122361	0.423097	0.897784	-0.970665	-0.239658	-0.019351	0.206974	-0.873815	0.440010	0	0	0
57981	0	0	0	0	0	8.786330	-1.022658	4.537599	0.086804	-0.008504	0.130788	-0.959473	-0.358887	-0.349365	-0.518516	-0.411513	0.332681	-0.671656	-2.621232	-63.869156	106.297863	-0.123596	0.422724	0.897791	-0.970334	-0.240928	-0.020142	0.207789	-0.873646	0.439962	0	0	0
57982	0	0	0	0	0	8.902488	-0.996138	4.543613	0.080678	-0.015114	0.133612	-0.959717	-0.354004	-0.348389	-0.517888	-0.411542	0.332728	-0.672099	-2.731794	-63.873670	106.470714	-0.124851	0.422282	0.897825	-0.970007	-0.242168	-0.020987	0.208562	-0.873517	0.439851	0	0	0
57983	0	0	0	0	0	8.988165	-0.950225	4.440599	0.085989	-0.019811	0.141575	-0.958252	-0.356934	-0.350342	-0.517216	-0.411585	0.332785	-0.672561	-2.848714	-63.880381	106.653830	-0.126170	0.421780	0.897877	-0.969658	-0.243483	-0.021880	0.209389	-0.873394	0.439703	0	0	0
57984	0	0	0	0	0	9.117708	-0.940285	4.665151	0.075249	-0.005636	0.144154	-0.956787	-0.349365	-0.350098	-0.516579	-0.411550	0.332848	-0.673042	-2.974218	-63.878852	106.839846	-0.127545	0.421391	0.897865	-0.969325	-0.244718	-0.022844	0.210097	-0.873237	0.439678	0	0	0
57985	0	0	0	0	0	9.158216	-0.859736	4.824697	0.063514	0.007881	0.145697	-0.956299	-0.354248	-0.351807	-0.515985	-0.411435	0.332918	-0.673533	-3.107184	-63.869226	107.026359	-0.128961	0.421118	0.897791	-0.969014	-0.245850	-0.023873	0.210669	-0.873051	0.439774	0	0	0
57986	0	0	0	0	0	9.153030	-0.881164	4.566360	0.063275	0.000256	0.145650	-0.951660	-0.342041	-0.356445	-0.515377	-0.411346	0.333007	-0.674008	-3.240801	-63.863904	107.213791	-0.130362	0.420773	0.897750	-0.968699	-0.246986	-0.024903	0.211253	-0.872896	0.439800	0	0	0
57987	0	0	0	0	0	9.031483	-0.912500	4.641702	0.068831	0.018247	0.145404	-0.961426	-0.351318	-0.350586	-0.514791	-0.411209	0.333033	-0.674527	-3.369491	-63.847959	107.398756	-0.131794	0.420589	0.897628	-0.968373	-0.248159	-0.025905	0.211859	-0.872652	0.439993	0	0	0
57988	0	0	0	0	0	8.922099	-0.958172	4.937416	0.047991	0.035336	0.147843	-0.956055	-0.339111	-0.346191	-0.514264	-0.410959	0.333088	-0.675054	-3.511676	-63.822114	107.586029	-0.133291	0.420542	0.897429	-0.968083	-0.249170	-0.027022	0.212248	-0.872387	0.440331	0	0	0
57989	0	0	0	0	0	8.839143	-0.968659	4.804900	0.044640	0.052399	0.147354	-0.962891	-0.340088	-0.352051	-0.513776	-0.410641	0.333109	-0.675608	-3.653498	-63.786189	107.770548	-0.134816	0.420646	0.897152	-0.967799	-0.250145	-0.028148	0.212578	-0.872058	0.440824	0	0	0
57990	0	0	0	0	0	8.697156	-1.064078	4.686081	0.054810	0.086275	0.150460	-0.960938	-0.347168	-0.347168	-0.513311	-0.410231	0.333015	-0.676257	-3.790142	-63.730718	107.956122	-0.136446	0.421033	0.896724	-0.967486	-0.251226	-0.029256	0.212963	-0.871560	0.441622	0	0	0
57991	0	0	0	0	0	8.507797	-1.075441	4.801059	0.064235	0.111448	0.155371	-0.964600	-0.337646	-0.351318	-0.512853	-0.409750	0.332835	-0.676984	-3.924288	-63.660329	108.144785	-0.138174	0.421628	0.896179	-0.967145	-0.252406	-0.030365	0.213398	-0.870931	0.442651	0	0	0
57992	0	0	0	0	0	8.407371	-1.046501	4.735056	0.054658	0.124181	0.158291	-0.968262	-0.341309	-0.362305	-0.512423	-0.409198	0.332660	-0.677730	-4.065460	-63.582489	108.335536	-0.139960	0.422321	0.895576	-0.966816	-0.253520	-0.031542	0.213726	-0.870271	0.443789	0	0	0
57993	0	0	0	0	0	8.365021	-1.115859	4.657194	0.040816	0.126537	0.157177	-0.957764	-0.338379	-0.354736	-0.512031	-0.408601	0.332523	-0.678452	-4.212068	-63.502968	108.523263	-0.141738	0.423038	0.894957	-0.966516	-0.254504	-0.032769	0.213908	-0.869636	0.444946	0	0	0
57994	0	0	0	0	0	8.297188	-1.120357	4.620404	0.023725	0.134989	0.150067	-0.960449	-0.343750	-0.354980	-0.511710	-0.407946	0.332408	-0.679145	-4.358640	-63.418876	108.700506	-0.143467	0.423842	0.894302	-0.966259	-0.255316	-0.034007	0.213916	-0.869006	0.446170	0	0	0
57995	0	0	0	0	0	8.218850	-1.144391	4.593906	0.007940	0.137359	0.142329	-0.966553	-0.331543	-0.349365	-0.511453	-0.407252	0.332325	-0.679795	-4.504156	-63.333400	108.866179	-0.145123	0.424687	0.893633	-0.966047	-0.255952	-0.035245	0.213759	-0.868406	0.447412	0	0	0
57996	0	0	0	0	0	8.075456	-1.102423	4.509259	-0.005098	0.137551	0.133784	-0.967285	-0.336914	-0.363281	-0.511249	-0.406541	0.332267	-0.680403	-4.646508	-63.248189	109.020474	-0.146699	0.425551	0.892965	-0.965870	-0.256447	-0.036464	0.213481	-0.867837	0.448647	0	0	0
57997	0	0	0	0	0	7.946002	-1.040766	4.533604	-0.018687	0.140327	0.122998	-0.965576	-0.332764	-0.359131	-0.511114	-0.405801	0.332226	-0.680966	-4.783294	-63.161568	109.159758	-0.148176	0.426468	0.892283	-0.965737	-0.256777	-0.037647	0.213062	-0.867290	0.449904	0	0	0
57998	0	0	0	0	0	7.826348	-1.004593	4.517163	-0.044488	0.136042	0.105000	-0.961670	-0.337402	-0.364990	-0.511085	-0.405041	0.332247	-0.681430	-4.914117	-63.078282	109.276059	-0.149469	0.427390	0.891626	-0.965683	-0.256810	-0.038786	0.212402	-0.866826	0.451108	0	0	0
57999	0	0	0	0	0	7.727169	-0.928199	4.419773	-0.050119	0.128064	0.087953	-0.962402	-0.332275	-0.357666	-0.511113	-0.404319	0.332273	-0.681824	-5.029118	-63.000092	109.370683	-0.150578	0.428290	0.891007	-0.965667	-0.256716	-0.039798	0.211691	-0.866409	0.452241	0	0	0
58000	0	0	0	0	0	7.632594	-0.851126	4.501101	-0.063049	0.125777	0.061356	-0.962402	-0.329834	-0.360596	-0.511252	-0.403619	0.332295	-0.682124	-5.121441	-62.924670	109.431982	-0.151427	0.429234	0.890409	-0.965716	-0.256403	-0.040631	0.210863	-0.866034	0.453344	0	0	0
58001	0	0	0	0	0	7.668132	-0.779685	4.409673	-0.079505	0.116904	0.037461	-0.969238	-0.338623	-0.364502	-0.511492	-0.402944	0.332347	-0.682318	-5.197118	-62.855321	109.463875	-0.152024	0.430166	0.889857	-0.965834	-0.255844	-0.041327	0.209887	-0.865738	0.454363	0	0	0
58002	0	0	0	0	0	7.738873	-0.694976	4.436693	-0.094304	0.107438	0.012287	-0.969971	-0.334961	-0.368652	-0.511830	-0.402307	0.332423	-0.682403	-5.253969	-62.792851	109.465246	-0.152358	0.431077	0.889359	-0.966021	-0.255051	-0.041867	0.208784	-0.865518	0.455288	0	0	0
58003	0	0	0	0	0	7.874592	-0.767304	4.580488	-0.114379	0.097857	-0.012412	-0.965820	-0.329834	-0.371826	-0.512279	-0.401691	0.332542	-0.682372	-5.295828	-62.736952	109.436539	-0.152431	0.431971	0.888913	-0.966287	-0.253973	-0.042280	0.207496	-0.865389	0.456121	0	0	0
58004	0	0	0	0	0	8.019982	-0.818913	4.654364	-0.132468	0.104213	-0.033608	-0.968994	-0.329346	-0.359863	-0.512844	-0.401043	0.332664	-0.682269	-5.323947	-62.678754	109.380975	-0.152311	0.432970	0.888447	-0.966620	-0.252652	-0.042587	0.206029	-0.865277	0.456999	0	0	0
58005	0	0	0	0	0	8.132911	-0.790476	4.670434	-0.152209	0.114835	-0.057607	-0.963135	-0.334229	-0.364258	-0.513549	-0.400346	0.332777	-0.682092	-5.336010	-62.615587	109.294483	-0.151981	0.434124	0.887941	-0.967027	-0.251054	-0.042774	0.204352	-0.865164	0.457965	0	0	0
58006	0	0	0	0	0	8.212361	-0.819016	4.657795	-0.159761	0.132548	-0.074376	-0.964600	-0.329346	-0.371094	-0.514354	-0.399599	0.332837	-0.681895	-5.332253	-62.543406	109.185326	-0.151521	0.435469	0.887360	-0.967473	-0.249319	-0.042848	0.202577	-0.864990	0.459081	0	0	0
58007	0	0	0	0	0	8.264775	-0.826911	4.657365	-0.179568	0.154311	-0.093033	-0.959473	-0.337402	-0.379395	-0.515299	-0.398755	0.332870	-0.681659	-5.317602	-62.459593	109.050912	-0.150923	0.437049	0.886685	-0.967983	-0.247329	-0.042851	0.200575	-0.864764	0.460384	0	0	0
58008	0	0	0	0	0	8.289826	-0.906670	4.728003	-0.191315	0.182818	-0.108063	-0.961914	-0.331543	-0.376465	-0.516364	-0.397810	0.332839	-0.681420	-5.290820	-62.360491	108.895210	-0.150231	0.438908	0.885884	-0.968535	-0.245172	-0.042777	0.198419	-0.864436	0.461931	0	0	0
58009	0	0	0	0	0	8.314582	-0.941917	4.891340	-0.205956	0.215927	-0.121901	-0.962646	-0.332275	-0.377197	-0.517562	-0.396733	0.332746	-0.681185	-5.254884	-62.242946	108.719123	-0.149464	0.441088	0.884930	-0.969133	-0.242820	-0.042654	0.196064	-0.863991	0.463766	0	0	0
58010	0	0	0	0	0	8.208263	-0.980904	4.908583	-0.230466	0.250503	-0.128876	-0.961670	-0.341553	-0.383301	-0.518886	-0.395489	0.332630	-0.680958	-5.222911	-62.106231	108.531849	-0.148692	0.443575	0.883817	-0.969781	-0.240229	-0.042587	0.193428	-0.863441	0.465891	0	0	0
58011	0	0	0	0	0	8.079271	-0.968783	4.949003	-0.248206	0.287062	-0.137194	-0.962402	-0.327393	-0.381348	-0.520333	-0.394084	0.332463	-0.680749	-5.189847	-61.948817	108.331356	-0.147902	0.446396	0.882528	-0.970469	-0.237444	-0.042538	0.190562	-0.862758	0.468332	0	0	0
58012	0	0	0	0	0	7.969927	-0.966888	5.120743	-0.269338	0.319975	-0.152224	-0.956787	-0.339111	-0.389160	-0.521924	-0.392538	0.332251	-0.680528	-5.151006	-61.773562	108.110491	-0.147019	0.449527	0.881085	-0.971210	-0.234409	-0.042463	0.187447	-0.861962	0.471047	0	0	0
58013	0	0	0	0	0	7.858535	-0.964448	5.233855	-0.276935	0.335527	-0.157991	-0.962402	-0.334961	-0.389893	-0.523573	-0.390924	0.332010	-0.680308	-5.110803	-61.589432	107.882693	-0.146099	0.452800	0.879561	-0.971963	-0.231281	-0.042384	0.184234	-0.861093	0.473895	0	0	0
58014	0	0	0	0	0	7.826604	-1.018466	5.255877	-0.286270	0.336615	-0.172037	-0.959229	-0.335205	-0.396484	-0.525287	-0.389305	0.331770	-0.680032	-5.062691	-61.405535	107.639483	-0.145031	0.456104	0.878029	-0.972743	-0.228005	-0.042235	0.180932	-0.860223	0.476740	0	0	0
58015	0	0	0	0	0	7.768199	-0.961870	5.290078	-0.293574	0.319208	-0.176900	-0.957520	-0.349365	-0.401855	-0.526999	-0.387731	0.331588	-0.679696	-5.017364	-61.231501	107.394298	-0.143874	0.459263	0.876571	-0.973532	-0.224643	-0.042091	0.177585	-0.859426	0.479428	0	0	0
58016	0	0	0	0	0	7.859952	-1.087201	5.299332	-0.320842	0.333955	-0.182736	-0.958984	-0.336426	-0.400146	-0.528805	-0.386044	0.331448	-0.679322	-4.981869	-61.049480	107.142046	-0.142671	0.462551	0.875038	-0.974364	-0.221015	-0.042035	0.173953	-0.858603	0.482225	0	0	0
58017	0	0	0	0	0	7.949249	-1.219345	5.488034	-0.310862	0.329660	-0.183904	-0.954102	-0.334717	-0.405518	-0.530586	-0.384395	0.331279	-0.678950	-4.941814	-60.869655	106.890683	-0.141438	0.465798	0.873515	-0.975167	-0.217465	-0.041935	0.170425	-0.857754	0.484989	0	0	0
58018	0	0	0	0	0	7.991031	-1.230159	5.561086	-0.322409	0.333236	-0.186748	-0.950684	-0.340088	-0.413818	-0.532401	-0.382708	0.331134	-0.678553	-4.906874	-60.688082	106.637153	-0.140167	0.469069	0.871967	-0.975980	-0.213798	-0.041876	0.166782	-0.856892	0.487770	0	0	0
58019	0	0	0	0	0	8.040238	-1.435813	5.606011	-0.314510	0.336390	-0.185026	-0.956055	-0.346436	-0.415283	-0.534197	-0.381024	0.330954	-0.678177	-4.871009	-60.504272	106.387301	-0.138909	0.472357	0.870392	-0.976763	-0.210205	-0.041808	0.163213	-0.855975	0.490580	0	0	0
58020	0	0	0	0	0	8.042055	-1.451713	5.758165	-0.323859	0.339377	-0.178380	-0.943604	-0.346436	-0.420654	-0.535990	-0.379293	0.330809	-0.677803	-4.848441	-60.318647	106.146126	-0.137703	0.475644	0.868793	-0.977539	-0.206559	-0.041852	0.159550	-0.855042	0.493404	0	0	0
58021	0	0	0	0	0	7.948877	-1.554007	5.873562	-0.326666	0.344972	-0.167575	-0.947021	-0.343262	-0.427002	-0.537758	-0.377513	0.330677	-0.677461	-4.839661	-60.128980	105.918488	-0.136600	0.478950	0.867149	-0.978290	-0.202938	-0.042019	0.155852	-0.854062	0.496274	0	0	0
58022	0	0	0	0	0	7.988951	-1.542969	6.078419	-0.326225	0.345252	-0.163125	-0.951416	-0.344727	-0.424805	-0.539507	-0.375726	0.330549	-0.677126	-4.836365	-59.939218	105.697083	-0.135524	0.482237	0.865494	-0.979020	-0.199339	-0.042233	0.152161	-0.853060	0.499135	0	0	0
58023	0	0	0	0	0	7.898815	-1.521589	6.150097	-0.332660	0.347549	-0.161851	-0.936279	-0.348145	-0.428223	-0.541263	-0.373907	0.330436	-0.676787	-4.839612	-59.747769	105.478625	-0.134456	0.485535	0.863816	-0.979744	-0.195693	-0.042505	0.148406	-0.852033	0.502011	0	0	0
58024	0	0	0	0	0	7.839622	-1.607430	6.146041	-0.337179	0.347277	-0.154353	-0.946289	-0.338623	-0.430908	-0.542999	-0.372064	0.330351	-0.676453	-4.853852	-59.556443	105.269407	-0.133441	0.488802	0.862129	-0.980450	-0.192040	-0.042873	0.144607	-0.850995	0.504872	0	0	0
58025	0	0	0	0	0	7.743241	-1.529022	6.209351	-0.340880	0.324903	-0.157965	-0.946777	-0.338379	-0.441895	-0.544712	-0.370289	0.330330	-0.676060	-4.870166	-59.377759	105.059935	-0.132351	0.491881	0.860544	-0.981151	-0.188342	-0.043245	0.140805	-0.850047	0.507536	0	0	0
58026	0	0	0	0	0	7.739812	-1.628386	6.313242	-0.342126	0.315127	-0.160693	-0.946777	-0.345459	-0.449707	-0.546418	-0.368547	0.330334	-0.675633	-4.886185	-59.205154	104.848713	-0.131200	0.494869	0.859006	-0.981843	-0.184612	-0.043608	0.137003	-0.849131	0.510105	0	0	0
58027	0	0	0	0	0	7.636630	-1.662702	6.374751	-0.343141	0.280744	-0.160114	-0.942871	-0.339111	-0.447754	-0.548064	-0.366913	0.330434	-0.675141	-4.907672	-59.051793	104.642925	-0.130003	0.497560	0.857633	-0.982521	-0.180880	-0.043995	0.133238	-0.848361	0.512378	0	0	0
58028	0	0	0	0	0	7.609415	-1.794545	6.279764	-0.321093	0.260205	-0.164856	-0.938477	-0.337402	-0.447998	-0.549649	-0.365417	0.330505	-0.674628	-4.914223	-58.910806	104.434032	-0.128714	0.500073	0.856364	-0.983161	-0.177305	-0.044235	0.129717	-0.847638	0.514474	0	0	0
58029	0	0	0	0	0	7.566902	-1.714012	6.408363	-0.320416	0.233994	-0.160712	-0.942627	-0.346436	-0.456543	-0.551170	-0.364000	0.330651	-0.674081	-4.927819	-58.784193	104.233844	-0.127430	0.502352	0.855221	-0.983781	-0.173762	-0.044519	0.126241	-0.847023	0.516347	0	0	0
58030	0	0	0	0	0	7.501795	-1.852351	6.386338	-0.327053	0.222075	-0.166543	-0.935303	-0.334717	-0.460693	-0.552704	-0.362616	0.330842	-0.673478	-4.941000	-58.665100	104.028146	-0.126057	0.504530	0.854142	-0.984404	-0.170125	-0.044791	0.122712	-0.846467	0.518107	0	0	0
58031	0	0	0	0	0	7.522589	-1.941449	6.451282	-0.279710	0.198331	-0.166334	-0.934082	-0.341553	-0.461182	-0.554107	-0.361437	0.330936	-0.672911	-4.930451	-58.559103	103.826347	-0.124656	0.506505	0.853179	-0.984955	-0.166893	-0.044831	0.119682	-0.845931	0.519689	0	0	0
58032	0	0	0	0	0	7.350183	-1.882968	6.485935	-0.281030	0.171356	-0.167536	-0.930176	-0.342041	-0.466064	-0.555472	-0.360350	0.331108	-0.672284	-4.921887	-58.468996	103.625611	-0.123197	0.508242	0.852357	-0.985500	-0.163636	-0.044869	0.116672	-0.845526	0.521032	0	0	0
58033	0	0	0	0	0	7.273349	-1.956952	6.361853	-0.254338	0.150774	-0.184730	-0.938232	-0.346436	-0.463623	-0.556810	-0.359429	0.331214	-0.671618	-4.884873	-58.390955	103.409346	-0.121547	0.509832	0.851644	-0.986023	-0.160521	-0.044631	0.113952	-0.845165	0.522217	0	0	0
58034	0	0	0	0	0	7.173802	-1.778279	6.498465	-0.244619	0.120102	-0.190599	-0.930908	-0.342285	-0.472900	-0.558099	-0.358651	0.331362	-0.670891	-4.839303	-58.331111	103.189318	-0.119791	0.511161	0.851096	-0.986533	-0.157450	-0.044291	0.111366	-0.844940	0.523138	0	0	0
58035	0	0	0	0	0	7.090265	-1.892535	6.476160	-0.243394	0.100413	-0.199072	-0.928223	-0.343262	-0.476318	-0.559377	-0.357951	0.331543	-0.670110	-4.787823	-58.282311	102.963247	-0.117936	0.512336	0.850649	-0.987041	-0.154352	-0.043881	0.108818	-0.844800	0.523900	0	0	0
58036	0	0	0	0	0	7.026295	-1.945944	6.398806	-0.182643	0.074125	-0.209195	-0.930176	-0.344727	-0.465088	-0.560538	-0.357529	0.331577	-0.669348	-4.693995	-58.249356	102.728004	-0.115939	0.513293	0.850346	-0.987487	-0.151707	-0.043063	0.106899	-0.844699	0.524459	0	0	0
58037	0	0	0	0	0	6.958198	-1.682452	6.471915	-0.157777	0.050521	-0.231939	-0.930176	-0.346436	-0.473145	-0.561688	-0.357289	0.331551	-0.668524	-4.567687	-58.230153	102.471443	-0.113701	0.514085	0.850170	-0.987924	-0.149160	-0.041929	0.105256	-0.844670	0.524836	0	0	0
58038	0	0	0	0	0	6.877466	-1.798795	6.333885	-0.194770	0.038321	-0.242164	-0.934326	-0.350830	-0.473145	-0.562920	-0.357006	0.331666	-0.667582	-4.453550	-58.218637	102.204031	-0.111337	0.514777	0.850064	-0.988404	-0.146239	-0.040897	0.103259	-0.844760	0.525089	0	0	0
58039	0	0	0	0	0	6.835375	-1.739710	6.174400	-0.164710	0.010430	-0.260209	-0.924805	-0.345215	-0.479980	-0.564107	-0.356926	0.331723	-0.666594	-4.308321	-58.222958	101.920612	-0.108776	0.515259	0.850104	-0.988861	-0.143487	-0.039561	0.101595	-0.844938	0.525127	0	0	0
58040	0	0	0	0	0	6.843270	-1.629582	5.891963	-0.137017	0.000927	-0.267492	-0.929199	-0.352295	-0.475342	-0.565254	-0.356970	0.331704	-0.665607	-4.140338	-58.233174	101.628796	-0.106119	0.515657	0.850198	-0.989291	-0.140920	-0.038010	0.100210	-0.845127	0.525090	0	0	0
58041	0	0	0	0	0	7.111644	-1.320143	5.888070	-0.089718	-0.014953	-0.276923	-0.927002	-0.352051	-0.471191	-0.566320	-0.357212	0.331553	-0.664646	-3.938183	-58.251740	101.328816	-0.103364	0.515936	0.850368	-0.989673	-0.138710	-0.036139	0.099309	-0.845322	0.524946	0	0	0
58042	0	0	0	0	0	7.877206	-0.817172	6.135779	0.015804	-0.049725	-0.287028	-0.930664	-0.347656	-0.477783	-0.567173	-0.357888	0.331132	-0.663764	-3.667158	-58.290526	101.018933	-0.100462	0.515922	0.850724	-0.989954	-0.137333	-0.033618	0.099488	-0.845555	0.524536	0	0	0
58043	0	0	0	0	0	8.617427	0.038926	7.199039	-0.016018	-0.106627	-0.286696	-0.923828	-0.355469	-0.470703	-0.567983	-0.358657	0.330976	-0.662733	-3.417932	-58.360492	100.713853	-0.097520	0.515429	0.851365	-0.990256	-0.135701	-0.031274	0.099411	-0.846120	0.523640	0	0	0
58044	0	0	0	0	0	9.226417	-0.375939	7.647098	-0.034453	-0.167767	-0.273628	-0.922607	-0.358398	-0.471680	-0.568684	-0.359559	0.331079	-0.661591	-3.192509	-58.464939	100.424172	-0.094632	0.514388	0.852320	-0.990557	-0.133970	-0.029128	0.099203	-0.847028	0.522209	0	0	0
58045	0	0	0	0	0	9.662575	-0.674136	7.503532	-0.016958	-0.298144	-0.260475	-0.923340	-0.358643	-0.469971	-0.569089	-0.360914	0.331515	-0.660285	-2.974733	-58.642344	100.156018	-0.091758	0.512225	0.853936	-0.990819	-0.132470	-0.027005	0.099288	-0.848574	0.519677	0	0	0
58046	0	0	0	0	0	9.794252	-1.417837	6.347858	0.016821	-0.379008	-0.246545	-0.922119	-0.367676	-0.477539	-0.569254	-0.362611	0.332097	-0.658920	-2.750791	-58.865723	99.903484	-0.088926	0.509341	0.855958	-0.991029	-0.131324	-0.024814	0.099769	-0.850486	0.516450	0	0	0
58047	0	0	0	0	0	9.717442	-1.828759	5.290059	0.175379	-0.487715	-0.219704	-0.922363	-0.362305	-0.469727	-0.568858	-0.365066	0.332510	-0.657697	-2.463326	-59.149350	99.683418	-0.086255	0.505496	0.858507	-0.991048	-0.131676	-0.022040	0.101903	-0.852722	0.512328	0	0	0
58048	0	0	0	0	0	9.198526	-1.605261	4.988511	0.334132	-0.580739	-0.187737	-0.925537	-0.372314	-0.457764	-0.567907	-0.368227	0.332722	-0.656648	-2.113469	-59.485550	99.497360	-0.083781	0.500796	0.861501	-0.990865	-0.133554	-0.018725	0.105680	-0.855200	0.507410	0	0	0
58049	0	0	0	0	0	8.891644	-0.878874	4.303592	0.507089	-0.672776	-0.174414	-0.922607	-0.361816	-0.457031	-0.566432	-0.372147	0.332646	-0.655749	-1.675217	-59.872871	99.324239	-0.081322	0.495289	0.864914	-0.990462	-0.137001	-0.014673	0.111227	-0.857858	0.501706	0	0	0
58050	0	0	0	0	0	9.004939	0.081176	4.316689	0.662667	-0.735160	-0.175333	-0.927002	-0.369629	-0.447510	-0.564555	-0.376712	0.332229	-0.654973	-1.139287	-60.295845	99.142129	-0.078730	0.489227	0.868596	-0.989846	-0.141802	-0.009852	0.118348	-0.860552	0.495424	0	0	0
58051	0	0	0	0	0	9.245603	0.889654	4.721508	0.714090	-0.758522	-0.188893	-0.927002	-0.377441	-0.441895	-0.562573	-0.381504	0.331675	-0.654185	-0.551509	-60.730723	98.934650	-0.075932	0.482982	0.872332	-0.989124	-0.147006	-0.004706	0.125965	-0.863202	0.488892	0	0	0
58052	0	0	0	0	0	9.690877	1.268610	4.718444	0.686505	-0.737688	-0.206941	-0.930664	-0.376953	-0.432373	-0.560721	-0.386177	0.331110	-0.653319	0.051616	-61.153304	98.692829	-0.072919	0.476926	0.875914	-0.988393	-0.151917	0.000435	0.133274	-0.865715	0.482468	0	0	0
58053	0	0	0	0	0	9.993253	1.569200	4.851544	0.628548	-0.681202	-0.234354	-0.936035	-0.381836	-0.427002	-0.559152	-0.390532	0.330514	-0.652376	0.660637	-61.541474	98.406766	-0.069668	0.471402	0.879162	-0.987707	-0.156218	0.005494	0.139931	-0.867972	0.476491	0	0	0
58054	0	0	0	0	0	9.999730	1.459759	4.917898	0.548471	-0.574253	-0.253449	-0.925537	-0.384033	-0.423340	-0.557966	-0.394344	0.329837	-0.651440	1.254540	-61.867414	98.087351	-0.066334	0.466824	0.881859	-0.987101	-0.159764	0.010323	0.145709	-0.869799	0.471400	0	0	0
58055	0	0	0	0	0	9.688852	1.143836	4.725021	0.459501	-0.497475	-0.269570	-0.931396	-0.392334	-0.405273	-0.557129	-0.397672	0.329199	-0.650456	1.821415	-62.146912	97.740898	-0.062930	0.462949	0.884148	-0.986601	-0.162471	0.014850	0.150524	-0.871368	0.466970	0	0	0
58056	0	0	0	0	0	9.143699	0.688594	4.059819	0.452906	-0.460135	-0.267589	-0.934082	-0.391602	-0.407227	-0.556349	-0.400859	0.328477	-0.649531	2.390611	-62.404113	97.389226	-0.059576	0.459385	0.886237	-0.986078	-0.165157	0.019322	0.155244	-0.872748	0.462829	0	0	0
58057	0	0	0	0	0	8.607212	0.531512	3.673081	0.476411	-0.442619	-0.250130	-0.927490	-0.388428	-0.397217	-0.555489	-0.404015	0.327662	-0.648723	2.960461	-62.649516	97.052314	-0.056407	0.455957	0.888213	-0.985478	-0.168138	0.023728	0.160161	-0.873976	0.458819	0	0	0
58058	0	0	0	0	0	8.159763	0.564289	3.441047	0.488581	-0.453468	-0.222973	-0.924805	-0.391846	-0.395020	-0.554491	-0.407196	0.326888	-0.647978	3.516593	-62.901062	96.739912	-0.053462	0.452380	0.890221	-0.984811	-0.171368	0.027941	0.165196	-0.875206	0.454671	0	0	0
58059	0	0	0	0	0	7.906514	0.551577	3.175387	0.484440	-0.469898	-0.197574	-0.932373	-0.394531	-0.402100	-0.553388	-0.410367	0.326221	-0.647257	4.049815	-63.160992	96.450631	-0.050723	0.448627	0.892279	-0.984108	-0.174684	0.031886	0.170171	-0.876481	0.450358	0	0	0
58060	0	0	0	0	0	7.814444	0.596882	3.008155	0.470073	-0.504103	-0.181374	-0.938965	-0.397217	-0.381592	-0.552196	-0.413583	0.325724	-0.646477	4.568089	-63.440546	96.170188	-0.048058	0.444536	0.894471	-0.983392	-0.177967	0.035611	0.175017	-0.877904	0.445706	0	0	0
58061	0	0	0	0	0	7.915811	0.753651	2.886476	0.432261	-0.538049	-0.174472	-0.936279	-0.405029	-0.387695	-0.551001	-0.416781	0.325455	-0.645577	5.067253	-63.738100	95.886825	-0.045382	0.440142	0.896781	-0.982715	-0.180953	0.039082	0.179477	-0.879506	0.440746	0	0	0
58062	0	0	0	0	0	8.197088	0.902429	2.842355	0.371464	-0.579040	-0.162813	-0.932861	-0.397949	-0.379395	-0.549819	-0.419927	0.325513	-0.644517	5.531988	-64.059167	95.604536	-0.042721	0.435352	0.899246	-0.982118	-0.183481	0.042170	0.183354	-0.881365	0.435405	0	0	0
58063	0	0	0	0	0	8.445431	1.078049	2.823253	0.341266	-0.623330	-0.149032	-0.931641	-0.402832	-0.371094	-0.548581	-0.423097	0.325818	-0.643343	5.976499	-64.404710	95.325258	-0.040095	0.430147	0.901868	-0.981557	-0.185803	0.044981	0.186918	-0.883431	0.429663	0	0	0
58064	0	0	0	0	0	8.358654	1.151876	2.853206	0.268543	-0.639131	-0.146933	-0.934570	-0.410889	-0.368164	-0.547453	-0.426117	0.326397	-0.642016	6.389259	-64.759034	95.036845	-0.037439	0.424779	0.904522	-0.981114	-0.187520	0.047454	0.189773	-0.885663	0.423778	0	0	0
58065	0	0	0	0	0	8.361581	1.079923	2.294703	0.273506	-0.669391	-0.151064	-0.933105	-0.407471	-0.359619	-0.546276	-0.429242	0.327034	-0.640611	6.823093	-65.128838	94.728059	-0.034667	0.419148	0.907256	-0.980655	-0.189262	0.049967	0.192652	-0.887972	0.417601	0	0	0
58066	0	0	0	0	0	8.703129	1.214869	1.846666	0.315340	-0.663348	-0.150641	-0.937012	-0.401123	-0.350098	-0.545005	-0.432462	0.327513	-0.639281	7.291488	-65.494741	94.409637	-0.031891	0.413549	0.909923	-0.980098	-0.191408	0.052642	0.195937	-0.890135	0.411423	0	0	0
58067	0	0	0	0	0	9.012372	1.463610	1.959717	0.335265	-0.597434	-0.141533	-0.926758	-0.411377	-0.343262	-0.543768	-0.435499	0.327768	-0.638142	7.759247	-65.822283	94.104324	-0.029314	0.408518	0.912279	-0.979488	-0.193769	0.055296	0.199361	-0.891945	0.405818	0	0	0
58068	0	0	0	0	0	9.009078	1.564301	2.345062	0.349588	-0.545300	-0.139803	-0.933594	-0.408447	-0.335449	-0.542568	-0.438407	0.327832	-0.637138	8.234783	-66.119840	93.801221	-0.026838	0.403934	0.914394	-0.978830	-0.196292	0.057983	0.202910	-0.893480	0.400651	0	0	0
58069	0	0	0	0	0	9.023922	1.631940	2.672026	0.378889	-0.505941	-0.146693	-0.939209	-0.414063	-0.337402	-0.541390	-0.441269	0.327680	-0.636242	8.737000	-66.392977	93.486925	-0.024356	0.399720	0.916314	-0.978101	-0.199045	0.060830	0.206702	-0.894765	0.395814	0	0	0
58070	0	0	0	0	0	8.973499	1.543923	2.586383	0.357061	-0.477562	-0.146814	-0.931396	-0.417969	-0.330322	-0.540296	-0.443985	0.327515	-0.635367	9.231062	-66.649401	93.169570	-0.021915	0.395750	0.918097	-0.977396	-0.201628	0.063582	0.210276	-0.895951	0.391223	0	0	0
58071	0	0	0	0	0	8.832284	1.269368	2.362654	0.358902	-0.449148	-0.138091	-0.932861	-0.417480	-0.326416	-0.539219	-0.446589	0.327287	-0.634574	9.716128	-66.889046	92.862501	-0.019602	0.392023	0.919746	-0.976674	-0.204252	0.066243	0.213829	-0.896994	0.386883	0	0	0
58072	0	0	0	0	0	8.647957	1.045796	2.218105	0.353315	-0.438390	-0.123309	-0.931396	-0.414063	-0.319580	-0.538114	-0.449124	0.327074	-0.633833	10.184672	-67.123523	92.571687	-0.017443	0.388354	0.921345	-0.975942	-0.206912	0.068739	0.217332	-0.897980	0.382620	0	0	0
58073	0	0	0	0	0	8.389384	0.909821	2.034509	0.352792	-0.432716	-0.101917	-0.937256	-0.428955	-0.320801	-0.536953	-0.451593	0.326897	-0.633153	10.629401	-67.355675	92.305620	-0.015489	0.384698	0.922913	-0.975197	-0.209638	0.071017	0.220798	-0.898921	0.378403	0	0	0
58074	0	0	0	0	0	8.203989	0.910190	1.784326	0.363988	-0.450820	-0.080851	-0.935303	-0.423828	-0.313477	-0.535660	-0.454119	0.326775	-0.632504	11.064737	-67.599917	92.058377	-0.013687	0.380826	0.924545	-0.974405	-0.212572	0.073135	0.224384	-0.899880	0.373988	0	0	0
58075	0	0	0	0	0	8.143499	0.953742	1.650149	0.358513	-0.467938	-0.052818	-0.932617	-0.421631	-0.302246	-0.534267	-0.456627	0.326781	-0.631874	11.469482	-67.855808	91.839754	-0.012101	0.376744	0.926238	-0.973613	-0.215547	0.074953	0.227886	-0.900890	0.369412	0	0	0
58076	0	0	0	0	0	8.221588	1.109622	1.708249	0.333221	-0.472156	-0.045164	-0.936523	-0.426514	-0.301514	-0.532887	-0.459072	0.326888	-0.631212	11.858204	-68.114780	91.624671	-0.010568	0.372599	0.927932	-0.972860	-0.218351	0.076596	0.231155	-0.901938	0.364794	0	0	0
58077	0	0	0	0	0	8.410800	1.257943	1.822043	0.315317	-0.466601	-0.030208	-0.938477	-0.420654	-0.303467	-0.531513	-0.461417	0.327073	-0.630564	12.219989	-68.371525	91.426594	-0.009176	0.368472	0.929593	-0.972141	-0.221034	0.078017	0.234219	-0.902980	0.360235	0	0	0
58078	0	0	0	0	0	8.541790	1.365698	1.770973	0.306119	-0.471414	-0.038987	-0.946533	-0.421387	-0.293701	-0.530169	-0.463770	0.327273	-0.629866	12.597989	-68.629773	91.207118	-0.007677	0.364312	0.931245	-0.971429	-0.223627	0.079477	0.237206	-0.904029	0.355620	0	0	0
58079	0	0	0	0	0	8.675465	1.379481	2.074200	0.251524	-0.425952	-0.048048	-0.946533	-0.417725	-0.292969	-0.529058	-0.465840	0.327505	-0.629151	12.948870	-68.860603	90.982097	-0.006181	0.360585	0.932706	-0.970845	-0.225675	0.080812	0.239629	-0.905013	0.351467	0	0	0
58080	0	0	0	0	0	8.774684	1.247108	1.998457	0.197482	-0.361706	-0.046022	-0.941895	-0.435547	-0.285156	-0.528162	-0.467566	0.327736	-0.628503	13.250756	-69.055726	90.778161	-0.004855	0.357427	0.933929	-0.970379	-0.227268	0.081935	0.241538	-0.905867	0.347943	0	0	0
58081	0	0	0	0	0	8.760145	1.222148	2.101118	0.153856	-0.317831	-0.063653	-0.939209	-0.422363	-0.284180	-0.527501	-0.469059	0.327951	-0.627834	13.541784	-69.223345	90.557830	-0.003454	0.354709	0.934970	-0.970022	-0.228382	0.083061	0.242993	-0.906655	0.344864	0	0	0
58082	0	0	0	0	0	8.648477	1.198306	2.101433	0.125372	-0.263938	-0.074595	-0.939697	-0.424316	-0.281982	-0.527020	-0.470331	0.328081	-0.627217	13.817958	-69.359417	90.337665	-0.002077	0.352498	0.935810	-0.969725	-0.229226	0.084191	0.244189	-0.907304	0.342303	0	0	0
58083	0	0	0	0	0	8.520139	1.227019	2.187571	0.110194	-0.230837	-0.088771	-0.936523	-0.426025	-0.275391	-0.526681	-0.471475	0.328143	-0.626611	14.096564	-69.474436	90.104243	-0.000638	0.350625	0.936516	-0.969470	-0.229859	0.085397	0.245209	-0.907870	0.340067	0	0	0
58084	0	0	0	0	0	8.437026	1.220704	2.190627	0.115158	-0.210127	-0.089786	-0.926758	-0.427002	-0.271240	-0.526358	-0.472575	0.328127	-0.626062	14.375278	-69.577721	89.875457	0.000758	0.348936	0.937146	-0.969194	-0.230561	0.086631	0.246298	-0.908342	0.338011	0	0	0
58085	0	0	0	0	0	8.506844	1.186132	2.184612	0.127238	-0.180595	-0.081950	-0.937744	-0.427002	-0.273438	-0.526037	-0.473594	0.328019	-0.625618	14.639433	-69.665079	89.668195	0.002012	0.347501	0.937677	-0.968892	-0.231377	0.087827	0.247477	-0.908684	0.336226	0	0	0
58086	0	0	0	0	0	8.522068	1.184953	2.208051	0.145976	-0.143648	-0.076181	-0.941895	-0.421387	-0.275879	-0.525706	-0.474543	0.327762	-0.625311	14.893751	-69.732774	89.484504	0.003117	0.346385	0.938087	-0.968534	-0.232410	0.089034	0.248861	-0.908847	0.334762	0	0	0
58087	0	0	0	0	0	8.567753	1.152993	2.200139	0.133364	-0.123454	-0.056288	-0.941650	-0.432861	-0.269775	-0.525384	-0.475356	0.327545	-0.625078	15.103436	-69.791705	89.339207	0.003984	0.345411	0.938443	-0.968213	-0.233372	0.090007	0.250096	-0.908971	0.333502	0	0	0
58088	0	0	0	0	0	8.610939	0.987998	2.219825	0.159370	-0.100059	-0.028509	-0.933105	-0.422607	-0.268311	-0.524942	-0.476126	0.327245	-0.625021	15.278372	-69.841981	89.248407	0.004520	0.344581	0.938746	-0.967819	-0.234693	0.090808	0.251608	-0.908946	0.332431	0	0	0
58089	0	0	0	0	0	8.576369	0.956089	2.227585	0.158619	-0.081995	-0.004741	-0.943115	-0.433594	-0.276123	-0.524466	-0.476790	0.326961	-0.625062	15.409444	-69.885534	89.202346	0.004787	0.343863	0.939007	-0.967432	-0.236063	0.091379	0.253087	-0.908863	0.331534	0	0	0
58090	0	0	0	0	0	8.454103	0.927586	2.098556	0.155616	-0.070836	0.024705	-0.941406	-0.424316	-0.265869	-0.523914	-0.477371	0.326722	-0.625207	15.490736	-69.927651	89.209021	0.004738	0.343174	0.939260	-0.967045	-0.237533	0.091664	0.254562	-0.908741	0.330739	0	0	0
58091	0	0	0	0	0	8.334675	1.103368	2.071682	0.150434	-0.068753	0.045760	-0.939697	-0.424805	-0.263672	-0.523321	-0.477889	0.326551	-0.625397	15.535735	-69.971594	89.249503	0.004486	0.342457	0.939523	-0.966677	-0.239000	0.091731	0.255960	-0.908627	0.329973	0	0	0
58092	0	0	0	0	0	8.331407	1.259325	2.078744	0.135872	-0.052287	0.063383	-0.947998	-0.424561	-0.265137	-0.522725	-0.478296	0.326417	-0.625654	15.539413	-70.009412	89.326734	0.004017	0.341842	0.939749	-0.966338	-0.240422	0.091586	0.257244	-0.908483	0.329369	0	0	0
58093	0	0	0	0	0	8.420641	1.348619	2.176561	0.122773	-0.038954	0.073140	-0.941895	-0.429688	-0.265869	-0.522159	-0.478605	0.326318	-0.625943	15.514311	-70.041131	89.425120	0.003425	0.341328	0.939938	-0.966038	-0.241733	0.091303	0.258378	-0.908328	0.328908	0	0	0
58094	0	0	0	0	0	8.643852	1.301883	2.271886	0.114862	-0.009997	0.074951	-0.942627	-0.427246	-0.256104	-0.521645	-0.478805	0.326167	-0.626296	15.470212	-70.057348	89.540344	0.002736	0.341068	0.940034	-0.965750	-0.243002	0.090979	0.259461	-0.908087	0.328722	0	0	0
58095	0	0	0	0	0	8.852341	1.261165	2.422245	0.122010	0.021682	0.083160	-0.942871	-0.425293	-0.263184	-0.521149	-0.478905	0.325936	-0.626754	15.403678	-70.057063	89.682269	0.001891	0.341079	0.940033	-0.965448	-0.244340	0.090598	0.260588	-0.907724	0.328832	0	0	0
58096	0	0	0	0	0	8.938204	1.170646	2.526137	0.105586	0.049949	0.097534	-0.940430	-0.416016	-0.260498	-0.520684	-0.478856	0.325711	-0.627294	15.294724	-70.043485	89.860833	0.000829	0.341306	0.939952	-0.965181	-0.245601	0.090031	0.261581	-0.907298	0.329218	0	0	0
58097	0	0	0	0	0	8.905074	1.016664	2.563244	0.100545	0.072486	0.111016	-0.947021	-0.424072	-0.271973	-0.520233	-0.478695	0.325482	-0.627910	15.152697	-70.019132	90.070061	-0.000418	0.341706	0.939807	-0.964932	-0.246838	0.089319	0.262501	-0.906812	0.329826	0	0	0
58098	0	0	0	0	0	8.754002	0.973614	2.624663	0.093860	0.090148	0.126585	-0.936768	-0.425537	-0.262939	-0.519770	-0.478441	0.325258	-0.628602	14.977022	-69.987337	90.312530	-0.001867	0.342223	0.939617	-0.964691	-0.248093	0.088442	0.263379	-0.906275	0.330602	0	0	0
58099	0	0	0	0	0	8.567597	0.994355	2.577528	0.095950	0.089299	0.135017	-0.942383	-0.423340	-0.262207	-0.519283	-0.478175	0.325057	-0.629311	14.790167	-69.956774	90.566480	-0.003388	0.342712	0.939434	-0.964449	-0.249366	0.087492	0.264248	-0.905740	0.331373	0	0	0
58100	0	0	0	0	0	8.444025	1.128060	2.554265	0.100168	0.077399	0.138605	-0.940186	-0.417725	-0.261963	-0.518745	-0.477957	0.324875	-0.630013	14.606216	-69.933262	90.821697	-0.004921	0.343079	0.939294	-0.964185	-0.250719	0.086525	0.265183	-0.905227	0.332026	0	0	0
58101	0	0	0	0	0	8.480056	1.346824	2.561210	0.100862	0.059763	0.127617	-0.944580	-0.417480	-0.256836	-0.518220	-0.477809	0.324716	-0.630640	14.446183	-69.917491	91.050375	-0.006295	0.343315	0.939199	-0.963925	-0.252015	0.085661	0.266101	-0.904778	0.332516	0	0	0
58102	0	0	0	0	0	8.618220	1.410504	2.660519	0.091462	0.039125	0.110722	-0.951172	-0.415771	-0.258057	-0.517728	-0.477734	0.324594	-0.631163	14.315219	-69.910769	91.243913	-0.007457	0.343402	0.939159	-0.963681	-0.253193	0.084928	0.266953	-0.904416	0.332818	0	0	0
58103	0	0	0	0	0	8.820394	1.493859	2.727753	0.083695	0.028328	0.098601	-0.943359	-0.423584	-0.266357	-0.517282	-0.477687	0.324500	-0.631612	14.201969	-69.908008	91.412597	-0.008469	0.343424	0.939142	-0.963462	-0.254238	0.084282	0.267710	-0.904114	0.333029	0	0	0
58104	0	0	0	0	0	9.026333	1.373383	2.754863	0.085800	0.022049	0.080424	-0.945801	-0.413818	-0.265137	-0.516871	-0.477700	0.324367	-0.632007	14.120458	-69.906271	91.550031	-0.009293	0.343431	0.939132	-0.963233	-0.255261	0.083815	0.268508	-0.903824	0.333176	0	0	0
58105	0	0	0	0	0	9.191456	1.231460	2.819165	0.109864	0.014675	0.077895	-0.952637	-0.419434	-0.267090	-0.516408	-0.477797	0.324177	-0.632410	14.058945	-69.908021	91.679213	-0.010067	0.343381	0.939142	-0.962945	-0.256464	0.083450	0.269512	-0.903502	0.333238	0	0	0
58106	0	0	0	0	0	9.205826	1.075609	2.774809	0.130967	0.001345	0.090932	-0.949707	-0.417725	-0.260254	-0.515822	-0.477975	0.323980	-0.632855	13.995169	-69.919142	91.825312	-0.010936	0.343172	0.939209	-0.962589	-0.257930	0.083035	0.270745	-0.903164	0.333154	0	0	0
58107	0	0	0	0	0	9.284568	0.842495	2.644639	0.120214	0.009469	0.108172	-0.952393	-0.416992	-0.255615	-0.515228	-0.478065	0.323843	-0.633340	13.895397	-69.927867	92.001642	-0.011987	0.342993	0.939261	-0.962265	-0.259332	0.082420	0.271850	-0.902830	0.333159	0	0	0
58108	0	0	0	0	0	9.227104	0.739332	2.699786	0.128586	0.017849	0.129456	-0.955322	-0.414795	-0.264160	-0.514552	-0.478122	0.323702	-0.633919	13.765165	-69.934910	92.217024	-0.013272	0.342831	0.939303	-0.961906	-0.260907	0.081635	0.273058	-0.902438	0.333234	0	0	0
58109	0	0	0	0	0	9.169001	0.795232	2.674203	0.141155	0.001800	0.147641	-0.953369	-0.418945	-0.257568	-0.513769	-0.478226	0.323611	-0.634521	13.619781	-69.953007	92.454798	-0.014682	0.342476	0.939412	-0.961513	-0.262634	0.080720	0.274366	-0.902072	0.333151	0	0	0
58110	0	0	0	0	0	9.127668	0.826254	2.666213	0.138687	-0.014601	0.159717	-0.958496	-0.413574	-0.264404	-0.512919	-0.478362	0.323593	-0.635115	13.460554	-69.981811	92.707153	-0.016168	0.341936	0.939584	-0.961115	-0.264402	0.079683	0.275675	-0.901760	0.332915	0	0	0
58111	0	0	0	0	0	9.122474	0.984693	2.784172	0.145116	-0.036705	0.163883	-0.949951	-0.409180	-0.255859	-0.512013	-0.478571	0.323627	-0.635671	13.305626	-70.023086	92.957302	-0.017626	0.341187	0.939830	-0.960701	-0.266216	0.078627	0.277025	-0.901510	0.332471	0	0	0
58112	0	0	0	0	0	9.196497	1.106245	2.789367	0.135490	-0.057595	0.154414	-0.962402	-0.401123	-0.260742	-0.511117	-0.478842	0.323717	-0.636143	13.166783	-70.074715	93.185892	-0.018940	0.340268	0.940138	-0.960305	-0.267934	0.077628	0.278310	-0.901348	0.331835	0	0	0
58113	0	0	0	0	0	9.349283	1.172965	2.845322	0.123217	-0.066950	0.139672	-0.961914	-0.411133	-0.258789	-0.510289	-0.479130	0.323839	-0.636528	13.045683	-70.129320	93.386718	-0.020079	0.339305	0.940462	-0.959948	-0.269468	0.076725	0.279457	-0.901254	0.331126	0	0	0
58114	0	0	0	0	0	9.317596	1.160377	2.953925	0.112580	-0.078910	0.122812	-0.964844	-0.410400	-0.253906	-0.509513	-0.479461	0.323979	-0.636829	12.948333	-70.188449	93.557083	-0.021028	0.338275	0.940812	-0.959616	-0.270869	0.075944	0.280527	-0.901221	0.330310	0	0	0
58115	0	0	0	0	0	9.211057	1.096084	2.935228	0.106381	-0.092363	0.108678	-0.970215	-0.404297	-0.251953	-0.508782	-0.479836	0.324145	-0.637047	12.873043	-70.253047	93.698768	-0.021796	0.337163	0.941194	-0.959308	-0.272143	0.075274	0.281519	-0.901254	0.329375	0	0	0
58116	0	0	0	0	0	9.153289	0.980924	2.719585	0.108715	-0.107482	0.095200	-0.951904	-0.409912	-0.251953	-0.508056	-0.480292	0.324303	-0.637202	12.825120	-70.324469	93.814138	-0.022397	0.335947	0.941614	-0.958989	-0.273413	0.074738	0.282558	-0.901324	0.328293	0	0	0
58117	0	0	0	0	0	9.144189	0.937688	2.642271	0.113070	-0.113948	0.091036	-0.967773	-0.402344	-0.249512	-0.507329	-0.480782	0.324459	-0.637332	12.787616	-70.398806	93.919695	-0.022932	0.334686	0.942050	-0.958663	-0.274686	0.074252	0.283620	-0.901406	0.327151	0	0	0
58118	0	0	0	0	0	9.149840	0.869927	2.674564	0.110051	-0.134827	0.079163	-0.959229	-0.409912	-0.240967	-0.506606	-0.481353	0.324644	-0.637382	12.774281	-70.483429	93.999062	-0.023299	0.333266	0.942545	-0.958340	-0.275913	0.073869	0.284679	-0.901557	0.325811	0	0	0
58119	0	0	0	0	0	9.200498	0.857020	2.674320	0.104748	-0.144829	0.086517	-0.956787	-0.406006	-0.249756	-0.505862	-0.481927	0.324893	-0.637413	12.749126	-70.574438	94.086476	-0.023700	0.331736	0.943074	-0.958035	-0.277096	0.073395	0.285670	-0.901759	0.324382	0	0	0
58120	0	0	0	0	0	9.277860	0.825367	2.659906	0.089799	-0.158994	0.085608	-0.964111	-0.394775	-0.247803	-0.505127	-0.482513	0.325218	-0.637386	12.721672	-70.673360	94.168420	-0.024056	0.330078	0.943647	-0.957766	-0.278160	0.072881	0.286541	-0.902040	0.322829	0	0	0
58121	0	0	0	0	0	9.356326	0.840641	2.670778	0.075181	-0.174400	0.089409	-0.969482	-0.400879	-0.251465	-0.504397	-0.483099	0.325644	-0.637303	12.684427	-70.781226	94.250373	-0.024397	0.328271	0.944269	-0.957544	-0.279079	0.072281	0.287254	-0.902415	0.321142	0	0	0
58122	0	0	0	0	0	9.464574	0.934593	2.537703	0.037931	-0.190867	0.081771	-0.965820	-0.396729	-0.241211	-0.503746	-0.483662	0.326205	-0.637104	12.643657	-70.897450	94.314845	-0.024622	0.326332	0.944934	-0.957423	-0.279660	0.071633	0.287636	-0.902938	0.319324	0	0	0
58123	0	0	0	0	0	9.588794	1.050130	2.631838	0.039734	-0.199670	0.077399	-0.968994	-0.399658	-0.242432	-0.503098	-0.484258	0.326777	-0.636870	12.613313	-71.017915	94.367920	-0.024773	0.324328	0.945620	-0.957305	-0.280218	0.071030	0.288017	-0.903487	0.317422	0	0	0
58124	0	0	0	0	0	9.760455	1.158421	2.646088	0.016741	-0.215383	0.072763	-0.967285	-0.398682	-0.242188	-0.502486	-0.484858	0.327445	-0.636553	12.582804	-71.146697	94.408617	-0.024840	0.322190	0.946349	-0.957247	-0.280575	0.070398	0.288203	-0.904141	0.315385	0	0	0
58125	0	0	0	0	0	9.909250	1.270280	2.743728	0.001550	-0.218542	0.053511	-0.968750	-0.397705	-0.247803	-0.501975	-0.485457	0.328127	-0.636149	12.575749	-71.274728	94.413859	-0.024707	0.320079	0.947069	-0.957245	-0.280708	0.069898	0.288222	-0.904850	0.313329	0	0	0
58126	0	0	0	0	0	10.151599	1.257236	2.793747	-0.008137	-0.212987	0.038671	-0.967041	-0.402588	-0.236572	-0.501534	-0.486042	0.328785	-0.635710	12.585862	-71.397911	94.396572	-0.024454	0.318055	0.947757	-0.957267	-0.280728	0.069510	0.288170	-0.905557	0.311329	0	0	0
58127	0	0	0	0	0	10.323272	1.209149	2.889172	-0.021287	-0.203179	0.022912	-0.970703	-0.405029	-0.239746	-0.501201	-0.486582	0.329427	-0.635227	12.611082	-71.513526	94.353788	-0.024071	0.316166	0.948399	-0.957339	-0.280552	0.069229	0.287963	-0.906273	0.309431	0	0	0
58128	0	0	0	0	0	10.404328	1.115924	3.003959	-0.021644	-0.203912	0.017356	-0.972900	-0.394775	-0.231689	-0.500875	-0.487139	0.330052	-0.634733	12.646344	-71.628960	94.301860	-0.023641	0.314281	0.949035	-0.957406	-0.280381	0.069001	0.287777	-0.906981	0.307523	0	0	0
58129	0	0	0	0	0	10.379597	0.940315	2.981274	-0.018871	-0.200433	0.015416	-0.971191	-0.394775	-0.234619	-0.500562	-0.487689	0.330660	-0.634241	12.685536	-71.742097	94.246000	-0.023196	0.312435	0.949656	-0.957472	-0.280204	0.068800	0.287592	-0.907673	0.305647	0	0	0
58130	0	0	0	0	0	10.392072	0.909083	3.012515	-0.014944	-0.198383	0.013795	-0.972656	-0.401611	-0.236084	-0.500239	-0.488249	0.331241	-0.633762	12.729711	-71.853970	94.188798	-0.022749	0.310608	0.950266	-0.957520	-0.280082	0.068626	0.287468	-0.908337	0.303785	0	0	0
58131	0	0	0	0	0	10.374432	0.862349	3.050607	-0.018435	-0.196194	0.019209	-0.975830	-0.387695	-0.228516	-0.499919	-0.488779	0.331846	-0.633288	12.762207	-71.965193	94.140235	-0.022352	0.308787	0.950869	-0.957585	-0.279918	0.068391	0.287283	-0.909009	0.301946	0	0	0
58132	0	0	0	0	0	10.321470	0.828279	3.134786	-0.015628	-0.204271	0.015755	-0.971680	-0.387695	-0.227295	-0.499581	-0.489352	0.332448	-0.632797	12.806104	-72.080579	94.082986	-0.021907	0.306898	0.951490	-0.957634	-0.279795	0.068198	0.287152	-0.909686	0.300026	0	0	0
58133	0	0	0	0	0	10.334176	0.907414	3.146579	-0.012224	-0.219907	0.014914	-0.968994	-0.398682	-0.229004	-0.499217	-0.489980	0.333080	-0.632265	12.860133	-72.204501	94.015903	-0.021404	0.304870	0.952153	-0.957681	-0.279679	0.068023	0.287035	-0.910403	0.297954	0	0	0
58134	0	0	0	0	0	10.378464	0.940596	3.103580	-0.004574	-0.230531	0.011424	-0.969971	-0.390381	-0.222168	-0.498821	-0.490670	0.333701	-0.631716	12.929937	-72.333966	93.938184	-0.020842	0.302752	0.952842	-0.957700	-0.279643	0.067904	0.287013	-0.911121	0.295774	0	0	0
58135	0	0	0	0	0	10.417819	0.953808	3.163584	0.001172	-0.239445	0.004768	-0.965332	-0.400635	-0.225830	-0.498424	-0.491407	0.334315	-0.631130	13.019381	-72.467430	93.841878	-0.020185	0.300571	0.953546	-0.957711	-0.279613	0.067865	0.287023	-0.911852	0.293504	0	0	0
58136	0	0	0	0	0	10.512400	0.904489	3.063321	0.005681	-0.256316	-0.003118	-0.974854	-0.399170	-0.223389	-0.498004	-0.492227	0.334931	-0.630497	13.134008	-72.609325	93.723445	-0.019410	0.298255	0.954289	-0.957704	-0.279627	0.067916	0.287101	-0.912608	0.291067	0	0	0
58137	0	0	0	0	0	10.574415	0.841587	2.877126	0.014969	-0.262223	-0.001576	-0.976318	-0.396484	-0.220703	-0.497554	-0.493079	0.335543	-0.629860	13.255480	-72.754544	93.601822	-0.018625	0.295880	0.955043	-0.957678	-0.279701	0.067978	0.287240	-0.913358	0.288567	0	0	0
58138	0	0	0	0	0	10.631553	0.771067	2.905571	0.034065	-0.263900	0.000845	-0.974121	-0.397705	-0.218994	-0.497037	-0.493985	0.336097	-0.629263	13.386444	-72.901038	93.483499	-0.017865	0.293480	0.955798	-0.957588	-0.279986	0.068072	0.287587	-0.914045	0.286035	0	0	0
58139	0	0	0	0	0	10.684248	0.729010	2.973236	0.049775	-0.263438	0.001680	-0.980957	-0.389648	-0.206543	-0.496487	-0.494921	0.336609	-0.628687	13.526727	-73.047213	93.363335	-0.017107	0.291081	0.956545	-0.957460	-0.280390	0.068201	0.288058	-0.914688	0.283495	0	0	0
58140	0	0	0	0	0	10.718577	0.663023	2.995448	0.061734	-0.259790	0.010687	-0.968506	-0.386230	-0.219482	-0.495876	-0.495865	0.337089	-0.628169	13.658019	-73.192576	93.261421	-0.016451	0.288688	0.957282	-0.957289	-0.280956	0.068277	0.288665	-0.915272	0.280979	0	0	0
58141	0	0	0	0	0	10.742292	0.688036	2.920328	0.079450	-0.274709	0.026613	-0.974365	-0.400146	-0.216309	-0.495153	-0.496866	0.337595	-0.627676	13.778580	-73.348265	93.179973	-0.015896	0.286112	0.958064	-0.957070	-0.281707	0.068249	0.289421	-0.915850	0.278308	0	0	0
58142	0	0	0	0	0	10.727863	0.664590	2.753932	0.093933	-0.270698	0.027741	-0.978027	-0.400391	-0.202637	-0.494387	-0.497893	0.338042	-0.627225	13.905498	-73.501904	93.102033	-0.015368	0.283567	0.958829	-0.956802	-0.282618	0.068247	0.290335	-0.916361	0.275661	0	0	0
58143	0	0	0	0	0	10.706285	0.682917	2.646944	0.107658	-0.275910	0.039456	-0.972412	-0.388916	-0.206299	-0.493551	-0.498943	0.338494	-0.626805	14.022347	-73.659929	93.041166	-0.014926	0.280942	0.959609	-0.956499	-0.283659	0.068168	0.291353	-0.916848	0.272954	0	0	0
58144	0	0	0	0	0	10.707246	0.661988	2.629739	0.114219	-0.277743	0.042746	-0.983154	-0.396484	-0.198242	-0.492674	-0.500015	0.338931	-0.626405	14.139389	-73.819480	92.985747	-0.014515	0.278286	0.960388	-0.956168	-0.284796	0.068073	0.292459	-0.917305	0.270222	0	0	0
58145	0	0	0	0	0	10.754542	0.804869	2.650440	0.120378	-0.280448	0.040655	-0.979980	-0.388428	-0.202393	-0.491791	-0.501107	0.339355	-0.625996	14.266904	-73.980138	92.921612	-0.014066	0.275612	0.961166	-0.955825	-0.285959	0.068010	0.293598	-0.917750	0.267459	0	0	0
58146	0	0	0	0	0	10.914020	0.831539	2.644604	0.117564	-0.280317	0.033631	-0.979736	-0.393799	-0.199707	-0.490928	-0.502208	0.339764	-0.625570	14.408488	-74.139754	92.842752	-0.013554	0.272956	0.961931	-0.955483	-0.287101	0.068004	0.294734	-0.918187	0.264696	0	0	0
58147	0	0	0	0	0	11.020980	0.875797	2.771923	0.128878	-0.269047	0.032680	-0.975098	-0.388184	-0.190918	-0.490066	-0.503296	0.340113	-0.625181	14.554790	-74.292856	92.764130	-0.013055	0.270406	0.962658	-0.955115	-0.288317	0.068034	0.295947	-0.918561	0.262032	0	0	0
58148	0	0	0	0	0	11.034273	0.799131	2.767678	0.132713	-0.251313	0.033883	-0.976074	-0.386230	-0.187744	-0.489211	-0.504341	0.340401	-0.624851	14.693972	-74.436318	92.696896	-0.012625	0.268012	0.963333	-0.954726	-0.289598	0.068058	0.297220	-0.918859	0.259534	0	0	0
58149	0	0	0	0	0	11.045118	0.737567	2.785814	0.136815	-0.223296	0.019911	-0.965088	-0.388672	-0.183594	-0.488445	-0.505326	0.340579	-0.624558	14.850464	-74.562114	92.612700	-0.012134	0.265917	0.963920	-0.954332	-0.290855	0.068225	0.298503	-0.919071	0.257302	0	0	0
58150	0	0	0	0	0	10.902641	0.682997	2.697919	0.151093	-0.206808	0.025160	-0.976318	-0.393311	-0.187256	-0.487645	-0.506290	0.340679	-0.624349	14.997719	-74.679553	92.548098	-0.011747	0.263956	0.964463	-0.953885	-0.292281	0.068374	0.299942	-0.919184	0.255217	0	0	0
58151	0	0	0	0	0	10.789128	0.643703	2.604789	0.153102	-0.178233	0.017242	-0.974854	-0.386475	-0.184570	-0.486921	-0.507177	0.340689	-0.624188	15.148035	-74.779897	92.479905	-0.011359	0.262282	0.964924	-0.953440	-0.293678	0.068602	0.301370	-0.919218	0.253406	0	0	0
58152	0	0	0	0	0	10.682807	0.609507	2.481148	0.159037	-0.166447	0.020210	-0.974854	-0.387939	-0.177246	-0.486184	-0.508041	0.340652	-0.624080	15.290666	-74.874187	92.424873	-0.011040	0.260706	0.965355	-0.952966	-0.295163	0.068814	0.302878	-0.919190	0.251702	0	0	0
58153	0	0	0	0	0	10.611170	0.571421	2.546440	0.165015	-0.156753	0.022468	-0.983154	-0.396484	-0.176758	-0.485449	-0.508879	0.340585	-0.624006	15.427698	-74.963378	92.377651	-0.010763	0.259213	0.965760	-0.952479	-0.296683	0.069016	0.304415	-0.919123	0.250088	0	0	0
58154	0	0	0	0	0	10.605713	0.582666	2.581942	0.146847	-0.154108	0.020997	-0.981201	-0.382813	-0.183838	-0.484760	-0.509673	0.340557	-0.623910	15.557018	-75.050906	92.329216	-0.010484	0.257748	0.966155	-0.952037	-0.298058	0.069184	0.305803	-0.919090	0.248510	0	0	0
58155	0	0	0	0	0	10.595945	0.597367	2.401747	0.156112	-0.159945	0.022280	-0.971680	-0.394043	-0.170166	-0.484042	-0.510498	0.340524	-0.623810	15.693284	-75.141770	92.277451	-0.010190	0.256226	0.966563	-0.951574	-0.299494	0.069361	0.307252	-0.919049	0.246869	0	0	0
58156	0	0	0	0	0	10.629651	0.613892	2.375563	0.147296	-0.151953	0.016881	-0.973633	-0.388916	-0.173828	-0.483367	-0.511292	0.340478	-0.623708	15.832322	-75.227409	92.219270	-0.009874	0.254792	0.966945	-0.951127	-0.300862	0.069565	0.308642	-0.919001	0.245310	0	0	0
58157	0	0	0	0	0	10.581739	0.667547	2.407797	0.153334	-0.144371	0.018429	-0.976807	-0.395508	-0.172852	-0.482693	-0.512068	0.340406	-0.623632	15.968016	-75.309033	92.166483	-0.009587	0.253424	0.967308	-0.950668	-0.302261	0.069767	0.310060	-0.918920	0.243820	0	0	0
58158	0	0	0	0	0	10.531907	0.754685	2.355777	0.148599	-0.131551	0.003208	-0.978516	-0.385254	-0.170410	-0.482092	-0.512823	0.340271	-0.623551	16.126502	-75.381197	92.089013	-0.009200	0.252219	0.967626	-0.950215	-0.303606	0.070103	0.311459	-0.918808	0.242456	0	0	0
58159	0	0	0	0	0	10.578599	0.797151	2.285491	0.155637	-0.116142	-0.008369	-0.979980	-0.389160	-0.169189	-0.481543	-0.513561	0.340055	-0.623485	16.305047	-75.442929	91.993292	-0.008742	0.251192	0.967898	-0.949748	-0.304958	0.070565	0.312893	-0.918642	0.241235	0	0	0
58160	0	0	0	0	0	10.497815	0.776242	2.285848	0.165090	-0.101403	-0.011600	-0.968506	-0.396484	-0.165771	-0.480996	-0.514286	0.339757	-0.623472	16.487940	-75.496007	91.900414	-0.008305	0.250310	0.968130	-0.949240	-0.306416	0.071080	0.314443	-0.918398	0.240149	0	0	0
58161	0	0	0	0	0	10.458925	0.809116	2.251286	0.165567	-0.083974	-0.019534	-0.975098	-0.389893	-0.165771	-0.480511	-0.514966	0.339404	-0.623478	16.677774	-75.538100	91.798901	-0.007840	0.249613	0.968314	-0.948738	-0.307829	0.071672	0.315966	-0.918115	0.239231	0	0	0
58162	0	0	0	0	0	10.443086	0.838352	2.223399	0.157280	-0.065930	-0.025668	-0.977051	-0.391602	-0.162354	-0.480087	-0.515585	0.339008	-0.623508	16.865276	-75.569238	91.696677	-0.007379	0.249101	0.968450	-0.948251	-0.309180	0.072301	0.317436	-0.917800	0.238491	0	0	0
58163	0	0	0	0	0	10.373408	0.857067	2.201742	0.150919	-0.047419	-0.028060	-0.979492	-0.390625	-0.165283	-0.479727	-0.516129	0.338590	-0.623562	17.042647	-75.589719	91.599467	-0.006946	0.248767	0.968539	-0.947791	-0.310439	0.072938	0.318816	-0.917466	0.237935	0	0	0
58164	0	0	0	0	0	10.270732	0.890036	2.230325	0.128452	-0.026054	-0.027724	-0.981689	-0.386475	-0.168945	-0.479450	-0.516557	0.338183	-0.623641	17.192857	-75.598521	91.518712	-0.006592	0.248628	0.968577	-0.947392	-0.311519	0.073517	0.320009	-0.917137	0.237601	0	0	0
58165	0	0	0	0	0	10.212496	0.775528	2.038370	0.090104	-0.009318	-0.036473	-0.977295	-0.394775	-0.170166	-0.479338	-0.516851	0.337841	-0.623670	17.328644	-75.596595	91.428406	-0.006201	0.248670	0.968568	-0.947124	-0.312197	0.074090	0.320808	-0.916895	0.237457	0	0	0
58166	0	0	0	0	0	10.122478	0.829282	2.146943	0.104192	-0.015605	-0.034633	-0.978760	-0.386963	-0.165527	-0.479163	-0.517200	0.337467	-0.623717	17.472880	-75.598401	91.339470	-0.005814	0.248649	0.968576	-0.946800	-0.313037	0.074678	0.321769	-0.916614	0.237241	0	0	0
58167	0	0	0	0	0	10.109986	0.796780	2.173527	0.079262	0.001267	-0.034949	-0.970215	-0.388672	-0.161377	-0.479093	-0.517431	0.337138	-0.623758	17.592056	-75.590850	91.259792	-0.005471	0.248784	0.968543	-0.946566	-0.313617	0.075210	0.322463	-0.916379	0.237207	0	0	0
58168	0	0	0	0	0	10.079825	0.787256	2.182685	0.062091	0.008457	-0.040811	-0.972900	-0.389160	-0.166260	-0.479086	-0.517614	0.336821	-0.623781	17.708978	-75.578349	91.174145	-0.005103	0.249004	0.968489	-0.946377	-0.314056	0.075758	0.323024	-0.916169	0.237254	0	0	0
58169	0	0	0	0	0	10.091820	0.735784	2.197326	0.038655	0.020666	-0.044121	-0.977539	-0.389893	-0.162598	-0.479181	-0.517703	0.336548	-0.623782	17.810912	-75.558545	91.088329	-0.004737	0.249346	0.968403	-0.946273	-0.314242	0.076283	0.323334	-0.916012	0.237438	0	0	0
58170	0	0	0	0	0	10.023012	0.723810	2.146332	0.021489	0.027835	-0.049971	-0.980469	-0.393311	-0.160156	-0.479341	-0.517744	0.336288	-0.623766	17.910332	-75.533788	90.996718	-0.004345	0.249771	0.968295	-0.946215	-0.314285	0.076823	0.323509	-0.915882	0.237703	0	0	0
58171	0	0	0	0	0	9.983120	0.725079	2.211827	0.003397	0.043539	-0.055815	-0.975830	-0.387939	-0.165283	-0.479602	-0.517698	0.336039	-0.623738	18.000541	-75.499393	90.902232	-0.003943	0.250359	0.968145	-0.946225	-0.314120	0.077377	0.323486	-0.915778	0.238135	0	0	0
58172	0	0	0	0	0	9.987100	0.748039	2.327242	-0.019428	0.055480	-0.063553	-0.981689	-0.391846	-0.154053	-0.479956	-0.517577	0.335805	-0.623692	18.085406	-75.457093	90.801410	-0.003512	0.251080	0.967960	-0.946299	-0.313754	0.077952	0.323274	-0.915706	0.238699	0	0	0
58173	0	0	0	0	0	9.978331	0.751892	2.242199	-0.028960	0.061341	-0.072205	-0.972412	-0.386719	-0.157959	-0.480381	-0.517425	0.335571	-0.623617	18.178266	-75.410022	90.685118	-0.003012	0.251882	0.967753	-0.946412	-0.313253	0.078586	0.322946	-0.915657	0.239328	0	0	0
58174	0	0	0	0	0	9.916184	0.745640	2.161948	-0.022714	0.065556	-0.081045	-0.980469	-0.392578	-0.164307	-0.480815	-0.517294	0.335277	-0.623549	18.289629	-75.359018	90.554923	-0.002448	0.252750	0.967529	-0.946497	-0.312812	0.079322	0.322703	-0.915569	0.239993	0	0	0
58175	0	0	0	0	0	9.906968	0.732641	2.307799	-0.023628	0.079180	-0.088758	-0.972168	-0.391357	-0.167480	-0.481307	-0.517126	0.334941	-0.623489	18.406136	-75.299158	90.417295	-0.001848	0.253765	0.967264	-0.946593	-0.312317	0.080129	0.322427	-0.915457	0.240790	0	0	0
58176	0	0	0	0	0	9.899427	0.724268	2.204779	-0.025070	0.067125	-0.098603	-0.982178	-0.392090	-0.160889	-0.481804	-0.517014	0.334606	-0.623378	18.549524	-75.243973	90.252525	-0.001123	0.254701	0.967019	-0.946684	-0.311808	0.081027	0.322162	-0.915371	0.241472	0	0	0
58177	0	0	0	0	0	9.812560	0.722546	2.244563	-0.021114	0.074120	-0.107950	-0.975586	-0.394287	-0.157715	-0.482341	-0.516900	0.334224	-0.623263	18.708265	-75.183180	90.072595	-0.000324	0.255729	0.966748	-0.946770	-0.311284	0.082025	0.321910	-0.915262	0.242218	0	0	0
58178	0	0	0	0	0	9.697532	0.753041	2.443007	-0.017424	0.078125	-0.116153	-0.965820	-0.403320	-0.167480	-0.482891	-0.516801	0.333792	-0.623150	18.881771	-75.118559	89.881106	0.000533	0.256819	0.966459	-0.946835	-0.310798	0.083111	0.321718	-0.915122	0.243000	0	0	0
58179	0	0	0	0	0	9.558099	0.804698	2.531257	-0.022348	0.074375	-0.125357	-0.975830	-0.397705	-0.163574	-0.483485	-0.516711	0.333369	-0.622991	19.072106	-75.054111	89.667599	0.001496	0.257902	0.966170	-0.946924	-0.310215	0.084273	0.321455	-0.915015	0.243750	0	0	0
58180	0	0	0	0	0	9.539260	0.824732	2.500439	-0.013923	0.080104	-0.132392	-0.975830	-0.397705	-0.167480	-0.484080	-0.516641	0.332879	-0.622849	19.275770	-74.985039	89.446851	0.002501	0.259059	0.965858	-0.946975	-0.309717	0.085523	0.321298	-0.914857	0.244548	0	0	0
58181	0	0	0	0	0	9.460947	0.815337	2.487922	-0.001486	0.083588	-0.142441	-0.973877	-0.399902	-0.163574	-0.484687	-0.516601	0.332323	-0.622706	19.502183	-74.911973	89.208311	0.003597	0.260278	0.965527	-0.946993	-0.309279	0.086900	0.321235	-0.914659	0.245369	0	0	0
58182	0	0	0	0	0	9.392229	0.779963	2.527997	0.022160	0.090987	-0.153593	-0.979980	-0.400879	-0.176514	-0.485272	-0.516619	0.331640	-0.622600	19.756881	-74.832495	88.955960	0.004767	0.261598	0.965165	-0.946924	-0.309052	0.088443	0.321423	-0.914359	0.246240	0	0	0
58183	0	0	0	0	0	9.349386	0.807204	2.492691	0.036038	0.086918	-0.158298	-0.970215	-0.399170	-0.168457	-0.485837	-0.516685	0.330918	-0.622489	20.029005	-74.753998	88.692101	0.006002	0.262895	0.964806	-0.946817	-0.308911	0.090064	0.321717	-0.914035	0.247060	0	0	0
58184	0	0	0	0	0	9.414846	0.843714	2.429617	0.039633	0.079655	-0.168226	-0.969238	-0.406738	-0.163330	-0.486403	-0.516804	0.330169	-0.622346	20.325297	-74.677098	88.406822	0.007347	0.264156	0.964452	-0.946687	-0.308801	0.091790	0.322071	-0.913709	0.247805	0	0	0
58185	0	0	0	0	0	9.452728	0.817790	2.565774	0.034759	0.073865	-0.178243	-0.965332	-0.401855	-0.170654	-0.487010	-0.516940	0.329430	-0.622149	20.639566	-74.600913	88.098432	0.008811	0.265395	0.964100	-0.946578	-0.308594	0.093600	0.322356	-0.913420	0.248497	0	0	0
58186	0	0	0	0	0	9.419859	0.820452	2.580994	0.033286	0.066063	-0.186839	-0.968750	-0.409912	-0.181641	-0.487627	-0.517115	0.328686	-0.621915	20.972432	-74.526683	87.771230	0.010375	0.266588	0.963755	-0.946461	-0.308372	0.095489	0.322651	-0.913147	0.249116	0	0	0
58187	0	0	0	0	0	9.387286	0.840309	2.489953	0.037283	0.050499	-0.192327	-0.962402	-0.413086	-0.176025	-0.488233	-0.517351	0.327960	-0.621625	21.326512	-74.459108	87.422547	0.012049	0.267655	0.963439	-0.946337	-0.308141	0.097440	0.322955	-0.912913	0.249579	0	0	0
58188	0	0	0	0	0	9.323502	0.859817	2.426012	0.049778	0.044877	-0.196140	-0.968262	-0.412109	-0.177979	-0.488800	-0.517647	0.327191	-0.621339	21.696355	-74.393151	87.066551	0.013768	0.268682	0.963130	-0.946160	-0.308040	0.099459	0.323406	-0.912645	0.249975	0	0	0
58189	0	0	0	0	0	9.279409	0.889354	2.509996	0.049589	0.031554	-0.205911	-0.969727	-0.411133	-0.173096	-0.489386	-0.517993	0.326438	-0.620986	22.091640	-74.331543	86.682130	0.015630	0.269618	0.962841	-0.945988	-0.307880	0.101571	0.323825	-0.912423	0.250243	0	0	0
58190	0	0	0	0	0	9.310618	0.895993	2.463827	0.068338	0.008726	-0.204682	-0.967529	-0.415527	-0.169678	-0.489871	-0.518459	0.325677	-0.620614	22.510196	-74.281581	86.286371	0.017547	0.270341	0.962605	-0.945741	-0.307922	0.103717	0.324447	-0.912195	0.250270	0	0	0
58191	0	0	0	0	0	9.389535	0.912934	2.321029	0.079926	-0.003811	-0.211566	-0.962158	-0.415527	-0.167236	-0.490335	-0.518998	0.324899	-0.620204	22.955462	-74.235925	85.868166	0.019575	0.270971	0.962389	-0.945459	-0.308025	0.105958	0.325151	-0.911973	0.250162	0	0	0
58192	0	0	0	0	0	9.411464	0.931565	2.324322	0.087321	-0.019220	-0.214966	-0.961182	-0.416504	-0.159424	-0.490756	-0.519613	0.324120	-0.619764	23.421286	-74.196710	85.434414	0.021678	0.271471	0.962202	-0.945140	-0.308209	0.108250	0.325947	-0.911762	0.249897	0	0	0
58193	0	0	0	0	0	9.427997	0.931798	2.340003	0.102108	-0.036713	-0.219261	-0.967529	-0.422119	-0.168701	-0.491130	-0.520320	0.323333	-0.619285	23.915464	-74.164727	84.978613	0.023884	0.271825	0.962050	-0.944772	-0.308494	0.110619	0.326856	-0.911560	0.249445	0	0	0
58194	0	0	0	0	0	9.433975	1.022990	2.345061	0.118804	-0.053648	-0.219811	-0.958984	-0.420654	-0.179688	-0.491427	-0.521125	0.322528	-0.618792	24.432499	-74.140348	84.510241	0.026144	0.272028	0.961934	-0.944337	-0.308950	0.113035	0.327939	-0.911345	0.248809	0	0	0
58195	0	0	0	0	0	9.487222	1.108501	2.358735	0.133663	-0.063861	-0.223994	-0.963623	-0.418701	-0.171875	-0.491690	-0.521999	0.321697	-0.618279	24.972682	-74.119107	84.024949	0.028485	0.272152	0.961833	-0.943855	-0.309503	0.115526	0.329131	-0.911121	0.248056	0	0	0
58196	0	0	0	0	0	9.574062	1.180598	2.323603	0.141875	-0.073114	-0.215260	-0.958252	-0.426270	-0.160889	-0.491880	-0.522911	0.320879	-0.617781	25.508456	-74.103551	83.550742	0.030765	0.272166	0.961758	-0.943332	-0.310181	0.117953	0.330422	-0.910886	0.247200	0	0	0
58197	0	0	0	0	0	9.607954	1.239348	2.291540	0.153775	-0.074109	-0.206092	-0.959229	-0.424072	-0.159912	-0.492016	-0.523837	0.320057	-0.617316	26.034228	-74.089611	83.092549	0.032969	0.272144	0.961692	-0.942774	-0.310968	0.120319	0.331799	-0.910624	0.246318	0	0	0
58198	0	0	0	0	0	9.641703	1.297608	2.259201	0.160001	-0.072506	-0.199567	-0.951416	-0.428467	-0.159424	-0.492109	-0.524765	0.319221	-0.616886	26.549632	-74.075347	82.650256	0.035099	0.272119	0.961623	-0.942183	-0.311852	0.122637	0.333256	-0.910329	0.245440	0	0	0
58199	0	0	0	0	0	9.672169	1.321168	2.221726	0.178534	-0.071135	-0.185434	-0.963135	-0.426270	-0.154297	-0.492119	-0.525707	0.318368	-0.616517	27.048159	-74.062990	82.235174	0.037098	0.272063	0.961564	-0.941536	-0.312922	0.124862	0.334865	-0.909979	0.244548	0	0	0
58200	0	0	0	0	0	9.690614	1.369589	2.255436	0.195599	-0.076509	-0.169838	-0.953857	-0.427734	-0.164795	-0.492019	-0.526686	0.317509	-0.616204	27.533065	-74.056462	81.845759	0.038962	0.271913	0.961533	-0.940823	-0.314210	0.126978	0.336651	-0.909580	0.243580	0	0	0
58201	0	0	0	0	0	9.701654	1.412464	2.322322	0.169990	-0.074330	-0.151655	-0.944580	-0.433105	-0.161377	-0.491940	-0.527562	0.316778	-0.615894	27.968590	-74.052854	81.491096	0.040653	0.271726	0.961516	-0.940206	-0.315293	0.128855	0.338173	-0.909261	0.242661	0	0	0
58202	0	0	0	0	0	9.781390	1.425368	2.169894	0.157749	-0.075830	-0.133592	-0.954590	-0.424561	-0.154785	-0.491828	-0.528386	0.316129	-0.615610	28.366547	-74.054150	81.169544	0.042174	0.271472	0.961522	-0.939625	-0.316336	0.130527	0.339598	-0.908974	0.241741	0	0	0
58203	0	0	0	0	0	9.812862	1.378357	2.213885	0.146911	-0.068503	-0.116266	-0.953613	-0.429199	-0.156006	-0.491710	-0.529130	0.315547	-0.615364	28.720733	-74.055950	80.885634	0.043514	0.271230	0.961530	-0.939092	-0.317303	0.132004	0.340900	-0.908709	0.240903	0	0	0
58204	0	0	0	0	0	9.779228	1.405822	2.253278	0.155721	-0.054082	-0.091430	-0.953613	-0.434326	-0.151123	-0.491506	-0.529815	0.314962	-0.615237	29.022509	-74.056912	80.662906	0.044565	0.271043	0.961535	-0.938529	-0.318441	0.133263	0.342313	-0.908367	0.240190	0	0	0
58205	0	0	0	0	0	9.740384	1.412550	2.308322	0.152648	-0.042750	-0.077430	-0.948730	-0.435059	-0.145996	-0.491293	-0.530432	0.314401	-0.615163	29.286890	-74.055849	80.475906	0.045453	0.270914	0.961530	-0.937987	-0.319567	0.134379	0.343679	-0.908010	0.239588	0	0	0
58206	0	0	0	0	0	9.625849	1.456036	2.387037	0.147712	-0.042156	-0.058749	-0.951416	-0.426270	-0.158936	-0.491028	-0.531008	0.313897	-0.615134	29.515267	-74.059485	80.324742	0.046157	0.270733	0.961547	-0.937460	-0.320720	0.135303	0.345019	-0.907658	0.238998	0	0	0
58207	0	0	0	0	0	9.610801	1.468920	2.218189	0.116907	-0.039764	-0.036060	-0.954102	-0.431885	-0.150879	-0.490786	-0.531462	0.313548	-0.615113	29.684092	-74.068244	80.215820	0.046646	0.270500	0.961589	-0.937056	-0.321633	0.135933	0.346049	-0.907404	0.238470	0	0	0
58208	0	0	0	0	0	9.532266	1.416340	2.438816	0.089513	-0.021987	-0.020185	-0.949951	-0.434082	-0.158691	-0.490589	-0.531773	0.313276	-0.615141	29.792015	-74.072562	80.155254	0.046920	0.270379	0.961610	-0.936746	-0.322362	0.136346	0.346852	-0.907181	0.238151	0	0	0
58209	0	0	0	0	0	9.536174	1.503209	2.462710	0.075903	-0.034609	-0.008998	-0.943848	-0.428711	-0.153320	-0.490381	-0.532068	0.313113	-0.615135	29.885274	-74.086341	80.100379	0.047139	0.270106	0.961676	-0.936495	-0.322974	0.136619	0.347497	-0.907045	0.237728	0	0	0
58210	0	0	0	0	0	9.563741	1.485921	2.320315	0.056810	-0.027375	-0.001333	-0.949707	-0.432129	-0.150879	-0.490204	-0.532285	0.313004	-0.615143	29.947144	-74.098670	80.068221	0.047255	0.269876	0.961735	-0.936306	-0.323456	0.136772	0.347991	-0.906942	0.237401	0	0	0
58211	0	0	0	0	0	9.634010	1.543802	2.373840	0.051351	-0.032004	0.003283	-0.947021	-0.437988	-0.151611	-0.490028	-0.532492	0.312943	-0.615135	30.002528	-74.114638	80.038153	0.047350	0.269587	0.961811	-0.936146	-0.323879	0.136867	0.348408	-0.906877	0.237037	0	0	0
58212	0	0	0	0	0	9.775656	1.593260	2.442295	0.027153	-0.029686	0.003707	-0.946777	-0.438965	-0.146729	-0.489910	-0.532636	0.312945	-0.615103	30.041085	-74.129542	80.012572	0.047427	0.269319	0.961882	-0.936062	-0.324107	0.136901	0.348623	-0.906875	0.236728	0	0	0
58213	0	0	0	0	0	9.904909	1.568484	2.411556	0.011081	-0.027435	0.006685	-0.943359	-0.430176	-0.152344	-0.489838	-0.532725	0.313005	-0.615053	30.062987	-74.144203	79.993255	0.047475	0.269061	0.961952	-0.936044	-0.324172	0.136869	0.348664	-0.906928	0.236463	0	0	0
58214	0	0	0	0	0	9.980384	1.592685	2.303944	-0.000455	-0.018287	0.002865	-0.944580	-0.429199	-0.151123	-0.489815	-0.532768	0.313062	-0.615006	30.075756	-74.153207	79.978040	0.047520	0.268899	0.961995	-0.936057	-0.324147	0.136846	0.348626	-0.906985	0.236301	0	0	0
58215	0	0	0	0	0	10.062429	1.621737	2.288037	-0.001783	-0.013679	0.013294	-0.947266	-0.431885	-0.154297	-0.489778	-0.532773	0.313146	-0.614988	30.064873	-74.162942	79.985173	0.047459	0.268744	0.962042	-0.936087	-0.324114	0.136719	0.348554	-0.907043	0.236186	0	0	0
58216	0	0	0	0	0	10.189641	1.660143	2.301829	-0.019512	-0.003898	0.010724	-0.951904	-0.430908	-0.142334	-0.489804	-0.532712	0.313247	-0.614969	30.038433	-74.167067	79.999366	0.047380	0.268688	0.962061	-0.936169	-0.323937	0.136575	0.348344	-0.907123	0.236189	0	0	0
58217	0	0	0	0	0	10.345619	1.714287	2.306958	-0.039265	-0.000662	0.014208	-0.947266	-0.435791	-0.155029	-0.489884	-0.532584	0.313416	-0.614930	29.991310	-74.170612	80.021950	0.047264	0.268648	0.962078	-0.936329	-0.323568	0.136351	0.347929	-0.907266	0.236250	0	0	0
58218	0	0	0	0	0	10.572787	1.759736	2.327995	-0.057583	0.009353	0.016152	-0.952148	-0.426514	-0.147461	-0.490015	-0.532381	0.313616	-0.614899	29.920154	-74.169705	80.059949	0.047088	0.268694	0.962074	-0.936546	-0.323061	0.136065	0.347368	-0.907433	0.236432	0	0	0
58219	0	0	0	0	0	10.783352	1.810830	2.312252	-0.080505	0.022627	0.016415	-0.953613	-0.435303	-0.152588	-0.490235	-0.532076	0.313861	-0.614862	29.822097	-74.162288	80.110834	0.046871	0.268859	0.962039	-0.936850	-0.322322	0.135722	0.346576	-0.907647	0.236773	0	0	0
58220	0	0	0	0	0	10.978811	1.853847	2.365660	-0.097652	0.038514	0.018710	-0.952637	-0.437744	-0.152344	-0.490511	-0.531681	0.314119	-0.614853	29.694330	-74.147568	80.183817	0.046571	0.269162	0.961968	-0.937206	-0.321457	0.135316	0.345653	-0.907864	0.237289	0	0	0
58221	0	0	0	0	0	11.132180	1.857716	2.479515	-0.126268	0.062412	0.007161	-0.954346	-0.433838	-0.151123	-0.490943	-0.531156	0.314383	-0.614826	29.546887	-74.117649	80.258707	0.046304	0.269717	0.961826	-0.937662	-0.320276	0.134953	0.344449	-0.908117	0.238074	0	0	0
58222	0	0	0	0	0	11.254608	1.859063	2.499792	-0.138688	0.070939	0.009663	-0.948975	-0.421387	-0.147461	-0.491406	-0.530574	0.314663	-0.614816	29.379890	-74.084101	80.348053	0.045977	0.270344	0.961665	-0.938153	-0.319014	0.134535	0.343155	-0.908375	0.238957	0	0	0
58223	0	0	0	0	0	11.328569	1.816258	2.488401	-0.151432	0.088722	0.005600	-0.949707	-0.442627	-0.159180	-0.491950	-0.529909	0.314934	-0.614816	29.195936	-74.040497	80.446214	0.045636	0.271144	0.961456	-0.938690	-0.317604	0.134124	0.341729	-0.908630	0.240026	0	0	0
58224	0	0	0	0	0	11.358038	1.862494	2.497370	-0.153208	0.105642	0.000741	-0.956055	-0.430420	-0.155762	-0.492533	-0.529198	0.315150	-0.614851	29.003695	-73.986935	80.553205	0.045277	0.272115	0.961199	-0.939222	-0.316185	0.133753	0.340313	-0.908835	0.241261	0	0	0
58225	0	0	0	0	0	11.311162	1.834512	2.589278	-0.158777	0.118479	-0.003126	-0.951416	-0.433838	-0.165039	-0.493170	-0.528435	0.315348	-0.614895	28.803788	-73.925786	80.663309	0.044920	0.273214	0.960904	-0.939777	-0.314678	0.133405	0.338824	-0.909028	0.242625	0	0	0
58226	0	0	0	0	0	11.303227	1.860862	2.644143	-0.159926	0.125044	-0.004104	-0.942139	-0.430420	-0.163330	-0.493815	-0.527654	0.315523	-0.614958	28.599743	-73.860936	80.778644	0.044544	0.274377	0.960590	-0.940325	-0.313184	0.133061	0.337350	-0.909194	0.244053	0	0	0
58227	0	0	0	0	0	11.268310	1.855815	2.690260	-0.160988	0.136726	-0.005625	-0.946045	-0.430908	-0.160889	-0.494495	-0.526832	0.315676	-0.615038	28.388156	-73.789687	80.899555	0.044154	0.275650	0.960243	-0.940882	-0.311648	0.132726	0.335844	-0.909336	0.245594	0	0	0
58228	0	0	0	0	0	11.251503	1.828914	2.756609	-0.164587	0.140892	-0.006608	-0.952148	-0.428223	-0.162842	-0.495184	-0.525994	0.315818	-0.615128	28.173661	-73.715929	81.023074	0.043753	0.276965	0.959883	-0.941440	-0.310104	0.132390	0.334331	-0.909465	0.247178	0	0	0
58229	0	0	0	0	0	11.170708	1.765270	2.749910	-0.163327	0.135529	-0.007969	-0.950439	-0.427734	-0.163574	-0.495872	-0.525173	0.315973	-0.615195	27.968829	-73.644420	81.135876	0.043392	0.278234	0.959533	-0.941998	-0.308543	0.132067	0.332803	-0.909608	0.248708	0	0	0
58230	0	0	0	0	0	11.087322	1.732023	2.655738	-0.168284	0.123625	-0.008325	-0.952881	-0.429688	-0.167480	-0.496548	-0.524380	0.316165	-0.615228	27.773776	-73.578703	81.237013	0.043068	0.279398	0.959209	-0.942561	-0.306960	0.131732	0.331245	-0.909787	0.250130	0	0	0
58231	0	0	0	0	0	11.033765	1.699626	2.656657	-0.163190	0.119302	-0.002040	-0.947021	-0.434082	-0.174561	-0.497191	-0.523599	0.316375	-0.615266	27.576090	-73.516787	81.342546	0.042710	0.280502	0.958903	-0.943116	-0.305417	0.131348	0.329709	-0.909967	0.251501	0	0	0
58232	0	0	0	0	0	11.043940	1.718939	2.624304	-0.169400	0.103610	-0.002129	-0.949463	-0.438965	-0.166016	-0.497817	-0.522854	0.316635	-0.615259	27.389888	-73.462690	81.433848	0.042397	0.281464	0.958635	-0.943681	-0.303840	0.130947	0.328129	-0.910197	0.252731	0	0	0
58233	0	0	0	0	0	11.020076	1.718491	2.508520	-0.169733	0.095578	-0.000583	-0.951904	-0.434326	-0.179932	-0.498436	-0.522126	0.316928	-0.615226	27.209017	-73.413024	81.517735	0.042108	0.282348	0.958387	-0.944254	-0.302237	0.130528	0.326514	-0.910457	0.253882	0	0	0
58234	0	0	0	0	0	11.033328	1.674385	2.430286	-0.161569	0.086250	0.001061	-0.947510	-0.428955	-0.179199	-0.499004	-0.521448	0.317216	-0.615192	27.038741	-73.368451	81.597145	0.041825	0.283143	0.958165	-0.944789	-0.300739	0.130112	0.324998	-0.910706	0.254932	0	0	0
58235	0	0	0	0	0	11.041711	1.643706	2.494707	-0.157191	0.079997	0.003854	-0.941650	-0.441650	-0.180420	-0.499551	-0.520791	0.317520	-0.615148	26.872491	-73.327742	81.673176	0.041548	0.283872	0.957962	-0.945319	-0.299259	0.129679	0.323491	-0.910967	0.255916	0	0	0
58236	0	0	0	0	0	10.939599	1.581948	2.474070	-0.146828	0.076209	0.016234	-0.946533	-0.435791	-0.179443	-0.500017	-0.520155	0.317826	-0.615149	26.694699	-73.292087	81.769285	0.041157	0.284532	0.957783	-0.945808	-0.297938	0.129152	0.322108	-0.911194	0.256850	0	0	0
58237	0	0	0	0	0	10.848450	1.558540	2.424821	-0.138108	0.075953	0.014310	-0.950195	-0.439453	-0.176270	-0.500477	-0.519540	0.318110	-0.615148	26.526196	-73.255998	81.858938	0.040797	0.285193	0.957602	-0.946276	-0.296658	0.128666	0.320775	-0.911405	0.257768	0	0	0
58238	0	0	0	0	0	10.794256	1.539366	2.438116	-0.130179	0.069698	0.026720	-0.948242	-0.428711	-0.179688	-0.500856	-0.518949	0.318408	-0.615184	26.346711	-73.226192	81.966810	0.040330	0.285762	0.957452	-0.946713	-0.295519	0.128079	0.319545	-0.911597	0.258616	0	0	0
58239	0	0	0	0	0	10.679859	1.518000	2.382479	-0.122261	0.073750	0.030744	-0.945801	-0.431396	-0.185791	-0.501218	-0.518354	0.318690	-0.615244	26.162284	-73.195263	82.082878	0.039822	0.286355	0.957296	-0.947132	-0.294434	0.127473	0.318363	-0.911762	0.259491	0	0	0
58240	0	0	0	0	0	10.602216	1.500746	2.389932	-0.111080	0.072763	0.037485	-0.947266	-0.428223	-0.188477	-0.501520	-0.517784	0.318949	-0.615345	25.973890	-73.166391	82.211525	0.039245	0.286922	0.957150	-0.947508	-0.293499	0.126831	0.317313	-0.911885	0.260343	0	0	0
58241	0	0	0	0	0	10.553790	1.499660	2.388472	-0.097361	0.072093	0.043573	-0.943115	-0.434814	-0.181152	-0.501776	-0.517235	0.319192	-0.615471	25.784346	-73.139288	82.347637	0.038623	0.287463	0.957013	-0.947852	-0.292675	0.126166	0.316361	-0.911979	0.261168	0	0	0
58242	0	0	0	0	0	10.458147	1.504238	2.376032	-0.092594	0.071846	0.044052	-0.950439	-0.437500	-0.178955	-0.502007	-0.516703	0.319413	-0.615615	25.597170	-73.112277	82.486116	0.037987	0.288003	0.956876	-0.948170	-0.291928	0.125507	0.315485	-0.912049	0.261986	0	0	0
58243	0	0	0	0	0	10.394598	1.559215	2.360516	-0.083668	0.071449	0.049610	-0.949707	-0.425049	-0.188477	-0.502207	-0.516181	0.319630	-0.615777	25.406790	-73.086759	82.631501	0.037311	0.288521	0.956746	-0.948470	-0.291248	0.124818	0.314663	-0.912102	0.262787	0	0	0
58244	0	0	0	0	0	10.335710	1.567461	2.410715	-0.081796	0.064761	0.053182	-0.937500	-0.432617	-0.185303	-0.502371	-0.515683	0.319860	-0.615942	25.216967	-73.065388	82.779250	0.036612	0.288970	0.956638	-0.948755	-0.290626	0.124099	0.313885	-0.912158	0.263521	0	0	0
58245	0	0	0	0	0	10.237848	1.586196	2.416367	-0.068879	0.064278	0.056463	-0.948730	-0.435303	-0.182129	-0.502501	-0.515209	0.320067	-0.616125	25.030081	-73.044969	82.929751	0.035895	0.289404	0.956534	-0.949009	-0.290100	0.123383	0.313198	-0.912188	0.264234	0	0	0
58246	0	0	0	0	0	10.189967	1.584759	2.412986	-0.066177	0.060472	0.054345	-0.955322	-0.433350	-0.188232	-0.502613	-0.514761	0.320262	-0.616306	24.851439	-73.025829	83.075199	0.035198	0.289811	0.956436	-0.949244	-0.289624	0.122693	0.312565	-0.912210	0.264907	0	0	0
58247	0	0	0	0	0	10.160095	1.561224	2.428757	-0.056601	0.067109	0.055638	-0.951660	-0.438965	-0.190918	-0.502718	-0.514310	0.320422	-0.616514	24.671602	-73.003472	83.225800	0.034480	0.290273	0.956322	-0.949458	-0.289209	0.122017	0.311995	-0.912195	0.265630	0	0	0
58248	0	0	0	0	0	10.130148	1.537689	2.444631	-0.052100	0.065864	0.058064	-0.946045	-0.430420	-0.182617	-0.502791	-0.513875	0.320569	-0.616741	24.491254	-72.982144	83.381498	0.033733	0.290719	0.956214	-0.949648	-0.288873	0.121328	0.311497	-0.912159	0.266337	0	0	0
58249	0	0	0	0	0	10.047364	1.500666	2.463109	-0.046237	0.066304	0.059564	-0.947021	-0.436523	-0.188477	-0.502856	-0.513446	0.320709	-0.616972	24.312167	-72.960856	83.537467	0.032981	0.291163	0.956105	-0.949830	-0.288563	0.120641	0.311022	-0.912116	0.267038	0	0	0
58250	0	0	0	0	0	10.004794	1.470373	2.420534	-0.043194	0.065450	0.063623	-0.943115	-0.438477	-0.195801	-0.502888	-0.513025	0.320844	-0.617226	24.128599	-72.940764	83.701907	0.032182	0.291590	0.956002	-0.949993	-0.288325	0.119922	0.310607	-0.912055	0.267729	0	0	0
58251	0	0	0	0	0	9.990236	1.438375	2.474296	-0.043965	0.060495	0.068569	-0.944824	-0.427246	-0.190918	-0.502912	-0.512604	0.321016	-0.617467	23.940706	-72.924303	83.868170	0.031365	0.291955	0.955918	-0.950171	-0.288057	0.119154	0.310146	-0.912023	0.268372	0	0	0
58252	0	0	0	0	0	9.915855	1.405813	2.458889	-0.049392	0.064153	0.063860	-0.947998	-0.430908	-0.192139	-0.502957	-0.512170	0.321174	-0.617708	23.754943	-72.904632	84.031222	0.030568	0.292369	0.955817	-0.950352	-0.287764	0.118416	0.309671	-0.911983	0.269058	0	0	0
