// General information: 
//  MT Manager version: 2022.2.0 
//  XDA version: 2022.2.0 build 7381 rev 124627 built on 2023-07-19
// Device information: 
//  DeviceId: 10B426F1
//  ProductCode: MTW2-3A7G6
//  Firmware Version: 4.14.0
//  Hardware Version: 3.0.0
// Device settings: 
//  Filter Profile: human(46.1)
//  Option Flags: Orientation Smoother Disabled, Position/Velocity Smoother Disabled, Continuous Zero Rotation Update Disabled, AHS Disabled, ICC Disabled
// Coordinate system: ENU
PacketCounter	SampleTimeFine	Year	Month	Day	Second	Acc_X	Acc_Y	Acc_Z	Gyr_X	Gyr_Y	Gyr_Z	Mag_X	Mag_Y	Mag_Z	Quat_q0	Quat_q1	Quat_q2	Quat_q3	Roll	Pitch	Yaw	Mat[1][1]	Mat[2][1]	Mat[3][1]	Mat[1][2]	Mat[2][2]	Mat[3][2]	Mat[1][3]	Mat[2][3]	Mat[3][3]	Vel_E	Vel_N	Vel_U
57802	0	0	0	0	0	9.686266	1.734351	0.098614	-0.000841	-0.000998	-0.002652	-0.685791	-0.352783	-0.406982	0.673871	0.337435	-0.616521	0.227897	86.023741	-79.968539	-38.706463	0.135930	-0.108926	0.984712	-0.723218	0.668401	0.173770	-0.677111	-0.735782	0.012079	0	0	0
57803	0	0	0	0	0	9.696887	1.750836	0.113310	-0.005423	-0.000994	-0.001491	-0.685791	-0.362305	-0.407959	0.673878	0.337403	-0.616544	0.227864	86.027475	-79.969088	-38.716035	0.135904	-0.108942	0.984714	-0.723152	0.668475	0.173761	-0.677187	-0.735712	0.012067	0	0	0
57804	0	0	0	0	0	9.665152	1.685427	0.168273	-0.002513	-0.001901	-0.003835	-0.687256	-0.360107	-0.408447	0.673877	0.337399	-0.616556	0.227839	86.036059	-79.968111	-38.727071	0.135897	-0.108979	0.984711	-0.723122	0.668502	0.173780	-0.677220	-0.735682	0.012042	0	0	0
57805	0	0	0	0	0	9.668435	1.684951	0.126227	-0.002901	0.003153	0.000866	-0.683105	-0.362061	-0.409912	0.673886	0.337374	-0.616559	0.227840	86.027021	-79.969676	-38.720283	0.135889	-0.108946	0.984716	-0.723098	0.668536	0.173751	-0.677247	-0.735657	0.012067	0	0	0
57806	0	0	0	0	0	9.679076	1.701310	0.141075	0.002910	-0.000907	-0.002344	-0.687012	-0.361816	-0.412354	0.673878	0.337383	-0.616564	0.227839	86.035167	-79.969513	-38.727719	0.135877	-0.108966	0.984715	-0.723107	0.668525	0.173755	-0.677240	-0.735664	0.012043	0	0	0
57807	0	0	0	0	0	9.654430	1.669509	0.153744	0.001256	0.001528	-0.000882	-0.685303	-0.361328	-0.404541	0.673878	0.337378	-0.616565	0.227842	86.033776	-79.970112	-38.726485	0.135871	-0.108956	0.984717	-0.723107	0.668528	0.173745	-0.677241	-0.735662	0.012046	0	0	0
57808	0	0	0	0	0	9.668375	1.685283	0.126355	0.004582	-0.000003	-0.001161	-0.681152	-0.358643	-0.406494	0.673868	0.337388	-0.616567	0.227852	86.039696	-79.970589	-38.730688	0.135856	-0.108961	0.984718	-0.723129	0.668506	0.173738	-0.677221	-0.735682	0.012028	0	0	0
57809	0	0	0	0	0	9.681689	1.614414	0.114246	0.007085	0.000806	-0.001448	-0.679688	-0.362549	-0.408447	0.673855	0.337408	-0.616562	0.227872	86.044562	-79.970917	-38.731928	0.135850	-0.108960	0.984719	-0.723172	0.668460	0.173733	-0.677175	-0.735724	0.012013	0	0	0
57810	0	0	0	0	0	9.691847	1.596040	0.086957	0.012497	0.000709	-0.004078	-0.673584	-0.361816	-0.406982	0.673837	0.337453	-0.616548	0.227898	86.053366	-79.969699	-38.734453	0.135861	-0.108980	0.984716	-0.723244	0.668376	0.173756	-0.677096	-0.735797	0.011988	0	0	0
57811	0	0	0	0	0	9.709943	1.681424	0.101070	0.014576	-0.000103	-0.004951	-0.689941	-0.359863	-0.406982	0.673813	0.337513	-0.616530	0.227931	86.065664	-79.967960	-38.738394	0.135877	-0.109008	0.984710	-0.723339	0.668265	0.173788	-0.676992	-0.735894	0.011952	0	0	0
57812	0	0	0	0	0	9.671460	1.685980	0.083690	0.002493	-0.000282	-0.004408	-0.682617	-0.363281	-0.402832	0.673809	0.337526	-0.616530	0.227923	86.072010	-79.966592	-38.744244	0.135884	-0.109036	0.984706	-0.723343	0.668254	0.173813	-0.676986	-0.735899	0.011935	0	0	0
57813	0	0	0	0	0	9.688880	1.684995	0.113185	0.005393	-0.002281	-0.010873	-0.683838	-0.357910	-0.408447	0.673800	0.337575	-0.616521	0.227903	86.088208	-79.961665	-38.757709	0.135925	-0.109121	0.984691	-0.723366	0.668207	0.173901	-0.676954	-0.735929	0.011891	0	0	0
57814	0	0	0	0	0	9.685157	1.703156	0.056054	0.000422	0.002776	-0.005013	-0.681885	-0.364746	-0.402344	0.673809	0.337579	-0.616512	0.227892	86.083619	-79.959831	-38.753660	0.135957	-0.109131	0.984686	-0.723354	0.668211	0.173931	-0.676960	-0.735924	0.011907	0	0	0
57815	0	0	0	0	0	9.688620	1.686482	0.113294	-0.000012	0.000062	-0.009721	-0.680176	-0.358154	-0.409668	0.673815	0.337603	-0.616503	0.227863	86.088638	-79.955443	-38.758946	0.136006	-0.109191	0.984672	-0.723342	0.668205	0.174008	-0.676963	-0.735920	0.011897	0	0	0
57816	0	0	0	0	0	9.671399	1.723791	0.125535	0.004165	0.000622	-0.003225	-0.685059	-0.364502	-0.409180	0.673810	0.337617	-0.616500	0.227866	86.092752	-79.954715	-38.761556	0.136010	-0.109205	0.984670	-0.723358	0.668184	0.174021	-0.676945	-0.735938	0.011886	0	0	0
57817	0	0	0	0	0	9.720360	1.736531	0.157420	0.004155	-0.000470	-0.007347	-0.678711	-0.355957	-0.413086	0.673806	0.337645	-0.616493	0.227853	86.100912	-79.951698	-38.768255	0.136038	-0.109253	0.984661	-0.723369	0.668158	0.174074	-0.676927	-0.735954	0.011864	0	0	0
57818	0	0	0	0	0	9.657233	1.709316	0.152833	0.002076	0.000342	-0.006473	-0.688721	-0.361816	-0.411865	0.673808	0.337662	-0.616488	0.227838	86.105442	-79.949124	-38.772504	0.136065	-0.109291	0.984653	-0.723367	0.668149	0.174120	-0.676924	-0.735957	0.011854	0	0	0
57819	0	0	0	0	0	9.671107	1.725440	0.125376	0.007915	0.000715	-0.002916	-0.678467	-0.359863	-0.397461	0.673799	0.337681	-0.616484	0.227847	86.110672	-79.948640	-38.775229	0.136066	-0.109303	0.984652	-0.723396	0.668115	0.174129	-0.676893	-0.735986	0.011838	0	0	0
57820	0	0	0	0	0	9.674371	1.725072	0.083029	-0.000017	-0.003338	-0.002643	-0.677002	-0.364258	-0.403076	0.673788	0.337683	-0.616500	0.227832	86.125030	-79.948398	-38.790678	0.136040	-0.109342	0.984651	-0.723385	0.668125	0.174136	-0.676910	-0.735971	0.011795	0	0	0
57821	0	0	0	0	0	9.688558	1.724299	0.154727	0.000414	0.000530	-0.003534	-0.687988	-0.361084	-0.401855	0.673785	0.337696	-0.616496	0.227833	86.127670	-79.947479	-38.792107	0.136049	-0.109355	0.984648	-0.723397	0.668107	0.174152	-0.676895	-0.735985	0.011788	0	0	0
57822	0	0	0	0	0	9.646349	1.694418	0.137578	0.007067	-0.002529	-0.004089	-0.689697	-0.357910	-0.401855	0.673766	0.337726	-0.616499	0.227836	86.143788	-79.946379	-38.805221	0.136039	-0.109398	0.984645	-0.723432	0.668064	0.174175	-0.676860	-0.736018	0.011740	0	0	0
57823	0	0	0	0	0	9.670853	1.726915	0.124604	-0.000851	-0.002090	-0.006773	-0.686523	-0.355713	-0.404785	0.673763	0.337738	-0.616505	0.227809	86.155261	-79.943857	-38.817869	0.136048	-0.109456	0.984637	-0.723414	0.668071	0.174220	-0.676877	-0.736003	0.011708	0	0	0
57824	0	0	0	0	0	9.649923	1.729679	0.136994	-0.002919	-0.000187	-0.001778	-0.683838	-0.360840	-0.402588	0.673766	0.337725	-0.616516	0.227794	86.157602	-79.943987	-38.822803	0.136037	-0.109466	0.984638	-0.723385	0.668104	0.174218	-0.676911	-0.735972	0.011701	0	0	0
57825	0	0	0	0	0	9.687881	1.690791	0.112275	-0.001672	-0.000904	-0.001182	-0.682861	-0.351074	-0.406250	0.673763	0.337714	-0.616529	0.227783	86.163136	-79.944595	-38.830352	0.136015	-0.109477	0.984639	-0.723363	0.668129	0.174209	-0.676938	-0.735947	0.011684	0	0	0
57826	0	0	0	0	0	9.673922	1.675182	0.139670	0.000000	0.000000	-0.000000	-0.680176	-0.364014	-0.407715	0.673759	0.337704	-0.616538	0.227782	86.166165	-79.945734	-38.834284	0.135992	-0.109474	0.984643	-0.723356	0.668142	0.174190	-0.676951	-0.735936	0.011673	0	0	0
57827	0	0	0	0	0	9.680795	1.657369	0.154686	0.005419	0.002152	-0.004108	-0.682129	-0.359619	-0.410889	0.673759	0.337720	-0.616529	0.227785	86.165973	-79.944522	-38.832408	0.136012	-0.109483	0.984639	-0.723373	0.668119	0.174211	-0.676929	-0.735956	0.011675	0	0	0
57828	0	0	0	0	0	9.663176	1.659479	0.125009	-0.000010	-0.001092	-0.004121	-0.684570	-0.367188	-0.401855	0.673757	0.337724	-0.616535	0.227769	86.173405	-79.943347	-38.840819	0.136011	-0.109516	0.984636	-0.723360	0.668127	0.174233	-0.676943	-0.735943	0.011654	0	0	0
57829	0	0	0	0	0	9.687742	1.691581	0.112379	0.004598	0.003338	0.001482	-0.689453	-0.363281	-0.410156	0.673752	0.337727	-0.616528	0.227799	86.167949	-79.945209	-38.832515	0.136002	-0.109476	0.984641	-0.723396	0.668096	0.174200	-0.676905	-0.735977	0.011668	0	0	0
57830	0	0	0	0	0	9.684413	1.692329	0.154676	0.000414	0.000530	-0.003534	-0.684326	-0.364502	-0.407715	0.673753	0.337729	-0.616529	0.227789	86.170268	-79.944307	-38.835486	0.136009	-0.109493	0.984638	-0.723387	0.668102	0.174215	-0.676914	-0.735970	0.011662	0	0	0
57831	0	0	0	0	0	9.666771	1.694564	0.124955	0.004155	-0.000468	-0.007346	-0.685059	-0.355713	-0.409912	0.673748	0.337760	-0.616521	0.227779	86.178662	-79.941291	-38.841956	0.136037	-0.109541	0.984629	-0.723404	0.668070	0.174269	-0.676891	-0.735991	0.011640	0	0	0
57832	0	0	0	0	0	9.698157	1.709169	0.127110	0.003324	-0.000374	-0.005876	-0.682373	-0.361084	-0.406006	0.673744	0.337780	-0.616518	0.227769	86.186065	-79.939084	-38.848397	0.136054	-0.109580	0.984623	-0.723411	0.668052	0.174308	-0.676880	-0.736002	0.011620	0	0	0
57833	0	0	0	0	0	9.663371	1.748116	0.109562	0.003324	-0.000374	-0.005876	-0.676514	-0.364746	-0.404053	0.673742	0.337796	-0.616517	0.227755	86.193212	-79.936967	-38.855273	0.136069	-0.109619	0.984616	-0.723410	0.668043	0.174346	-0.676878	-0.736004	0.011601	0	0	0
57834	0	0	0	0	0	9.673905	1.765001	0.124191	0.003323	-0.000374	-0.005876	-0.686768	-0.358398	-0.399658	0.673738	0.337817	-0.616514	0.227744	86.200607	-79.934761	-38.861707	0.136086	-0.109658	0.984609	-0.723417	0.668025	0.174385	-0.676866	-0.736015	0.011581	0	0	0
57835	0	0	0	0	0	9.670113	1.731075	0.124323	-0.003343	-0.001810	-0.002365	-0.682861	-0.353271	-0.404053	0.673734	0.337812	-0.616526	0.227729	86.208361	-79.934643	-38.871194	0.136070	-0.109682	0.984609	-0.723398	0.668045	0.174389	-0.676890	-0.735993	0.011557	0	0	0
57836	0	0	0	0	0	9.683469	1.660446	0.112309	-0.002506	0.000343	-0.005312	-0.685547	-0.363770	-0.408447	0.673742	0.337810	-0.616528	0.227704	86.209983	-79.932731	-38.875156	0.136088	-0.109712	0.984603	-0.723366	0.668071	0.174422	-0.676921	-0.735965	0.011555	0	0	0
57837	0	0	0	0	0	9.676470	1.678941	0.097258	-0.000433	-0.002714	-0.004707	-0.690186	-0.359619	-0.410400	0.673737	0.337814	-0.616541	0.227680	86.222450	-79.931377	-38.889388	0.136079	-0.109760	0.984599	-0.723344	0.668087	0.174448	-0.676946	-0.735943	0.011518	0	0	0
57838	0	0	0	0	0	9.655545	1.681668	0.109602	-0.002089	-0.000281	-0.003247	-0.688965	-0.360840	-0.410156	0.673739	0.337808	-0.616548	0.227661	86.225877	-79.930669	-38.894940	0.136078	-0.109781	0.984597	-0.723318	0.668112	0.174461	-0.676974	-0.735917	0.011509	0	0	0
57839	0	0	0	0	0	9.666100	1.698434	0.124321	-0.006680	-0.001373	-0.006208	-0.687988	-0.356934	-0.405029	0.673751	0.337791	-0.616562	0.227613	86.230660	-79.928423	-38.905430	0.136087	-0.109830	0.984590	-0.723247	0.668179	0.174500	-0.677048	-0.735849	0.011496	0	0	0
57840	0	0	0	0	0	9.686352	1.610010	0.127349	-0.003754	0.001061	-0.005908	-0.684570	-0.353516	-0.407227	0.673764	0.337786	-0.616562	0.227583	86.229376	-79.926144	-38.907167	0.136115	-0.109859	0.984583	-0.723206	0.668213	0.174539	-0.677086	-0.735814	0.011503	0	0	0
57841	0	0	0	0	0	9.679326	1.628648	0.112398	0.001652	-0.001277	-0.007058	-0.680664	-0.364502	-0.400635	0.673764	0.337797	-0.616567	0.227554	86.238993	-79.923466	-38.918227	0.136129	-0.109914	0.984575	-0.723185	0.668224	0.174587	-0.677106	-0.735796	0.011477	0	0	0
57842	0	0	0	0	0	9.679604	1.664362	0.154129	0.006233	-0.001276	-0.008218	-0.685303	-0.362061	-0.397705	0.673755	0.337836	-0.616559	0.227543	86.251432	-79.919953	-38.928090	0.136157	-0.109975	0.984564	-0.723208	0.668182	0.174649	-0.677075	-0.735825	0.011443	0	0	0
57843	0	0	0	0	0	9.672636	1.734836	0.081670	0.006656	0.000347	-0.007631	-0.681396	-0.368896	-0.408691	0.673745	0.337883	-0.616542	0.227550	86.259437	-79.916732	-38.931152	0.136194	-0.110017	0.984554	-0.723260	0.668112	0.174706	-0.677013	-0.735882	0.011422	0	0	0
57844	0	0	0	0	0	9.686432	1.751278	0.054215	-0.000845	0.000157	-0.008249	-0.682861	-0.361328	-0.406982	0.673752	0.337897	-0.616538	0.227519	86.263209	-79.913148	-38.936331	0.136232	-0.110068	0.984543	-0.723235	0.668122	0.174768	-0.677031	-0.735866	0.011414	0	0	0
57845	0	0	0	0	0	9.665455	1.754255	0.066829	0.000419	0.002778	-0.005012	-0.685791	-0.367432	-0.410156	0.673760	0.337907	-0.616525	0.227515	86.258316	-79.911281	-38.930857	0.136268	-0.110076	0.984538	-0.723237	0.668112	0.174799	-0.677022	-0.735874	0.011431	0	0	0
57846	0	0	0	0	0	9.679211	1.718782	0.096861	-0.000427	-0.000467	-0.006184	-0.690918	-0.359131	-0.402100	0.673763	0.337916	-0.616526	0.227491	86.263895	-79.908900	-38.937629	0.136287	-0.110117	0.984530	-0.723218	0.668121	0.174841	-0.677039	-0.735859	0.011417	0	0	0
57847	0	0	0	0	0	9.682761	1.701817	0.153998	-0.006670	-0.000283	-0.002087	-0.681396	-0.361328	-0.399902	0.673770	0.337894	-0.616539	0.227466	86.264686	-79.908917	-38.942609	0.136277	-0.110129	0.984530	-0.723170	0.668174	0.174841	-0.677093	-0.735809	0.011415	0	0	0
57848	0	0	0	0	0	9.679089	1.719461	0.096979	-0.003337	0.000436	-0.003842	-0.682861	-0.360840	-0.400879	0.673778	0.337884	-0.616544	0.227444	86.265204	-79.907842	-38.945933	0.136285	-0.110148	0.984527	-0.723134	0.668207	0.174860	-0.677129	-0.735776	0.011414	0	0	0
57849	0	0	0	0	0	9.692877	1.683842	0.126920	-0.003760	-0.001186	-0.004429	-0.679932	-0.360352	-0.400879	0.673779	0.337884	-0.616552	0.227422	86.271274	-79.906539	-38.953980	0.136287	-0.110182	0.984523	-0.723109	0.668228	0.174883	-0.677155	-0.735752	0.011397	0	0	0
57850	0	0	0	0	0	9.671959	1.686511	0.139322	-0.000841	-0.000998	-0.002651	-0.684082	-0.359375	-0.407471	0.673777	0.337881	-0.616561	0.227408	86.277577	-79.906198	-38.961728	0.136276	-0.110204	0.984522	-0.723092	0.668244	0.174890	-0.677175	-0.735734	0.011378	0	0	0
57851	0	0	0	0	0	9.682135	1.668218	0.112078	-0.001258	-0.000373	-0.004715	-0.689697	-0.362549	-0.402100	0.673778	0.337883	-0.616565	0.227389	86.282091	-79.904714	-38.967678	0.136285	-0.110234	0.984518	-0.723073	0.668259	0.174917	-0.677194	-0.735717	0.011366	0	0	0
57852	0	0	0	0	0	9.682019	1.668901	0.111936	-0.001691	-0.003086	-0.009421	-0.686768	-0.362549	-0.409668	0.673779	0.337901	-0.616570	0.227346	86.296017	-79.900579	-38.983664	0.136309	-0.110317	0.984505	-0.723041	0.668274	0.174990	-0.677223	-0.735691	0.011328	0	0	0
57853	0	0	0	0	0	9.685194	1.669032	0.069648	0.002074	0.000347	-0.006471	-0.688477	-0.359375	-0.402832	0.673779	0.337920	-0.616565	0.227334	86.300691	-79.898079	-38.987680	0.136335	-0.110353	0.984497	-0.723044	0.668260	0.175034	-0.677215	-0.735698	0.011317	0	0	0
57854	0	0	0	0	0	9.664181	1.672238	0.082033	0.000393	-0.001648	-0.011772	-0.672852	-0.361328	-0.398926	0.673783	0.337950	-0.616559	0.227292	86.311668	-79.892546	-38.999457	0.136386	-0.110441	0.984480	-0.723023	0.668257	0.175131	-0.677227	-0.735687	0.011289	0	0	0
57855	0	0	0	0	0	9.716358	1.684861	0.071827	-0.000423	0.001781	-0.007662	-0.690430	-0.358887	-0.405273	0.673792	0.337965	-0.616548	0.227273	86.310619	-79.889285	-38.998610	0.136431	-0.110474	0.984470	-0.723013	0.668253	0.175187	-0.677229	-0.735686	0.011296	0	0	0
57856	0	0	0	0	0	9.685108	1.706651	0.111567	-0.002517	-0.000746	-0.009430	-0.689209	-0.358643	-0.409180	0.673801	0.337977	-0.616547	0.227232	86.316539	-79.885058	-39.006944	0.136472	-0.110540	0.984457	-0.722975	0.668274	0.175261	-0.677261	-0.735657	0.011283	0	0	0
57857	0	0	0	0	0	9.667381	1.709298	0.081945	-0.005014	0.000688	-0.010621	-0.688721	-0.362549	-0.406006	0.673821	0.337977	-0.616545	0.227176	86.316796	-79.880255	-39.012016	0.136526	-0.110604	0.984443	-0.722908	0.668326	0.175343	-0.677322	-0.735600	0.011287	0	0	0
57858	0	0	0	0	0	9.663897	1.710938	0.124112	-0.006690	-0.002463	-0.010324	-0.683838	-0.359863	-0.406982	0.673833	0.337980	-0.616553	0.227116	86.325999	-79.875579	-39.026114	0.136561	-0.110688	0.984428	-0.722841	0.668376	0.175425	-0.677386	-0.735542	0.011264	0	0	0
57859	0	0	0	0	0	9.691494	1.691824	0.126446	-0.010450	-0.003648	-0.014752	-0.684814	-0.369385	-0.402100	0.673852	0.337984	-0.616562	0.227028	86.337763	-79.868497	-39.045064	0.136619	-0.110810	0.984407	-0.722742	0.668451	0.175549	-0.677480	-0.735456	0.011236	0	0	0
57860	0	0	0	0	0	9.659783	1.679151	0.124494	-0.008334	0.006710	-0.013296	-0.681885	-0.362061	-0.402832	0.673898	0.337980	-0.616536	0.226968	86.317269	-79.861785	-39.029953	0.136738	-0.110847	0.984386	-0.722660	0.668510	0.175660	-0.677543	-0.735396	0.011306	0	0	0
57861	0	0	0	0	0	9.659209	1.645459	0.082963	-0.002104	-0.000209	-0.012961	-0.691162	-0.362549	-0.414307	0.673908	0.338014	-0.616521	0.226929	86.322760	-79.855504	-39.035648	0.136811	-0.110928	0.984367	-0.722644	0.668499	0.175769	-0.677546	-0.735394	0.011296	0	0	0
57862	0	0	0	0	0	9.673244	1.697410	0.097562	-0.007104	0.000411	-0.013864	-0.683105	-0.362793	-0.405762	0.673933	0.338023	-0.616514	0.226860	86.323233	-79.848699	-39.041119	0.136891	-0.111015	0.984346	-0.722569	0.668549	0.175885	-0.677609	-0.735335	0.011302	0	0	0
57863	0	0	0	0	0	9.669659	1.699590	0.139979	-0.002937	0.003291	-0.018564	-0.685547	-0.365234	-0.400879	0.673966	0.338056	-0.616485	0.226793	86.317585	-79.839167	-39.038253	0.137024	-0.111111	0.984316	-0.722513	0.668567	0.176048	-0.677642	-0.735304	0.011330	0	0	0
57864	0	0	0	0	0	9.658762	1.684937	0.125561	-0.005021	0.001852	-0.016213	-0.693604	-0.357910	-0.410400	0.673995	0.338077	-0.616466	0.226725	86.315134	-79.830966	-39.039542	0.137131	-0.111203	0.984291	-0.722450	0.668599	0.176188	-0.677689	-0.735262	0.011347	0	0	0
57865	0	0	0	0	0	9.654837	1.652249	0.126045	-0.001689	0.002576	-0.017967	-0.681885	-0.360107	-0.405762	0.674022	0.338114	-0.616439	0.226663	86.312980	-79.821856	-39.039299	0.137253	-0.111301	0.984263	-0.722405	0.668606	0.176344	-0.677711	-0.735240	0.011364	0	0	0
57866	0	0	0	0	0	9.679033	1.686022	0.113614	0.002061	0.002675	-0.017658	-0.683838	-0.357666	-0.402832	0.674043	0.338163	-0.616407	0.226614	86.312265	-79.812799	-39.038229	0.137376	-0.111396	0.984235	-0.722388	0.668584	0.176499	-0.677705	-0.735246	0.011376	0	0	0
57867	0	0	0	0	0	9.665101	1.758742	0.125717	0.007469	0.000344	-0.018808	-0.686768	-0.364258	-0.404053	0.674049	0.338234	-0.616377	0.226573	86.322349	-79.803276	-39.045345	0.137489	-0.111516	0.984206	-0.722401	0.668526	0.176664	-0.677668	-0.735281	0.011355	0	0	0
57868	0	0	0	0	0	9.636959	1.780711	0.123079	-0.003367	-0.002824	-0.016193	-0.683838	-0.370850	-0.400879	0.674061	0.338266	-0.616372	0.226503	86.335685	-79.795258	-39.061712	0.137564	-0.111643	0.984181	-0.722349	0.668545	0.176804	-0.677708	-0.735244	0.011323	0	0	0
57869	0	0	0	0	0	9.692005	1.707047	0.085956	-0.009626	-0.002575	-0.021809	-0.687744	-0.370605	-0.405029	0.674085	0.338306	-0.616358	0.226407	86.346257	-79.784008	-39.076732	0.137685	-0.111800	0.984146	-0.722271	0.668577	0.176999	-0.677766	-0.735191	0.011303	0	0	0
57870	0	0	0	0	0	9.663866	1.677637	0.140597	0.005376	-0.002178	-0.020574	-0.678223	-0.359863	-0.409912	0.674089	0.338381	-0.616334	0.226350	86.363385	-79.773460	-39.091863	0.137796	-0.111951	0.984113	-0.722272	0.668528	0.177183	-0.677743	-0.735213	0.011261	0	0	0
57871	0	0	0	0	0	9.656781	1.784142	0.109855	0.002042	-0.005150	-0.017342	-0.682617	-0.362549	-0.412598	0.674084	0.338442	-0.616327	0.226294	86.387121	-79.764870	-39.114874	0.137865	-0.112099	0.984087	-0.722264	0.668496	0.177335	-0.677738	-0.735219	0.011197	0	0	0
57872	0	0	0	0	0	9.673733	1.749333	0.097127	-0.002128	-0.004623	-0.019712	-0.687744	-0.367676	-0.409180	0.674092	0.338491	-0.616321	0.226213	86.407447	-79.754901	-39.137624	0.137953	-0.112262	0.984056	-0.722215	0.668503	0.177510	-0.677772	-0.735188	0.011145	0	0	0
57873	0	0	0	0	0	9.677074	1.733864	0.153965	-0.006708	-0.002383	-0.020028	-0.686768	-0.373291	-0.408203	0.674115	0.338524	-0.616311	0.226121	86.417631	-79.744696	-39.152716	0.138060	-0.112409	0.984024	-0.722135	0.668542	0.177687	-0.677835	-0.735129	0.011124	0	0	0
57874	0	0	0	0	0	9.652319	1.703530	0.166512	-0.007119	-0.002919	-0.016496	-0.690430	-0.361084	-0.404297	0.674133	0.338545	-0.616311	0.226038	86.429011	-79.736503	-39.169283	0.138136	-0.112538	0.983999	-0.722056	0.668589	0.177829	-0.677903	-0.735067	0.011098	0	0	0
57875	0	0	0	0	0	9.679811	1.736438	0.111605	-0.002108	-0.000200	-0.012953	-0.684814	-0.367920	-0.404053	0.674145	0.338574	-0.616298	0.225993	86.434228	-79.730278	-39.175594	0.138207	-0.112621	0.983979	-0.722029	0.668589	0.177937	-0.677918	-0.735054	0.011088	0	0	0
57876	0	0	0	0	0	9.683302	1.720189	0.168649	0.008313	0.000192	-0.010561	-0.685059	-0.365479	-0.399658	0.674139	0.338625	-0.616280	0.225983	86.443436	-79.725368	-39.180967	0.138262	-0.112687	0.983964	-0.722064	0.668529	0.178023	-0.677870	-0.735099	0.011065	0	0	0
57877	0	0	0	0	0	9.672535	1.704989	0.153843	0.010394	0.001636	-0.012910	-0.681885	-0.366211	-0.406250	0.674134	0.338698	-0.616246	0.225984	86.450244	-79.719084	-39.180970	0.138345	-0.112755	0.983945	-0.722129	0.668430	0.178132	-0.677783	-0.735179	0.011050	0	0	0
57878	0	0	0	0	0	9.658311	1.742244	0.123463	0.016212	-0.006897	-0.013161	-0.682617	-0.361816	-0.411621	0.674096	0.338792	-0.616238	0.225978	86.486806	-79.712937	-39.209544	0.138371	-0.112891	0.983925	-0.722214	0.668309	0.178244	-0.677688	-0.735268	0.010943	0	0	0
57879	0	0	0	0	0	9.668685	1.759666	0.137730	0.014153	0.002824	-0.008485	-0.676270	-0.361816	-0.402832	0.674087	0.338852	-0.616207	0.225997	86.490167	-79.709154	-39.205644	0.138429	-0.112923	0.983914	-0.722290	0.668209	0.178310	-0.677595	-0.735354	0.010937	0	0	0
57880	0	0	0	0	0	9.650928	1.762352	0.107826	0.014552	-0.002220	-0.013177	-0.678711	-0.366455	-0.405029	0.674067	0.338935	-0.616185	0.225993	86.511006	-79.702831	-39.219206	0.138486	-0.113024	0.983894	-0.722363	0.668100	0.178422	-0.677505	-0.735437	0.010878	0	0	0
57881	0	0	0	0	0	9.689147	1.759700	0.124678	0.010392	-0.000610	-0.011431	-0.682617	-0.365234	-0.407715	0.674055	0.339001	-0.616162	0.225991	86.523834	-79.697445	-39.226186	0.138544	-0.113099	0.983877	-0.722420	0.668013	0.178517	-0.677433	-0.735505	0.010844	0	0	0
57882	0	0	0	0	0	9.671381	1.762429	0.094635	0.011221	-0.002947	-0.011421	-0.677734	-0.363525	-0.410645	0.674036	0.339068	-0.616150	0.225981	86.544682	-79.692150	-39.241697	0.138584	-0.113194	0.983861	-0.722473	0.667930	0.178612	-0.677368	-0.735565	0.010785	0	0	0
57883	0	0	0	0	0	9.678188	1.745627	0.108963	0.010381	-0.006190	-0.012591	-0.691895	-0.367188	-0.397705	0.674011	0.339139	-0.616146	0.225960	86.574820	-79.686311	-39.267211	0.138611	-0.113319	0.983842	-0.722518	0.667854	0.178717	-0.677315	-0.735616	0.010697	0	0	0
57884	0	0	0	0	0	9.674441	1.712499	0.108640	0.012470	-0.001412	-0.012302	-0.683350	-0.369629	-0.406982	0.673995	0.339211	-0.616126	0.225954	86.591683	-79.680458	-39.277944	0.138668	-0.113409	0.983824	-0.722578	0.667761	0.178821	-0.677239	-0.735686	0.010650	0	0	0
57885	0	0	0	0	0	9.656893	1.750296	0.120423	0.009551	-0.003852	-0.012600	-0.683594	-0.368164	-0.406982	0.673974	0.339286	-0.616112	0.225944	86.615156	-79.674554	-39.295489	0.138711	-0.113516	0.983806	-0.722636	0.667669	0.178926	-0.677167	-0.735753	0.010583	0	0	0
57886	0	0	0	0	0	9.691627	1.713159	0.137271	0.010391	-0.005103	-0.008474	-0.676514	-0.358887	-0.405762	0.673946	0.339343	-0.616112	0.225938	86.641669	-79.671013	-39.317243	0.138715	-0.113607	0.983794	-0.722688	0.667596	0.178992	-0.677112	-0.735805	0.010503	0	0	0
57887	0	0	0	0	0	9.684151	1.697418	0.079832	0.013289	-0.002583	-0.017882	-0.690918	-0.363770	-0.410156	0.673933	0.339436	-0.616085	0.225914	86.663266	-79.662047	-39.332412	0.138804	-0.113741	0.983766	-0.722745	0.667492	0.179150	-0.677033	-0.735879	0.010445	0	0	0
57888	0	0	0	0	0	9.669830	1.734867	0.049313	0.024129	-0.002803	-0.013425	-0.686523	-0.354492	-0.407227	0.673895	0.339553	-0.616054	0.225938	86.691296	-79.655594	-39.347708	0.138860	-0.113849	0.983746	-0.722882	0.667312	0.179265	-0.676875	-0.736025	0.010364	0	0	0
57889	0	0	0	0	0	9.662548	1.754231	0.033563	0.024539	-0.004512	-0.015475	-0.680176	-0.374023	-0.409912	0.673857	0.339665	-0.616032	0.225941	86.725070	-79.648233	-39.370889	0.138911	-0.113985	0.983723	-0.722993	0.667156	0.179398	-0.676746	-0.736145	0.010265	0	0	0
57890	0	0	0	0	0	9.662499	1.790745	0.074564	0.015789	-0.006256	-0.015209	-0.689697	-0.364502	-0.406982	0.673824	0.339763	-0.616018	0.225928	86.759388	-79.640869	-39.397436	0.138956	-0.114129	0.983700	-0.723072	0.667036	0.179530	-0.676653	-0.736232	0.010165	0	0	0
57891	0	0	0	0	0	9.631092	1.726370	0.128776	0.009542	-0.009429	-0.013751	-0.681885	-0.368164	-0.404297	0.673790	0.339843	-0.616023	0.225899	86.799476	-79.634437	-39.432708	0.138971	-0.114285	0.983680	-0.723119	0.666953	0.179647	-0.676599	-0.736283	0.010045	0	0	0
57892	0	0	0	0	0	9.683175	1.653071	0.133074	0.013289	-0.007074	-0.014920	-0.689697	-0.370605	-0.407959	0.673758	0.339932	-0.616016	0.225877	86.834780	-79.627258	-39.461714	0.139008	-0.114434	0.983657	-0.723181	0.666851	0.179777	-0.676525	-0.736352	0.009942	0	0	0
57893	0	0	0	0	0	9.658592	1.536118	0.160431	0.021185	-0.007407	-0.021943	-0.685791	-0.371094	-0.409180	0.673719	0.340076	-0.615986	0.225862	86.876798	-79.616085	-39.491950	0.139096	-0.114629	0.983622	-0.723298	0.666670	0.179975	-0.676382	-0.736486	0.009820	0	0	0
57894	0	0	0	0	0	9.699896	1.620534	0.118697	0.035342	-0.007968	-0.023352	-0.681641	-0.361572	-0.402100	0.673656	0.340266	-0.615942	0.225878	86.928835	-79.604102	-39.525124	0.139188	-0.114841	0.983584	-0.723497	0.666396	0.180190	-0.676150	-0.736701	0.009668	0	0	0
57895	0	0	0	0	0	9.653691	1.696130	0.027551	0.055745	-0.007591	-0.024735	-0.687744	-0.362793	-0.403076	0.673562	0.340530	-0.615872	0.225954	86.991369	-79.591371	-39.556968	0.139293	-0.115057	0.983544	-0.723834	0.665969	0.180418	-0.675768	-0.737053	0.009483	0	0	0
57896	0	0	0	0	0	9.670504	1.748757	-0.002014	0.046984	-0.010424	-0.028573	-0.681641	-0.363770	-0.402344	0.673479	0.340778	-0.615815	0.225984	87.058343	-79.576461	-39.598549	0.139407	-0.115321	0.983497	-0.724104	0.665602	0.180685	-0.675455	-0.737343	0.009285	0	0	0
57897	0	0	0	0	0	9.614666	1.775471	0.090439	0.029069	-0.013308	-0.030099	-0.685791	-0.370361	-0.401611	0.673419	0.340970	-0.615787	0.225946	87.124250	-79.560894	-39.650147	0.139508	-0.115617	0.983448	-0.724244	0.665375	0.180962	-0.675284	-0.737502	0.009090	0	0	0
57898	0	0	0	0	0	9.618099	1.796634	0.187692	0.010310	-0.014952	-0.035751	-0.685791	-0.371338	-0.404053	0.673392	0.341123	-0.615774	0.225832	87.185056	-79.541988	-39.706828	0.139644	-0.115963	0.983388	-0.724256	0.665271	0.181296	-0.675243	-0.737542	0.008914	0	0	0
57899	0	0	0	0	0	9.631849	1.677914	0.231739	-0.000117	-0.018708	-0.040769	-0.681641	-0.372803	-0.400391	0.673374	0.341266	-0.615774	0.225669	87.252278	-79.520333	-39.774906	0.139791	-0.116366	0.983320	-0.724205	0.665222	0.181677	-0.675267	-0.737522	0.008719	0	0	0
57900	0	0	0	0	0	9.680894	1.556629	0.334884	0.001543	-0.021124	-0.042216	-0.696045	-0.369873	-0.404785	0.673351	0.341416	-0.615781	0.225495	87.327611	-79.497871	-39.851477	0.139932	-0.116800	0.983248	-0.724149	0.665174	0.182074	-0.675298	-0.737496	0.008498	0	0	0
57901	0	0	0	0	0	9.672823	1.665610	0.302029	0.014425	-0.019789	-0.049806	-0.684082	-0.369385	-0.406250	0.673315	0.341636	-0.615753	0.225344	87.407313	-79.471076	-39.923994	0.140136	-0.117272	0.983163	-0.724181	0.665010	0.182545	-0.675221	-0.737569	0.008266	0	0	0
57902	0	0	0	0	0	9.615224	1.848767	0.221152	0.027749	-0.025809	-0.050892	-0.687500	-0.378174	-0.408447	0.673242	0.341906	-0.615731	0.225213	87.512517	-79.443725	-40.015689	0.140308	-0.117798	0.983075	-0.724290	0.664759	0.183029	-0.675068	-0.737712	0.007951	0	0	0
57903	0	0	0	0	0	9.666506	1.866038	0.207843	0.026896	-0.024550	-0.055005	-0.678467	-0.370850	-0.399658	0.673177	0.342188	-0.615696	0.225074	87.613049	-79.413959	-40.102264	0.140520	-0.118339	0.982980	-0.724397	0.664498	0.183552	-0.674909	-0.737861	0.007651	0	0	0
57904	0	0	0	0	0	9.630141	1.838795	0.103840	0.018999	-0.027557	-0.050603	-0.684326	-0.376709	-0.399414	0.673113	0.342430	-0.615690	0.224915	87.717531	-79.386754	-40.198342	0.140678	-0.118875	0.982893	-0.724447	0.664310	0.184032	-0.674823	-0.737943	0.007335	0	0	0
57905	0	0	0	0	0	9.636418	1.825724	0.115943	0.018585	-0.025837	-0.048549	-0.681396	-0.371826	-0.397461	0.673049	0.342672	-0.615677	0.224775	87.815946	-79.360639	-40.286621	0.140837	-0.119382	0.982809	-0.724519	0.664105	0.184492	-0.674713	-0.738047	0.007036	0	0	0
57906	0	0	0	0	0	9.673951	1.791698	0.088302	0.011930	-0.030645	-0.047657	-0.687744	-0.376221	-0.400635	0.672984	0.342884	-0.615694	0.224598	87.924452	-79.335123	-40.390932	0.140952	-0.119921	0.982726	-0.724525	0.663973	0.184943	-0.674682	-0.738078	0.006703	0	0	0
57907	0	0	0	0	0	9.607142	1.733380	0.081488	0.015239	-0.027645	-0.050885	-0.682373	-0.376221	-0.399902	0.672922	0.343121	-0.615688	0.224435	88.025910	-79.307691	-40.484656	0.141114	-0.120457	0.982638	-0.724566	0.663793	0.185425	-0.674604	-0.738152	0.006391	0	0	0
57908	0	0	0	0	0	9.631197	1.718950	0.122853	0.019844	-0.034334	-0.047592	-0.682129	-0.369141	-0.412598	0.672832	0.343364	-0.615709	0.224276	88.149087	-79.282210	-40.599300	0.141204	-0.121024	0.982555	-0.724625	0.663603	0.185875	-0.674521	-0.738231	0.006007	0	0	0
57909	0	0	0	0	0	9.637701	1.741203	0.175826	0.020234	-0.037114	-0.053730	-0.679688	-0.370361	-0.400391	0.672741	0.343629	-0.615728	0.224094	88.280242	-79.253252	-40.721932	0.141321	-0.121650	0.982461	-0.724678	0.663402	0.186384	-0.674441	-0.738308	0.005596	0	0	0
57910	0	0	0	0	0	9.636855	1.746251	0.172105	0.024397	-0.032024	-0.050215	-0.683594	-0.373779	-0.398926	0.672653	0.343892	-0.615732	0.223945	88.398112	-79.226137	-40.828539	0.141447	-0.122216	0.982373	-0.724764	0.663174	0.186860	-0.674322	-0.738419	0.005226	0	0	0
57911	0	0	0	0	0	9.642474	1.819952	0.167323	0.033979	-0.038123	-0.051604	-0.686768	-0.375732	-0.398438	0.672530	0.344200	-0.615742	0.223812	88.539264	-79.198339	-40.952928	0.141541	-0.122836	0.982282	-0.724917	0.662869	0.187349	-0.674137	-0.738591	0.004777	0	0	0
57912	0	0	0	0	0	9.658273	1.839796	0.093078	0.039816	-0.041015	-0.050675	-0.682129	-0.370850	-0.393555	0.672388	0.344526	-0.615757	0.223693	88.691727	-79.170990	-41.085779	0.141609	-0.123472	0.982192	-0.725107	0.662526	0.187830	-0.673919	-0.738793	0.004290	0	0	0
57913	0	0	0	0	0	9.615733	1.848933	0.113417	0.034408	-0.044288	-0.050653	-0.679932	-0.376709	-0.396729	0.672244	0.344841	-0.615788	0.223556	88.850547	-79.143716	-41.227612	0.141655	-0.124130	0.982103	-0.725267	0.662214	0.188308	-0.673737	-0.738962	0.003778	0	0	0
57914	0	0	0	0	0	9.598041	1.768490	0.094938	0.025667	-0.046071	-0.050357	-0.678955	-0.373779	-0.403076	0.672110	0.345125	-0.615837	0.223386	89.008517	-79.116466	-41.374350	0.141687	-0.124801	0.982013	-0.725362	0.661975	0.188785	-0.673628	-0.739063	0.003267	0	0	0
57915	0	0	0	0	0	9.628349	1.752631	0.049948	0.032756	-0.052986	-0.051448	-0.689453	-0.379639	-0.391846	0.671944	0.345446	-0.615897	0.223226	89.189999	-79.088591	-41.540341	0.141682	-0.125528	0.981921	-0.725509	0.661674	0.189272	-0.673471	-0.739209	0.002676	0	0	0
57916	0	0	0	0	0	9.683808	1.753374	0.091043	0.029788	-0.048695	-0.056166	-0.684082	-0.374512	-0.392578	0.671801	0.345764	-0.615940	0.223045	89.356717	-79.057867	-41.693612	0.141739	-0.126257	0.981819	-0.725623	0.661397	0.189806	-0.673336	-0.739333	0.002131	0	0	0
57917	0	0	0	0	0	9.654734	1.778618	0.083137	0.036883	-0.052273	-0.054640	-0.687744	-0.373779	-0.402588	0.671630	0.346112	-0.615986	0.222892	89.537861	-79.028032	-41.856119	0.141761	-0.126999	0.981720	-0.725802	0.661051	0.190323	-0.673138	-0.739515	0.001535	0	0	0
57918	0	0	0	0	0	9.657900	1.696735	0.051557	0.035989	-0.048768	-0.060227	-0.678711	-0.377441	-0.397949	0.671481	0.346464	-0.616015	0.222715	89.706594	-78.994806	-42.007855	0.141847	-0.127755	0.981610	-0.725952	0.660722	0.190895	-0.672959	-0.739679	0.000978	0	0	0
57919	0	0	0	0	0	9.629880	1.636327	0.059607	0.050916	-0.053689	-0.069815	-0.692139	-0.379150	-0.397949	0.671302	0.346897	-0.616028	0.222543	89.896982	-78.956091	-42.173386	0.141969	-0.128610	0.981481	-0.726183	0.660274	0.191561	-0.672683	-0.739931	0.000344	0	0	0
57920	0	0	0	0	0	9.636027	1.590158	0.026837	0.065456	-0.055807	-0.073263	-0.680664	-0.374512	-0.397705	0.671095	0.347395	-0.616024	0.222401	90.101056	-78.915206	-42.343969	0.142103	-0.129504	0.981344	-0.726512	0.659709	0.192261	-0.672300	-0.740279	-0.000339	0	0	0
57921	0	0	0	0	0	9.596296	1.635940	0.044987	0.071240	-0.057492	-0.077897	-0.687988	-0.382568	-0.398438	0.670878	0.347926	-0.616014	0.222257	90.311794	-78.871669	-42.518436	0.142258	-0.130440	0.981197	-0.726868	0.659099	0.193004	-0.671882	-0.740658	-0.001050	0	0	0
57922	0	0	0	0	0	9.632232	1.726968	0.038751	0.071633	-0.059151	-0.079898	-0.689941	-0.377686	-0.395508	0.670656	0.348468	-0.616003	0.222106	90.526133	-78.826730	-42.695924	0.142419	-0.131401	0.981046	-0.727229	0.658477	0.193769	-0.671458	-0.741041	-0.001779	0	0	0
57923	0	0	0	0	0	9.623338	1.752726	0.016570	0.070325	-0.062817	-0.087150	-0.684326	-0.382568	-0.389404	0.670433	0.349031	-0.615994	0.221920	90.748478	-78.777607	-42.882530	0.142606	-0.132437	0.980879	-0.727568	0.657857	0.194601	-0.671050	-0.741407	-0.002542	0	0	0
57924	0	0	0	0	0	9.608514	1.745654	0.036859	0.081106	-0.065029	-0.090882	-0.681641	-0.378906	-0.397705	0.670188	0.349646	-0.615972	0.221752	90.981388	-78.726058	-43.073479	0.142809	-0.133514	0.980704	-0.727975	0.657148	0.195471	-0.670566	-0.741843	-0.003348	0	0	0
57925	0	0	0	0	0	9.653177	1.769805	0.102201	0.077298	-0.072854	-0.100415	-0.687256	-0.384521	-0.396240	0.669936	0.350286	-0.615964	0.221527	91.231868	-78.668894	-43.284469	0.143028	-0.134710	0.980508	-0.728344	0.656452	0.196433	-0.670118	-0.742243	-0.004224	0	0	0
57926	0	0	0	0	0	9.645617	1.675409	0.054094	0.082190	-0.066618	-0.103950	-0.687256	-0.387451	-0.386475	0.669698	0.350946	-0.615923	0.221314	91.464974	-78.609526	-43.475059	0.143317	-0.135884	0.980304	-0.728739	0.655714	0.197430	-0.669627	-0.742681	-0.005049	0	0	0
57927	0	0	0	0	0	9.602278	1.654276	0.029972	0.102493	-0.070333	-0.112030	-0.684326	-0.388916	-0.388916	0.669420	0.351707	-0.615856	0.221137	91.717509	-78.545392	-43.672736	0.143640	-0.137135	0.980082	-0.729268	0.654802	0.198502	-0.668981	-0.743255	-0.005952	0	0	0
57928	0	0	0	0	0	9.639126	1.662646	0.037923	0.111992	-0.075107	-0.118917	-0.691162	-0.389404	-0.385986	0.669119	0.352521	-0.615783	0.220951	91.985537	-78.476969	-43.881624	0.143983	-0.138469	0.979844	-0.729838	0.653819	0.199642	-0.668285	-0.743873	-0.006921	0	0	0
57929	0	0	0	0	0	9.608742	1.693979	0.026303	0.121042	-0.075925	-0.125260	-0.678955	-0.389404	-0.384033	0.668803	0.353394	-0.615689	0.220778	92.257963	-78.404776	-44.088352	0.144369	-0.139847	0.979592	-0.730475	0.652740	0.200840	-0.667505	-0.744563	-0.007919	0	0	0
57930	0	0	0	0	0	9.572773	1.657027	0.016140	0.127192	-0.079203	-0.131851	-0.684570	-0.390869	-0.383301	0.668476	0.354303	-0.615589	0.220588	92.538788	-78.328457	-44.301522	0.144782	-0.141294	0.979323	-0.731126	0.651620	0.202102	-0.666703	-0.745270	-0.008961	0	0	0
57931	0	0	0	0	0	9.604242	1.719495	0.006720	0.141191	-0.081587	-0.141362	-0.682617	-0.387695	-0.385010	0.668143	0.355245	-0.615492	0.220356	92.829976	-78.246469	-44.525642	0.145227	-0.142842	0.979033	-0.731759	0.650489	0.203454	-0.665912	-0.745963	-0.010057	0	0	0
57932	0	0	0	0	0	9.583567	1.685017	0.067291	0.146063	-0.087458	-0.151092	-0.687500	-0.399414	-0.386475	0.667777	0.356284	-0.615364	0.220145	93.134759	-78.158460	-44.752367	0.145728	-0.144474	0.978719	-0.732504	0.649196	0.204899	-0.664982	-0.746775	-0.011222	0	0	0
57933	0	0	0	0	0	9.570720	1.646811	0.000969	0.162203	-0.088360	-0.153287	-0.687744	-0.391846	-0.378174	0.667398	0.357335	-0.615245	0.219921	93.446983	-78.069006	-44.986541	0.146217	-0.146148	0.978397	-0.733247	0.647893	0.206359	-0.664056	-0.747580	-0.012430	0	0	0
57934	0	0	0	0	0	9.583686	1.663390	0.061108	0.179410	-0.090944	-0.168580	-0.680176	-0.395996	-0.388184	0.666979	0.358543	-0.615059	0.219747	93.769266	-77.970370	-45.211777	0.146828	-0.147917	0.978040	-0.734183	0.646317	0.207967	-0.662885	-0.748596	-0.013701	0	0	0
57935	0	0	0	0	0	9.591197	1.661206	0.022147	0.191283	-0.095750	-0.179709	-0.677002	-0.405518	-0.383057	0.666554	0.359774	-0.614887	0.219506	94.104585	-77.865064	-45.453513	0.147463	-0.149816	0.977655	-0.735066	0.644759	0.209676	-0.661765	-0.749560	-0.015047	0	0	0
57936	0	0	0	0	0	9.577733	1.698040	0.036495	0.201016	-0.097536	-0.191455	-0.684814	-0.398438	-0.377686	0.666098	0.361130	-0.614656	0.219310	94.442916	-77.752540	-45.682680	0.148204	-0.151778	0.977241	-0.736105	0.642976	0.211497	-0.660443	-0.750696	-0.016433	0	0	0
57937	0	0	0	0	0	9.587106	1.732242	-0.004488	0.195821	-0.099001	-0.200271	-0.681641	-0.397461	-0.384033	0.665672	0.362450	-0.614445	0.219015	94.774927	-77.634679	-45.917221	0.148979	-0.153827	0.976802	-0.736995	0.641325	0.213401	-0.659275	-0.751691	-0.017826	0	0	0
57938	0	0	0	0	0	9.559470	1.803390	-0.063464	0.212196	-0.096927	-0.207401	-0.678955	-0.414551	-0.378418	0.665213	0.363890	-0.614168	0.218800	95.104197	-77.512528	-46.130755	0.149848	-0.155882	0.976343	-0.738076	0.639422	0.215369	-0.657867	-0.752888	-0.019237	0	0	0
57939	0	0	0	0	0	9.502433	1.930264	-0.084935	0.209648	-0.107496	-0.214500	-0.683105	-0.412842	-0.370850	0.664750	0.365303	-0.613944	0.218480	95.451501	-77.385562	-46.373687	0.150678	-0.158082	0.975862	-0.739021	0.637640	0.217401	-0.656616	-0.753940	-0.020748	0	0	0
57940	0	0	0	0	0	9.572357	1.996725	-0.125650	0.224439	-0.104099	-0.214644	-0.680176	-0.417480	-0.367920	0.664251	0.366812	-0.613662	0.218265	95.793398	-77.258339	-46.593182	0.151560	-0.160232	0.975374	-0.740162	0.635619	0.219429	-0.655126	-0.755192	-0.022263	0	0	0
57941	0	0	0	0	0	9.519599	2.063618	0.052927	0.216396	-0.103651	-0.217040	-0.681396	-0.416992	-0.374756	0.663781	0.368263	-0.613403	0.217976	96.123972	-77.129478	-46.812822	0.152446	-0.162411	0.974876	-0.741165	0.633737	0.221477	-0.653785	-0.756307	-0.023763	0	0	0
57942	0	0	0	0	0	9.535985	2.046284	-0.015229	0.225394	-0.109665	-0.224197	-0.680664	-0.423096	-0.371826	0.663269	0.369809	-0.613117	0.217721	96.466647	-76.995909	-47.032780	0.153370	-0.164657	0.974354	-0.742287	0.631678	0.223589	-0.652294	-0.757542	-0.025343	0	0	0
57943	0	0	0	0	0	9.488633	1.999976	-0.043209	0.239442	-0.111635	-0.223879	-0.678467	-0.422852	-0.366699	0.662739	0.371358	-0.612847	0.217459	96.816297	-76.862085	-47.259675	0.154260	-0.166934	0.973826	-0.743409	0.629609	0.225689	-0.650805	-0.758766	-0.026977	0	0	0
57944	0	0	0	0	0	9.502810	1.985340	-0.070299	0.258371	-0.119501	-0.233242	-0.676514	-0.414795	-0.365479	0.662142	0.373049	-0.612537	0.217255	97.187428	-76.722088	-47.489696	0.155196	-0.169306	0.973267	-0.744721	0.627269	0.227870	-0.649080	-0.760177	-0.028736	0	0	0
57945	0	0	0	0	0	9.542159	2.109656	-0.076914	0.276537	-0.122793	-0.234567	-0.681885	-0.430664	-0.355469	0.661518	0.374758	-0.612244	0.217044	97.570118	-76.580842	-47.730054	0.156098	-0.171730	0.972698	-0.746043	0.624897	0.230050	-0.647343	-0.761586	-0.030573	0	0	0
57946	0	0	0	0	0	9.520091	2.165585	-0.125710	0.270935	-0.124727	-0.239699	-0.681885	-0.423340	-0.357910	0.660884	0.376513	-0.611922	0.216846	97.946129	-76.436093	-47.957961	0.157059	-0.174174	0.972109	-0.747413	0.622431	0.232278	-0.645528	-0.763048	-0.032422	0	0	0
57947	0	0	0	0	0	9.521742	2.251303	-0.232344	0.273047	-0.129445	-0.237172	-0.681885	-0.427979	-0.356934	0.660239	0.378230	-0.611643	0.216607	98.329796	-76.292123	-48.200455	0.157948	-0.176658	0.971517	-0.748709	0.620047	0.234472	-0.643807	-0.764417	-0.034330	0	0	0
57948	0	0	0	0	0	9.485008	2.294299	-0.211500	0.262790	-0.136550	-0.234554	-0.676025	-0.429199	-0.351074	0.659574	0.379953	-0.611374	0.216377	98.717522	-76.148588	-48.445507	0.158805	-0.179153	0.970920	-0.750021	0.617634	0.236639	-0.642067	-0.765789	-0.036285	0	0	0
57949	0	0	0	0	0	9.506134	2.337575	-0.145751	0.250829	-0.134699	-0.225618	-0.675293	-0.432617	-0.358154	0.658942	0.381557	-0.611158	0.216092	99.091682	-76.010030	-48.692747	0.159580	-0.181599	0.970338	-0.751168	0.615437	0.238715	-0.640532	-0.766981	-0.038200	0	0	0
57950	0	0	0	0	0	9.467836	2.382432	-0.082997	0.250296	-0.139758	-0.215264	-0.677490	-0.434326	-0.350098	0.658265	0.383181	-0.610946	0.215880	99.474119	-75.876345	-48.940019	0.160281	-0.183993	0.969771	-0.752418	0.613137	0.240687	-0.638887	-0.768251	-0.040165	0	0	0
57951	0	0	0	0	0	9.411083	2.425198	-0.049994	0.258050	-0.147611	-0.208272	-0.664551	-0.437988	-0.355469	0.657558	0.384765	-0.610795	0.215646	99.875306	-75.745573	-49.211613	0.160853	-0.186426	0.969212	-0.753624	0.610906	0.242580	-0.637321	-0.769441	-0.042229	0	0	0
57952	0	0	0	0	0	9.474461	2.317275	-0.128710	0.243112	-0.161757	-0.218954	-0.672363	-0.434814	-0.346436	0.656828	0.386397	-0.610652	0.215356	100.288797	-75.606776	-49.495474	0.161452	-0.189005	0.968613	-0.754812	0.608638	0.244578	-0.635761	-0.770608	-0.044398	0	0	0
57953	0	0	0	0	0	9.475923	2.252643	-0.128852	0.270679	-0.162655	-0.222101	-0.675537	-0.440430	-0.346191	0.656062	0.388078	-0.610506	0.215084	100.711486	-75.465673	-49.782251	0.162043	-0.191632	0.967997	-0.756064	0.606269	0.246587	-0.634120	-0.771826	-0.046644	0	0	0
57954	0	0	0	0	0	9.420778	2.293052	-0.140140	0.302733	-0.163202	-0.226390	-0.669678	-0.445068	-0.338379	0.655215	0.389928	-0.610285	0.214947	101.145705	-75.321513	-50.052594	0.162701	-0.194261	0.967363	-0.757607	0.603508	0.248615	-0.632107	-0.773331	-0.048982	0	0	0
57955	0	0	0	0	0	9.426057	2.289022	-0.458069	0.312812	-0.178816	-0.232493	-0.668213	-0.449219	-0.344727	0.654321	0.391796	-0.610120	0.214739	101.609632	-75.171719	-50.356797	0.163280	-0.197069	0.966697	-0.759103	0.600765	0.250687	-0.630161	-0.774755	-0.051503	0	0	0
57956	0	0	0	0	0	9.403950	2.372321	-0.559935	0.337095	-0.191835	-0.232020	-0.669434	-0.449951	-0.339111	0.653319	0.393803	-0.609940	0.214631	102.107089	-75.019943	-50.672576	0.163814	-0.199946	0.966016	-0.760838	0.597705	0.252733	-0.627926	-0.776382	-0.054214	0	0	0
57957	0	0	0	0	0	9.436153	2.430545	-0.530934	0.315108	-0.182752	-0.219912	-0.677002	-0.459717	-0.337891	0.652391	0.395641	-0.609804	0.214462	102.570082	-74.875400	-50.974934	0.164290	-0.202700	0.965361	-0.762353	0.594949	0.254665	-0.625961	-0.777784	-0.056785	0	0	0
57958	0	0	0	0	0	9.429858	2.376981	-0.591620	0.328078	-0.183017	-0.223567	-0.670410	-0.464600	-0.332275	0.651419	0.397579	-0.609615	0.214370	103.032767	-74.728151	-51.260471	0.164830	-0.205451	0.964687	-0.764029	0.591954	0.256614	-0.623772	-0.779346	-0.059399	0	0	0
57959	0	0	0	0	0	9.412566	2.308501	-0.623968	0.356629	-0.204217	-0.216484	-0.671631	-0.464111	-0.330078	0.650328	0.399571	-0.609501	0.214302	103.550872	-74.581301	-51.593991	0.165167	-0.208344	0.964009	-0.765811	0.588836	0.258470	-0.621493	-0.780939	-0.062296	0	0	0
57960	0	0	0	0	0	9.334696	2.351659	-0.585935	0.381552	-0.214803	-0.218887	-0.674561	-0.470459	-0.326904	0.649141	0.401698	-0.609361	0.214322	104.095274	-74.430992	-51.932936	0.165490	-0.211308	0.963308	-0.767809	0.585409	0.260318	-0.618936	-0.782717	-0.065365	0	0	0
57961	0	0	0	0	0	9.395576	2.553365	-0.846438	0.413432	-0.230637	-0.227543	-0.673340	-0.466797	-0.330811	0.647860	0.403932	-0.609243	0.214336	104.676291	-74.272618	-52.298517	0.165766	-0.214465	0.962562	-0.769905	0.581798	0.262217	-0.616253	-0.784548	-0.068675	0	0	0
57962	0	0	0	0	0	9.380460	2.861423	-0.925378	0.432216	-0.232993	-0.230009	-0.669922	-0.468994	-0.310303	0.646518	0.406272	-0.609077	0.214436	105.261967	-74.111680	-52.650711	0.166085	-0.217629	0.961797	-0.772175	0.577921	0.264108	-0.613321	-0.786540	-0.072063	0	0	0
57963	0	0	0	0	0	9.460490	3.075832	-0.452920	0.300521	-0.230459	-0.238585	-0.676025	-0.478516	-0.314453	0.645472	0.408161	-0.609054	0.214062	105.753988	-73.945511	-52.992795	0.166461	-0.220843	0.960999	-0.773527	0.575164	0.266163	-0.611512	-0.787664	-0.075086	0	0	0
57964	0	0	0	0	0	9.214719	2.516671	-1.599076	0.243458	-0.248602	-0.252073	-0.671387	-0.484863	-0.313477	0.644484	0.409971	-0.609090	0.213481	106.231786	-73.768268	-53.345862	0.166870	-0.224248	0.960139	-0.774588	0.572700	0.268381	-0.610056	-0.788497	-0.078133	0	0	0
57965	0	0	0	0	0	9.519963	2.608571	-0.864376	0.299678	-0.228776	-0.239991	-0.672119	-0.484863	-0.313721	0.643417	0.411921	-0.609012	0.213167	106.702849	-73.599823	-53.655244	0.167329	-0.227419	0.959313	-0.776040	0.569762	0.270432	-0.608081	-0.789716	-0.081148	0	0	0
57966	0	0	0	0	0	9.525205	2.347985	-1.059973	0.326882	-0.257816	-0.245911	-0.677246	-0.481201	-0.306641	0.642216	0.413986	-0.608994	0.212838	107.231252	-73.422773	-54.011863	0.167652	-0.230853	0.958436	-0.777607	0.566631	0.272502	-0.605988	-0.790972	-0.084516	0	0	0
57967	0	0	0	0	0	9.511512	2.546737	-0.772879	0.326624	-0.237916	-0.238849	-0.663818	-0.486572	-0.304443	0.641061	0.416015	-0.608918	0.212582	107.718452	-73.252076	-54.324143	0.168056	-0.234082	0.957582	-0.779193	0.563482	0.274492	-0.603833	-0.792271	-0.087699	0	0	0
57968	0	0	0	0	0	9.495498	2.560456	-0.988173	0.351922	-0.237141	-0.241150	-0.669678	-0.492920	-0.300049	0.639859	0.418119	-0.608811	0.212385	108.209086	-73.079541	-54.626956	0.168485	-0.237317	0.956710	-0.780903	0.560139	0.276469	-0.601501	-0.793678	-0.090947	0	0	0
57969	0	0	0	0	0	9.466856	2.581453	-1.005830	0.376819	-0.228641	-0.244320	-0.667969	-0.496582	-0.290283	0.638625	0.420315	-0.608629	0.212283	108.688880	-72.905840	-54.901255	0.169013	-0.240493	0.955823	-0.782771	0.556542	0.278444	-0.598919	-0.795251	-0.094188	0	0	0
57970	0	0	0	0	0	9.385198	2.802571	-0.951438	0.383958	-0.222996	-0.233647	-0.660645	-0.492920	-0.289307	0.637382	0.422479	-0.608450	0.212235	109.162022	-72.738552	-55.167103	0.169489	-0.243564	0.954961	-0.784664	0.552936	0.280292	-0.596301	-0.796830	-0.097400	0	0	0
57971	0	0	0	0	0	9.334517	2.954838	-1.016236	0.349632	-0.228914	-0.228730	-0.666992	-0.500732	-0.288086	0.636179	0.424538	-0.608324	0.212098	109.622294	-72.571872	-55.437559	0.169913	-0.246648	0.954093	-0.786377	0.549565	0.282116	-0.593919	-0.798213	-0.100581	0	0	0
57972	0	0	0	0	0	9.413213	3.071819	-0.975514	0.299540	-0.225358	-0.225430	-0.662842	-0.500244	-0.287598	0.635093	0.426405	-0.608253	0.211812	110.042613	-72.407332	-55.699217	0.170328	-0.249684	0.953229	-0.787764	0.546629	0.283943	-0.591959	-0.799284	-0.103586	0	0	0
57973	0	0	0	0	0	9.366745	2.966436	-1.128925	0.249790	-0.211113	-0.222264	-0.670166	-0.504395	-0.280762	0.634146	0.428098	-0.608186	0.211423	110.406270	-72.246610	-55.929754	0.170819	-0.252581	0.952378	-0.788873	0.544064	0.285785	-0.590339	-0.800123	-0.106318	0	0	0
57974	0	0	0	0	0	9.360293	2.863113	-1.265879	0.211471	-0.212895	-0.213497	-0.670410	-0.510986	-0.285400	0.633268	0.429633	-0.608190	0.210932	110.751343	-72.089970	-56.165843	0.171226	-0.255445	0.951541	-0.789750	0.541846	0.287573	-0.589047	-0.800719	-0.108959	0	0	0
57975	0	0	0	0	0	9.417215	2.624092	-1.382071	0.258272	-0.209872	-0.220718	-0.661621	-0.507080	-0.279053	0.632300	0.431342	-0.608111	0.210573	111.108834	-71.929566	-56.385507	0.171720	-0.258317	0.950676	-0.790899	0.539205	0.289372	-0.587359	-0.801580	-0.111711	0	0	0
57976	0	0	0	0	0	9.396403	2.291022	-1.639945	0.302378	-0.199720	-0.231997	-0.656494	-0.512451	-0.281738	0.631281	0.433204	-0.607932	0.210327	111.462646	-71.764909	-56.576409	0.172362	-0.261167	0.949781	-0.792268	0.536194	0.291218	-0.585323	-0.802675	-0.114495	0	0	0
57977	0	0	0	0	0	9.386439	2.335456	-1.712851	0.347737	-0.189969	-0.242648	-0.660156	-0.506104	-0.277832	0.630200	0.435235	-0.607643	0.210209	111.814351	-71.596170	-56.736926	0.173163	-0.263986	0.948855	-0.793883	0.532766	0.293105	-0.582893	-0.804035	-0.117319	0	0	0
57978	0	0	0	0	0	9.390346	2.494172	-1.947333	0.382858	-0.180398	-0.251442	-0.656982	-0.515625	-0.270508	0.629079	0.437384	-0.607270	0.210186	112.161515	-71.424611	-56.872568	0.174090	-0.266774	0.947905	-0.795668	0.529034	0.295019	-0.580178	-0.805577	-0.120164	0	0	0
57979	0	0	0	0	0	9.386771	2.584593	-2.057055	0.417419	-0.160588	-0.266372	-0.665527	-0.530029	-0.274658	0.627954	0.439665	-0.606760	0.210264	112.483123	-71.249283	-56.960265	0.175262	-0.269470	0.946926	-0.797615	0.524968	0.297019	-0.577143	-0.807338	-0.122927	0	0	0
57980	0	0	0	0	0	9.348059	2.534477	-2.157084	0.462197	-0.145309	-0.272868	-0.663818	-0.530518	-0.266846	0.626778	0.442086	-0.606138	0.210488	112.799208	-71.073655	-57.015318	0.176582	-0.272072	0.945936	-0.799789	0.520510	0.299010	-0.573721	-0.809349	-0.125687	0	0	0
57981	0	0	0	0	0	9.400707	2.548294	-2.010355	0.467090	-0.132775	-0.291654	-0.659668	-0.534912	-0.257568	0.625644	0.444569	-0.605421	0.210699	113.083176	-70.890728	-57.032467	0.178143	-0.274657	0.944896	-0.801947	0.515929	0.301160	-0.570215	-0.811406	-0.128351	0	0	0
57982	0	0	0	0	0	9.436779	2.658642	-2.022181	0.485292	-0.107531	-0.303566	-0.660156	-0.532715	-0.250977	0.624554	0.447108	-0.604578	0.210977	113.329432	-70.707296	-56.999686	0.179947	-0.277091	0.943843	-0.804157	0.511166	0.303382	-0.566525	-0.813591	-0.130842	0	0	0
57983	0	0	0	0	0	9.467735	2.944884	-1.849797	0.462161	-0.085301	-0.324953	-0.655029	-0.541748	-0.248535	0.623598	0.449617	-0.603636	0.211170	113.514232	-70.517702	-56.914999	0.182060	-0.279440	0.942745	-0.806181	0.506503	0.305821	-0.562962	-0.815701	-0.133065	0	0	0
57984	0	0	0	0	0	9.452903	3.035841	-1.882722	0.419855	-0.065093	-0.338655	-0.651855	-0.538086	-0.248047	0.622810	0.452006	-0.602643	0.211233	113.635057	-70.325641	-56.788807	0.184405	-0.281681	0.941621	-0.807913	0.502142	0.308433	-0.559707	-0.817624	-0.134976	0	0	0
57985	0	0	0	0	0	9.397956	3.000017	-1.744790	0.388264	-0.051261	-0.345801	-0.649414	-0.547852	-0.248047	0.622138	0.454302	-0.601618	0.211210	113.713515	-70.133155	-56.636369	0.186893	-0.283830	0.940485	-0.809436	0.497999	0.311142	-0.556672	-0.819413	-0.136669	0	0	0
57986	0	0	0	0	0	9.281774	3.274336	-1.808765	0.379443	-0.044116	-0.345491	-0.644775	-0.539795	-0.250000	0.621503	0.456558	-0.600578	0.211174	113.777454	-69.942476	-56.473986	0.189424	-0.285906	0.939349	-0.810888	0.493920	0.313852	-0.553696	-0.821158	-0.138278	0	0	0
57987	0	0	0	0	0	9.340372	3.734698	-1.524589	0.338805	-0.041951	-0.339093	-0.649414	-0.554932	-0.242920	0.620958	0.458663	-0.599584	0.211041	113.820070	-69.755848	-56.313476	0.191920	-0.287919	0.938227	-0.812109	0.490180	0.316547	-0.551040	-0.822694	-0.139746	0	0	0
57988	0	0	0	0	0	9.273501	4.034527	-1.393054	0.265579	-0.028274	-0.328635	-0.643066	-0.546387	-0.234863	0.620607	0.460493	-0.598647	0.210750	113.809291	-69.577736	-56.140598	0.194412	-0.289759	0.937146	-0.812931	0.487062	0.319240	-0.548951	-0.823899	-0.140863	0	0	0
57989	0	0	0	0	0	9.239067	3.949589	-1.338554	0.203943	-0.024326	-0.315190	-0.648682	-0.551270	-0.238770	0.620392	0.462085	-0.597791	0.210326	113.767908	-69.407681	-55.972419	0.196818	-0.291491	0.936107	-0.813429	0.484481	0.321886	-0.547353	-0.824810	-0.141753	0	0	0
57990	0	0	0	0	0	9.181211	3.484095	-1.317106	0.167155	-0.025482	-0.310994	-0.642334	-0.562988	-0.234131	0.620253	0.463550	-0.596985	0.209800	113.711189	-69.239387	-55.810326	0.199186	-0.293206	0.935070	-0.813723	0.482210	0.324542	-0.546058	-0.825532	-0.142539	0	0	0
57991	0	0	0	0	0	9.129553	3.097503	-1.339263	0.175777	-0.031486	-0.310611	-0.645020	-0.555176	-0.233887	0.620074	0.465046	-0.596188	0.209288	113.669794	-69.069987	-55.659066	0.201518	-0.294961	0.934017	-0.814057	0.479862	0.327175	-0.544704	-0.826275	-0.143414	0	0	0
57992	0	0	0	0	0	9.036371	3.023757	-1.369690	0.208740	-0.037195	-0.315418	-0.647705	-0.562744	-0.244385	0.619804	0.466662	-0.595360	0.208844	113.653532	-68.896601	-55.514421	0.203861	-0.296780	0.932932	-0.814549	0.477221	0.329804	-0.543094	-0.827153	-0.144455	0	0	0
57993	0	0	0	0	0	8.922324	2.908077	-1.175166	0.198923	-0.044343	-0.331937	-0.634521	-0.564697	-0.233398	0.619551	0.468302	-0.594525	0.208303	113.632995	-68.713062	-55.371052	0.206300	-0.298726	0.931774	-0.814943	0.474605	0.332591	-0.541579	-0.827957	-0.145534	0	0	0
57994	0	0	0	0	0	8.903050	2.785199	-1.225110	0.213169	-0.059857	-0.354809	-0.633545	-0.576172	-0.234375	0.619239	0.470070	-0.593666	0.207695	113.629342	-68.513766	-55.236860	0.208846	-0.300903	0.930506	-0.815356	0.471794	0.335568	-0.539980	-0.828775	-0.146811	0	0	0
57995	0	0	0	0	0	8.964152	2.555795	-1.238182	0.193498	-0.074920	-0.384491	-0.637939	-0.565674	-0.221191	0.618957	0.471878	-0.592802	0.206902	113.618573	-68.295503	-55.106837	0.211555	-0.303334	0.929104	-0.815588	0.469044	0.338841	-0.538573	-0.829449	-0.148167	0	0	0
57996	0	0	0	0	0	8.988904	2.271699	-1.338676	0.171363	-0.081192	-0.421495	-0.635986	-0.574951	-0.233154	0.618744	0.473732	-0.591890	0.205912	113.583755	-68.056275	-54.964471	0.214533	-0.305981	0.927551	-0.815608	0.466356	0.342483	-0.537363	-0.829993	-0.149512	0	0	0
57997	0	0	0	0	0	9.024622	2.090734	-1.475309	0.156456	-0.094453	-0.462654	-0.631348	-0.576416	-0.226807	0.618566	0.475672	-0.590934	0.204719	113.536626	-67.792533	-54.817682	0.217774	-0.308916	0.925821	-0.815446	0.463653	0.346517	-0.536304	-0.830420	-0.150933	0	0	0
57998	0	0	0	0	0	9.037515	2.185197	-1.498896	0.137529	-0.090824	-0.500205	-0.624756	-0.586426	-0.230713	0.618478	0.477658	-0.589893	0.203360	113.455497	-67.509650	-54.645674	0.221343	-0.311986	0.923944	-0.815081	0.460975	0.350919	-0.535397	-0.830763	-0.152260	0	0	0
57999	0	0	0	0	0	9.209794	2.437763	-1.311411	0.084260	-0.077095	-0.538143	-0.624512	-0.586914	-0.220459	0.618591	0.479573	-0.588768	0.201760	113.309493	-67.209957	-54.436006	0.225290	-0.315101	0.921930	-0.814328	0.458606	0.355740	-0.534897	-0.830898	-0.153276	0	0	0
58000	0	0	0	0	0	9.114338	3.118483	-1.390385	0.136428	-0.040270	-0.518826	-0.618896	-0.587158	-0.220947	0.618664	0.481552	-0.587519	0.200458	113.162392	-66.928404	-54.192319	0.229276	-0.317810	0.920016	-0.813874	0.455848	0.360293	-0.533892	-0.831384	-0.154142	0	0	0
58001	0	0	0	0	0	9.045878	3.470085	-1.280664	0.093400	-0.073435	-0.519681	-0.621582	-0.598389	-0.218994	0.618740	0.483431	-0.586409	0.198947	113.035767	-66.638886	-53.997074	0.233088	-0.320784	0.918024	-0.813170	0.453430	0.364906	-0.533315	-0.831564	-0.155162	0	0	0
58002	0	0	0	0	0	9.087898	3.628323	-1.460117	0.043995	-0.071688	-0.530218	-0.619873	-0.598633	-0.224609	0.618946	0.485182	-0.585314	0.197260	112.877277	-66.343841	-53.797666	0.236992	-0.323781	0.915970	-0.812155	0.451373	0.369685	-0.533141	-0.831522	-0.155988	0	0	0
58003	0	0	0	0	0	8.858524	3.569485	-1.500533	0.021719	-0.080320	-0.533413	-0.612793	-0.598877	-0.224121	0.619180	0.486879	-0.584255	0.195478	112.719265	-66.045157	-53.612172	0.240868	-0.326851	0.913866	-0.810994	0.449475	0.374513	-0.533170	-0.831348	-0.156810	0	0	0
58004	0	0	0	0	0	8.843028	3.602417	-1.418015	-0.008250	-0.084663	-0.539998	-0.614746	-0.602295	-0.213623	0.619476	0.488503	-0.583219	0.193573	112.550158	-65.741637	-53.433006	0.244770	-0.329980	0.911702	-0.809636	0.447789	0.379440	-0.533458	-0.831022	-0.157558	0	0	0
58005	0	0	0	0	0	8.936393	3.328446	-1.423852	-0.060634	-0.101012	-0.557709	-0.604248	-0.610107	-0.213867	0.619864	0.490028	-0.582236	0.191422	112.366098	-65.425136	-53.269842	0.248717	-0.333313	0.909419	-0.807935	0.446461	0.384596	-0.534211	-0.830406	-0.158253	0	0	0
58006	0	0	0	0	0	8.869776	3.084503	-1.362833	-0.094178	-0.106143	-0.578511	-0.603271	-0.609375	-0.220703	0.620335	0.491511	-0.581246	0.189092	112.163317	-65.096066	-53.106906	0.252795	-0.336776	0.907015	-0.805977	0.445323	0.389984	-0.535252	-0.829620	-0.158858	0	0	0
58007	0	0	0	0	0	8.883483	3.152357	-1.489427	-0.065097	-0.121396	-0.609473	-0.596191	-0.620850	-0.225830	0.620713	0.493183	-0.580193	0.186713	111.984958	-64.747222	-52.951966	0.257027	-0.340493	0.904434	-0.804074	0.443817	0.395590	-0.536099	-0.828910	-0.159708	0	0	0
58008	0	0	0	0	0	8.942610	3.085426	-1.469322	-0.117474	-0.116183	-0.643568	-0.594482	-0.616699	-0.222656	0.621261	0.494782	-0.579084	0.184086	111.760206	-64.380959	-52.778552	0.261549	-0.344310	0.901689	-0.801772	0.442605	0.401575	-0.537359	-0.827980	-0.160295	0	0	0
58009	0	0	0	0	0	8.899378	2.570795	-1.547905	-0.148660	-0.110273	-0.684379	-0.593262	-0.623047	-0.215088	0.621933	0.496391	-0.577877	0.181256	111.499088	-63.994095	-52.583974	0.266410	-0.348248	0.898749	-0.799164	0.441484	0.407957	-0.538854	-0.826931	-0.160691	0	0	0
58010	0	0	0	0	0	8.680509	2.800397	-1.778906	-0.080292	-0.107235	-0.710727	-0.585938	-0.635010	-0.222168	0.622461	0.498280	-0.576525	0.178545	111.269065	-63.593249	-52.379809	0.271481	-0.352268	0.895659	-0.796816	0.439678	0.414448	-0.539798	-0.826191	-0.161329	0	0	0
58011	0	0	0	0	0	8.641149	3.696513	-1.828187	-0.037414	-0.113712	-0.733523	-0.584473	-0.626221	-0.216064	0.622874	0.500367	-0.575092	0.175870	111.067516	-63.178764	-52.179135	0.276679	-0.356424	0.892419	-0.794603	0.437405	0.421048	-0.540420	-0.825614	-0.162195	0	0	0
58012	0	0	0	0	0	8.640340	4.420196	-1.649195	-0.100360	-0.096784	-0.744277	-0.576172	-0.642090	-0.217773	0.623495	0.502267	-0.573625	0.173019	110.814108	-62.761419	-51.960149	0.282037	-0.360474	0.889108	-0.791979	0.435585	0.427827	-0.541502	-0.824818	-0.162637	0	0	0
58013	0	0	0	0	0	8.709807	4.511530	-1.714981	-0.161873	-0.094245	-0.743891	-0.579346	-0.641357	-0.219238	0.624268	0.503964	-0.572197	0.169998	110.530346	-62.344565	-51.745722	0.287382	-0.364486	0.885755	-0.788983	0.434241	0.434673	-0.543064	-0.823762	-0.162780	0	0	0
58014	0	0	0	0	0	8.669989	4.411826	-1.650451	-0.168305	-0.100773	-0.738509	-0.573486	-0.646729	-0.218262	0.625025	0.505625	-0.570800	0.166954	110.258591	-61.928591	-51.548358	0.292627	-0.368520	0.882362	-0.785923	0.432939	0.441462	-0.544697	-0.822652	-0.162939	0	0	0
58015	0	0	0	0	0	8.638930	4.645002	-1.717152	-0.149988	-0.096487	-0.728157	-0.568604	-0.662598	-0.222900	0.625731	0.507302	-0.569393	0.164006	110.003519	-61.518845	-51.357141	0.297788	-0.372461	0.878974	-0.782955	0.431493	0.448101	-0.546172	-0.821636	-0.163127	0	0	0
58016	0	0	0	0	0	8.697223	4.639638	-1.558115	-0.164935	-0.087771	-0.730054	-0.565674	-0.651611	-0.214844	0.626492	0.508924	-0.567957	0.161027	109.736766	-61.109133	-51.161747	0.302990	-0.376329	0.875542	-0.779858	0.430134	0.454760	-0.547739	-0.820586	-0.163157	0	0	0
58017	0	0	0	0	0	8.732019	4.143679	-1.638834	-0.184799	-0.089345	-0.737604	-0.557861	-0.654785	-0.222900	0.627295	0.510498	-0.566515	0.157964	109.464011	-60.694820	-50.971608	0.308216	-0.380230	0.872025	-0.776590	0.428878	0.461489	-0.549464	-0.819444	-0.163096	0	0	0
58018	0	0	0	0	0	8.615255	4.025957	-1.730264	-0.146585	-0.088021	-0.737309	-0.551514	-0.662598	-0.223145	0.627997	0.512184	-0.565031	0.155009	109.217992	-60.280290	-50.786383	0.313425	-0.384110	0.868461	-0.773489	0.427280	0.468130	-0.550889	-0.818469	-0.163185	0	0	0
58019	0	0	0	0	0	8.515304	4.941213	-1.928087	-0.080859	-0.103378	-0.736739	-0.552246	-0.672363	-0.219727	0.628477	0.514078	-0.563538	0.152201	109.029768	-59.863075	-50.623517	0.318519	-0.388096	0.864828	-0.770716	0.425116	0.474630	-0.551854	-0.817715	-0.163704	0	0	0
58020	0	0	0	0	0	8.479148	5.584939	-1.691939	-0.169055	-0.100726	-0.741821	-0.539063	-0.677002	-0.223145	0.629186	0.515701	-0.562083	0.149132	108.791866	-59.443066	-50.461056	0.323645	-0.392070	0.861124	-0.767398	0.423623	0.481294	-0.553493	-0.816593	-0.163770	0	0	0
58021	0	0	0	0	0	8.398500	5.326566	-1.620961	-0.256936	-0.091707	-0.722926	-0.536621	-0.676514	-0.224854	0.630123	0.516980	-0.560705	0.145899	108.506821	-59.034806	-50.301511	0.328647	-0.395878	0.857480	-0.763615	0.422891	0.487909	-0.555773	-0.815134	-0.163317	0	0	0
58022	0	0	0	0	0	8.465869	4.973209	-1.658561	-0.255947	-0.097724	-0.710580	-0.536865	-0.681885	-0.221191	0.631023	0.518224	-0.559369	0.142687	108.236793	-58.631574	-50.158299	0.333493	-0.399679	0.853838	-0.759835	0.422168	0.494393	-0.558062	-0.813653	-0.162900	0	0	0
58023	0	0	0	0	0	8.520464	5.018858	-1.780218	-0.217743	-0.096381	-0.707083	-0.519775	-0.687012	-0.222168	0.631816	0.519570	-0.558003	0.139597	107.993432	-58.230369	-50.019967	0.338290	-0.403444	0.850172	-0.756243	0.421118	0.500755	-0.560050	-0.812337	-0.162642	0	0	0
58024	0	0	0	0	0	8.361217	5.429552	-1.877191	-0.177439	-0.089374	-0.698242	-0.526611	-0.683105	-0.221191	0.632510	0.521008	-0.556602	0.136662	107.773858	-57.834717	-49.881970	0.343036	-0.407108	0.846516	-0.752868	0.419749	0.506953	-0.561709	-0.811218	-0.162510	0	0	0
58025	0	0	0	0	0	8.258600	5.824798	-1.854257	-0.213639	-0.088582	-0.692216	-0.524658	-0.686768	-0.227051	0.633287	0.522306	-0.555232	0.133647	107.538856	-57.442408	-49.749551	0.347713	-0.410729	0.842851	-0.749275	0.418669	0.513130	-0.563633	-0.809949	-0.162172	0	0	0
58026	0	0	0	0	0	8.381108	5.629959	-1.723541	-0.290127	-0.082966	-0.687083	-0.520996	-0.695068	-0.231689	0.634268	0.523338	-0.553900	0.130446	107.260932	-57.053352	-49.617743	0.352357	-0.414278	0.839177	-0.745230	0.418203	0.519364	-0.566107	-0.808381	-0.161376	0	0	0
58027	0	0	0	0	0	8.422505	5.401037	-1.829171	-0.306083	-0.082498	-0.683571	-0.514160	-0.690186	-0.228516	0.635280	0.524301	-0.552579	0.127214	106.979011	-56.666156	-49.491401	0.356945	-0.417802	0.835483	-0.741069	0.417850	0.525564	-0.568689	-0.806748	-0.160471	0	0	0
58028	0	0	0	0	0	8.403251	5.459467	-1.875963	-0.309269	-0.087450	-0.683651	-0.507324	-0.691650	-0.227783	0.636279	0.525250	-0.551268	0.123957	106.703651	-56.277562	-49.374655	0.361477	-0.421365	0.831737	-0.736849	0.417494	0.531744	-0.571304	-0.805078	-0.159568	0	0	0
58029	0	0	0	0	0	8.315248	5.548322	-1.842531	-0.331839	-0.097028	-0.685021	-0.505859	-0.703613	-0.229980	0.637301	0.526129	-0.549990	0.120607	106.427156	-55.886535	-49.271482	0.365930	-0.425005	0.827929	-0.732458	0.417284	0.537940	-0.574109	-0.803271	-0.158602	0	0	0
58030	0	0	0	0	0	8.356771	5.474878	-1.919972	-0.379482	-0.102726	-0.690474	-0.496094	-0.696045	-0.236328	0.638428	0.526868	-0.548735	0.117091	106.130698	-55.491121	-49.176817	0.370358	-0.428714	0.824038	-0.727730	0.417401	0.544230	-0.577273	-0.801237	-0.157400	0	0	0
58031	0	0	0	0	0	7.999113	5.680123	-2.479659	-0.390909	-0.120397	-0.696764	-0.490234	-0.704346	-0.236328	0.639529	0.527588	-0.547519	0.113476	105.844461	-55.089369	-49.101994	0.374692	-0.432586	0.820046	-0.722872	0.417548	0.550554	-0.580571	-0.799076	-0.156253	0	0	0
58032	0	0	0	0	0	7.447139	5.942274	-2.865635	-0.414266	-0.205888	-0.671300	-0.485352	-0.705078	-0.241211	0.640432	0.528204	-0.546647	0.109650	105.620890	-54.688011	-49.119872	0.378307	-0.437036	0.816017	-0.717930	0.417954	0.556679	-0.584346	-0.796438	-0.155646	0	0	0
58033	0	0	0	0	0	8.792189	6.485115	-1.543217	-0.733322	-0.164755	-0.692524	-0.488281	-0.712402	-0.239502	0.642289	0.527823	-0.545751	0.104992	105.181300	-54.281419	-49.096940	0.382264	-0.441250	0.811894	-0.710990	0.420759	0.563431	-0.590226	-0.792628	-0.152883	0	0	0
58034	0	0	0	0	0	8.626425	4.659995	-1.260653	-0.805520	-0.146004	-0.707187	-0.477051	-0.708252	-0.251465	0.644377	0.527226	-0.544779	0.100134	104.687769	-53.869219	-49.058459	0.386378	-0.445394	0.807673	-0.703491	0.424013	0.570362	-0.596500	-0.788567	-0.149502	0	0	0
58035	0	0	0	0	0	8.343433	4.081987	-1.355283	-0.657574	-0.147750	-0.742543	-0.469971	-0.710449	-0.257813	0.646071	0.527187	-0.543631	0.095560	104.278458	-53.437173	-49.018977	0.390668	-0.449713	0.803204	-0.696668	0.425884	0.577302	-0.601692	-0.785100	-0.146921	0	0	0
58036	0	0	0	0	0	8.306561	4.995659	-1.309216	-0.525674	-0.130188	-0.772986	-0.467529	-0.714111	-0.251465	0.647464	0.527637	-0.542269	0.091289	103.930183	-52.990334	-48.961234	0.395222	-0.454030	0.798534	-0.690455	0.426531	0.584246	-0.605864	-0.782259	-0.144913	0	0	0
58037	0	0	0	0	0	8.223355	5.943569	-1.200883	-0.587551	-0.106877	-0.812538	-0.462158	-0.717041	-0.257568	0.649086	0.527971	-0.540743	0.086783	103.527036	-52.524630	-48.878636	0.400131	-0.458334	0.793615	-0.683652	0.427432	0.591543	-0.610340	-0.779251	-0.142312	0	0	0
58038	0	0	0	0	0	7.905992	5.733719	-1.246982	-0.730458	-0.097610	-0.839527	-0.465332	-0.722412	-0.262939	0.651104	0.527895	-0.539162	0.081823	103.036440	-52.044524	-48.788589	0.405218	-0.462691	0.788489	-0.675792	0.429265	0.599197	-0.615714	-0.775660	-0.138737	0	0	0
58039	0	0	0	0	0	7.549752	5.597077	-1.313119	-0.825272	-0.110033	-0.859579	-0.450439	-0.718262	-0.273438	0.653325	0.527551	-0.537590	0.076508	102.503932	-51.551380	-48.713603	0.410286	-0.467243	0.783166	-0.667182	0.431673	0.607064	-0.621718	-0.771584	-0.134627	0	0	0
58040	0	0	0	0	0	7.559035	6.313097	-1.018221	-0.997619	-0.121488	-0.884373	-0.449463	-0.724854	-0.273438	0.655953	0.526695	-0.536034	0.070615	101.884050	-51.042311	-48.652806	0.415363	-0.472013	0.777610	-0.657292	0.435213	0.615270	-0.628841	-0.766677	-0.129479	0	0	0
58041	0	0	0	0	0	7.695269	7.734318	-0.824361	-1.301110	-0.107294	-0.905398	-0.440674	-0.723877	-0.280762	0.659390	0.524865	-0.534454	0.063874	101.086246	-50.522829	-48.586251	0.420557	-0.476798	0.771878	-0.645268	0.440873	0.623907	-0.637778	-0.760457	-0.122250	0	0	0
58042	0	0	0	0	0	8.616060	7.643404	-0.933408	-1.685355	-0.045772	-0.909139	-0.439697	-0.715088	-0.295410	0.663950	0.521719	-0.532743	0.056249	100.037061	-50.006890	-48.478707	0.426042	-0.481192	0.766122	-0.630577	0.449290	0.632859	-0.648738	-0.752723	-0.112012	0	0	0
58043	0	0	0	0	0	9.898290	4.952055	-1.240785	-1.633348	0.099579	-0.911976	-0.426270	-0.719727	-0.304688	0.668703	0.518665	-0.530480	0.049128	98.933371	-49.502075	-48.259784	0.432354	-0.484579	0.760429	-0.615988	0.457145	0.641543	-0.658505	-0.745789	-0.100846	0	0	0
58044	0	0	0	0	0	10.209033	2.464256	-1.723654	-0.962548	0.175802	-0.922758	-0.417236	-0.722900	-0.311523	0.671877	0.517830	-0.527734	0.043944	98.175232	-48.995206	-47.988125	0.439132	-0.487503	0.754655	-0.605602	0.459842	0.649455	-0.663633	-0.742217	-0.093301	0	0	0
58045	0	0	0	0	0	10.499491	2.512447	-1.905929	-0.305562	0.236364	-0.946889	-0.410645	-0.723877	-0.315186	0.673490	0.519233	-0.524559	0.040569	97.761878	-48.477897	-47.672071	0.446385	-0.490091	0.748700	-0.599383	0.457502	0.656835	-0.664440	-0.741959	-0.089530	0	0	0
58046	0	0	0	0	0	9.302662	5.611620	-1.965644	0.114038	0.289505	-0.969771	-0.400879	-0.736816	-0.321289	0.674141	0.522086	-0.521046	0.038353	97.560539	-47.950312	-47.315549	0.454081	-0.492351	0.742564	-0.595772	0.451911	0.663952	-0.662470	-0.743887	-0.088125	0	0	0
58047	0	0	0	0	0	7.924012	7.727453	-1.564933	0.033687	0.322257	-0.960354	-0.391357	-0.733887	-0.321289	0.675068	0.524623	-0.517450	0.036046	97.300786	-47.429869	-46.939151	0.461892	-0.494265	0.736450	-0.591600	0.446944	0.671008	-0.660807	-0.745616	-0.085967	0	0	0
58048	0	0	0	0	0	6.623363	8.213961	-1.104058	-0.152242	0.301999	-0.906266	-0.385986	-0.743652	-0.321045	0.676404	0.526383	-0.514085	0.033384	96.958814	-46.937096	-46.593016	0.469204	-0.496049	0.730605	-0.586374	0.443612	0.677771	-0.660312	-0.746421	-0.082725	0	0	0
58049	0	0	0	0	0	5.903390	8.448745	-0.994611	-0.276388	0.241485	-0.843605	-0.374512	-0.735840	-0.326172	0.677886	0.527561	-0.511099	0.030458	96.594320	-46.474747	-46.310774	0.475699	-0.497978	0.725071	-0.580566	0.441504	0.684118	-0.660797	-0.746386	-0.079086	0	0	0
58050	0	0	0	0	0	5.619934	9.253639	-0.811085	-0.402038	0.171871	-0.775766	-0.371826	-0.740967	-0.329590	0.679497	0.528140	-0.508537	0.027253	96.209993	-46.045019	-46.098817	0.481296	-0.500120	0.719885	-0.574194	0.440651	0.690020	-0.662311	-0.745457	-0.075082	0	0	0
58051	0	0	0	0	0	5.602562	10.575287	-0.483559	-0.600376	0.094798	-0.686554	-0.365723	-0.747070	-0.338623	0.681410	0.527817	-0.506489	0.023646	95.768243	-45.660735	-45.963597	0.485820	-0.502442	0.715214	-0.566892	0.441700	0.695367	-0.665292	-0.743272	-0.070243	0	0	0
58052	0	0	0	0	0	5.993433	10.969489	0.172646	-1.008660	0.065396	-0.588111	-0.362793	-0.739502	-0.341797	0.684295	0.525843	-0.504834	0.019259	95.119882	-45.329864	-45.866007	0.489543	-0.504570	0.711166	-0.557285	0.446236	0.700219	-0.670657	-0.739110	-0.062738	0	0	0
58053	0	0	0	0	0	6.598594	10.052133	0.528522	-1.328851	0.059980	-0.491835	-0.363281	-0.739014	-0.357910	0.687971	0.522509	-0.503462	0.014380	94.300843	-45.053052	-45.785794	0.492639	-0.506341	0.707761	-0.545913	0.453555	0.704462	-0.677706	-0.733422	-0.052979	0	0	0
58054	0	0	0	0	0	7.163330	7.659305	0.297085	-1.349548	0.103739	-0.430141	-0.349121	-0.736572	-0.367920	0.691771	0.518919	-0.502075	0.009773	93.451816	-44.812223	-45.679670	0.495650	-0.507551	0.704786	-0.534595	0.461254	0.708133	-0.684499	-0.727761	-0.042714	0	0	0
58055	0	0	0	0	0	7.353752	4.801609	0.401631	-0.874311	0.141710	-0.400217	-0.353516	-0.738770	-0.364014	0.694407	0.516877	-0.500594	0.006563	92.858180	-44.588941	-45.549005	0.498726	-0.508376	0.702016	-0.526605	0.465591	0.711276	-0.688447	-0.724416	-0.035511	0	0	0
58056	0	0	0	0	0	7.805809	3.866533	0.536873	-0.429129	0.210349	-0.403716	-0.353760	-0.736328	-0.371582	0.696053	0.516378	-0.498841	0.004630	92.483470	-44.364553	-45.366312	0.502272	-0.508736	0.699221	-0.521627	0.466664	0.714234	-0.689658	-0.723472	-0.030978	0	0	0
58057	0	0	0	0	0	7.366172	4.983747	-0.029543	-0.019544	0.278328	-0.428194	-0.337402	-0.732422	-0.368896	0.696805	0.517360	-0.496776	0.003811	92.307114	-44.127366	-45.130668	0.506398	-0.508713	0.696256	-0.519335	0.464648	0.717212	-0.688369	-0.724785	-0.028895	0	0	0
58058	0	0	0	0	0	6.845186	6.202090	-0.041478	0.086062	0.345590	-0.438437	-0.333252	-0.732910	-0.373779	0.697447	0.518730	-0.494444	0.003391	92.155801	-43.885123	-44.843101	0.511028	-0.508236	0.693215	-0.517696	0.461815	0.720221	-0.686179	-0.726927	-0.027112	0	0	0
58059	0	0	0	0	0	5.930268	6.709531	-0.309436	0.098308	0.383146	-0.432699	-0.335205	-0.737793	-0.387939	0.698144	0.520124	-0.491992	0.003120	91.993352	-43.646599	-44.527925	0.515868	-0.507437	0.690208	-0.516150	0.458923	0.723173	-0.683717	-0.729313	-0.025170	0	0	0
58060	0	0	0	0	0	5.391941	7.051146	-0.513084	0.129604	0.372439	-0.420514	-0.335205	-0.739014	-0.371826	0.698728	0.521593	-0.489604	0.002939	91.857237	-43.414034	-44.223696	0.520559	-0.506640	0.687265	-0.514855	0.455864	0.726025	-0.681133	-0.731781	-0.023542	0	0	0
58061	0	0	0	0	0	5.283648	7.382496	-0.686385	0.107334	0.355797	-0.407627	-0.328369	-0.746094	-0.383789	0.699322	0.522948	-0.487305	0.002707	91.719783	-43.188260	-43.934745	0.525054	-0.505884	0.684398	-0.513457	0.453036	0.728780	-0.678735	-0.734057	-0.021882	0	0	0
58062	0	0	0	0	0	5.366125	7.705828	-0.876509	0.031957	0.323891	-0.393577	-0.320557	-0.739990	-0.381592	0.700032	0.524003	-0.485151	0.002255	91.558504	-42.969228	-43.673033	0.529247	-0.505283	0.681605	-0.511599	0.450831	0.731449	-0.676878	-0.735826	-0.019901	0	0	0
58063	0	0	0	0	0	5.368826	7.726510	-0.770832	-0.097282	0.301419	-0.374089	-0.315918	-0.742188	-0.383301	0.701020	0.524555	-0.483126	0.001501	91.337438	-42.760584	-43.431137	0.533175	-0.504747	0.678936	-0.508956	0.449680	0.733997	-0.675787	-0.736898	-0.017137	0	0	0
58064	0	0	0	0	0	5.194199	7.822027	-0.611786	-0.187646	0.253706	-0.361710	-0.314453	-0.750488	-0.389404	0.702127	0.524758	-0.481297	0.000445	91.091846	-42.557544	-43.228609	0.536705	-0.504504	0.676330	-0.505754	0.449258	0.736465	-0.675396	-0.737321	-0.014036	0	0	0
58065	0	0	0	0	0	5.338460	7.973267	-0.327474	-0.320101	0.198910	-0.351293	-0.307861	-0.747559	-0.385986	0.703444	0.524467	-0.479687	-0.001036	90.801068	-42.359416	-43.070693	0.539799	-0.504617	0.673779	-0.501703	0.449866	0.738861	-0.675952	-0.736873	-0.010331	0	0	0
58066	0	0	0	0	0	5.818549	7.845232	-0.029956	-0.486318	0.156699	-0.341233	-0.308838	-0.736328	-0.388672	0.705091	0.523564	-0.478246	-0.002992	90.438786	-42.165972	-42.947571	0.542544	-0.505003	0.671281	-0.496566	0.451744	0.741182	-0.677546	-0.735459	-0.005676	0	0	0
58067	0	0	0	0	0	6.404435	7.560238	0.339189	-0.663126	0.142390	-0.336898	-0.291992	-0.746582	-0.391113	0.707157	0.522020	-0.476859	-0.005391	89.984489	-41.974482	-42.837750	0.545153	-0.505485	0.668800	-0.490235	0.454932	0.743443	-0.680057	-0.733159	0.000201	0	0	0
58068	0	0	0	0	0	6.812934	7.019969	0.668795	-0.779347	0.151426	-0.357154	-0.298096	-0.736816	-0.396484	0.709537	0.520106	-0.475375	-0.008117	89.460913	-41.770528	-42.723581	0.547905	-0.506010	0.666149	-0.482971	0.458849	0.745786	-0.683036	-0.730351	0.007017	0	0	0
58069	0	0	0	0	0	7.324268	6.073474	1.016698	-0.824492	0.168563	-0.381437	-0.300537	-0.740479	-0.410645	0.712059	0.518079	-0.473757	-0.010991	88.905244	-41.551853	-42.599469	0.550867	-0.506539	0.663298	-0.475234	0.462948	0.748219	-0.686074	-0.727391	0.014298	0	0	0
58070	0	0	0	0	0	7.758350	4.934656	1.152180	-0.720563	0.196616	-0.432183	-0.286865	-0.741211	-0.416504	0.714362	0.516533	-0.471903	-0.013727	88.397959	-41.302759	-42.458018	0.554238	-0.507119	0.660038	-0.467895	0.466010	0.750939	-0.688400	-0.725027	0.021002	0	0	0
58071	0	0	0	0	0	8.114169	4.348023	1.122764	-0.526639	0.238534	-0.513678	-0.285889	-0.739014	-0.421631	0.716245	0.515866	-0.469695	-0.016187	87.984746	-41.005585	-42.289844	0.558249	-0.507787	0.656133	-0.461412	0.467240	0.754179	-0.689534	-0.723767	0.026538	0	0	0
58072	0	0	0	0	0	8.287729	3.963611	1.097141	-0.365595	0.304614	-0.606321	-0.278564	-0.733398	-0.421875	0.717850	0.515992	-0.467017	-0.018431	87.635829	-40.652895	-42.077845	0.563112	-0.508415	0.651475	-0.455492	0.466825	0.758024	-0.689516	-0.723594	0.031296	0	0	0
58073	0	0	0	0	0	7.997904	3.821862	1.061644	-0.229343	0.361236	-0.697501	-0.274414	-0.748779	-0.430420	0.719216	0.516816	-0.463906	-0.020536	87.342821	-40.245949	-41.829951	0.568740	-0.509047	0.646070	-0.449968	0.464959	0.762457	-0.688523	-0.724351	0.035386	0	0	0
58074	0	0	0	0	0	7.186886	4.647616	0.871370	-0.027977	0.394093	-0.773456	-0.263672	-0.745117	-0.431396	0.720117	0.518535	-0.460492	-0.022363	87.155024	-39.793592	-41.564145	0.574894	-0.509771	0.640024	-0.445354	0.461242	0.767408	-0.686409	-0.726215	0.038136	0	0	0
58075	0	0	0	0	0	6.167979	5.881397	0.352776	0.145501	0.398328	-0.833573	-0.256104	-0.745361	-0.421387	0.720557	0.521007	-0.456918	-0.023994	87.069740	-39.306539	-41.300490	0.581300	-0.510693	0.633469	-0.441537	0.455953	0.772756	-0.683473	-0.728903	0.039555	0	0	0
58076	0	0	0	0	0	5.572106	7.050134	0.164219	0.184178	0.374395	-0.872767	-0.249268	-0.750732	-0.427734	0.720820	0.523693	-0.453322	-0.025742	87.022106	-38.797220	-41.058720	0.587672	-0.511914	0.626566	-0.437693	0.450166	0.778316	-0.680489	-0.731638	0.040489	0	0	0
58077	0	0	0	0	0	5.583882	7.470165	-0.236140	0.131152	0.346684	-0.894455	-0.244629	-0.751221	-0.435303	0.721140	0.526221	-0.449753	-0.027757	86.960378	-38.276470	-40.840253	0.593904	-0.513373	0.619457	-0.433305	0.444642	0.783926	-0.677883	-0.733991	0.041627	0	0	0
58078	0	0	0	0	0	5.980518	7.002480	-0.496753	0.015701	0.313200	-0.916435	-0.240479	-0.753418	-0.430908	0.721669	0.528366	-0.446219	-0.030202	86.851186	-37.743604	-40.649691	0.599953	-0.515125	0.612129	-0.427942	0.439834	0.789564	-0.675960	-0.735657	0.043436	0	0	0
58079	0	0	0	0	0	6.552904	6.110759	-0.719015	-0.065362	0.284356	-0.958493	-0.232422	-0.752930	-0.434326	0.722324	0.530294	-0.442656	-0.033052	86.712367	-37.187616	-40.484331	0.605927	-0.517224	0.604427	-0.421728	0.435391	0.795349	-0.674536	-0.736827	0.045687	0	0	0
58080	0	0	0	0	0	7.271638	5.225838	-1.011134	-0.068999	0.248986	-1.039302	-0.219238	-0.770020	-0.430908	0.722877	0.532369	-0.438993	-0.036297	86.591737	-36.585961	-40.350622	0.611936	-0.519889	0.596028	-0.414936	0.430531	0.801543	-0.673322	-0.737806	0.047736	0	0	0
58081	0	0	0	0	0	7.714929	4.622183	-0.873976	-0.045503	0.237188	-1.137910	-0.208008	-0.760498	-0.434082	0.723301	0.534726	-0.435102	-0.039875	86.494700	-35.928483	-40.231875	0.618193	-0.523003	0.586775	-0.407638	0.424956	0.808235	-0.672063	-0.738837	0.049509	0	0	0
58082	0	0	0	0	0	7.093654	5.745066	-0.244672	0.000188	0.209948	-1.225543	-0.195068	-0.764404	-0.434814	0.723500	0.537415	-0.431067	-0.043744	86.439536	-35.221359	-40.138311	0.624535	-0.526622	0.576737	-0.400026	0.418543	0.815353	-0.670772	-0.739926	0.050733	0	0	0
58083	0	0	0	0	0	6.682438	7.294513	-0.206100	0.051404	0.180976	-1.302629	-0.180664	-0.769043	-0.427490	0.723453	0.540426	-0.426925	-0.047855	86.428923	-34.471565	-40.069471	0.630890	-0.530684	0.565997	-0.392202	0.411300	0.822806	-0.669445	-0.741085	0.051350	0	0	0
58084	0	0	0	0	0	6.711583	7.762915	0.133650	-0.126061	0.186990	-1.363184	-0.160400	-0.772949	-0.428955	0.723851	0.542902	-0.422535	-0.052548	86.317412	-33.686445	-40.000864	0.637406	-0.534864	0.554648	-0.382716	0.404993	0.830367	-0.668761	-0.741554	0.053444	0	0	0
58085	0	0	0	0	0	6.778005	7.328127	0.553552	-0.317531	0.185513	-1.418450	-0.160400	-0.772949	-0.435059	0.724715	0.544773	-0.417929	-0.057844	86.100795	-32.870074	-39.938955	0.643978	-0.539194	0.542736	-0.371513	0.399753	0.837959	-0.668783	-0.741261	0.057115	0	0	0
58086	0	0	0	0	0	6.934424	6.643552	0.726026	-0.342508	0.204481	-1.455319	-0.151855	-0.769775	-0.442383	0.725635	0.546607	-0.413123	-0.063274	85.866964	-32.031224	-39.870473	0.650651	-0.543460	0.530381	-0.359804	0.394434	0.845554	-0.668725	-0.740995	0.061100	0	0	0
58087	0	0	0	0	0	7.052171	6.007364	0.706399	-0.239582	0.232512	-1.499606	-0.136230	-0.782227	-0.442139	0.726276	0.548882	-0.408105	-0.068568	85.686498	-31.166189	-39.789422	0.657498	-0.547601	0.517522	-0.348404	0.388054	0.853246	-0.668065	-0.741315	0.064358	0	0	0
58088	0	0	0	0	0	7.534976	5.495273	0.684533	-0.126872	0.260585	-1.575467	-0.114990	-0.772217	-0.445313	0.726595	0.551698	-0.402788	-0.073830	85.565828	-30.255904	-39.697126	0.664622	-0.551724	0.503863	-0.337145	0.380356	0.861198	-0.666791	-0.742247	0.066782	0	0	0
58089	0	0	0	0	0	7.528393	5.145150	0.677030	-0.029983	0.328738	-1.661247	-0.108398	-0.786865	-0.450684	0.726703	0.555026	-0.396997	-0.079011	85.483283	-29.293998	-39.566939	0.672301	-0.555523	0.489291	-0.325852	0.371407	0.869412	-0.664704	-0.743943	0.068679	0	0	0
58090	0	0	0	0	0	5.940966	6.221974	1.109515	0.079792	0.375690	-1.705834	-0.091309	-0.782959	-0.440674	0.726528	0.558819	-0.390924	-0.084005	85.453022	-28.303825	-39.410965	0.680243	-0.558976	0.474147	-0.314848	0.361328	0.877675	-0.661922	-0.746316	0.069799	0	0	0
58091	0	0	0	0	0	4.417071	7.840078	0.875213	0.276850	0.385895	-1.730186	-0.072510	-0.786621	-0.438232	0.725755	0.563336	-0.384801	-0.088662	85.536017	-27.299981	-39.250352	0.688135	-0.562237	0.458649	-0.304850	0.349584	0.885922	-0.658435	-0.749453	0.069163	0	0	0
58092	0	0	0	0	0	3.792542	9.042957	0.849627	0.237786	0.405114	-1.723031	-0.063965	-0.792236	-0.438965	0.725075	0.567661	-0.378577	-0.093312	85.593431	-26.298913	-39.077375	0.695945	-0.565123	0.443054	-0.294491	0.338108	0.893845	-0.654932	-0.752542	0.068881	0	0	0
58093	0	0	0	0	0	2.973621	9.230384	0.955911	0.071606	0.432987	-1.704474	-0.043945	-0.797363	-0.439453	0.724871	0.571316	-0.372200	-0.098117	85.550817	-25.307861	-38.886904	0.703680	-0.567533	0.427482	-0.283043	0.327941	0.901300	-0.651706	-0.755222	0.070130	0	0	0
58094	0	0	0	0	0	2.427535	9.091305	0.771735	0.014551	0.433456	-1.679290	-0.028320	-0.798828	-0.429443	0.724788	0.574676	-0.365835	-0.102934	85.478919	-24.330373	-38.697759	0.711139	-0.569684	0.411997	-0.271262	0.318304	0.908350	-0.648613	-0.757722	0.071825	0	0	0
58095	0	0	0	0	0	2.292310	8.985032	0.640202	0.016470	0.420129	-1.634807	-0.011475	-0.797852	-0.440430	0.724645	0.577911	-0.359622	-0.107612	85.414584	-23.379293	-38.517204	0.718183	-0.571621	0.396816	-0.259698	0.308877	0.914960	-0.645578	-0.760161	0.073382	0	0	0
58096	0	0	0	0	0	2.627087	8.654470	0.602002	-0.005983	0.397871	-1.606679	0.006348	-0.791260	-0.435791	0.724491	0.580963	-0.353532	-0.112291	85.345900	-22.444516	-38.351744	0.724812	-0.573485	0.381789	-0.248071	0.299745	0.921202	-0.642735	-0.762409	0.074994	0	0	0
58097	0	0	0	0	0	3.352861	8.280148	0.467411	-0.004633	0.379437	-1.604529	0.017090	-0.800049	-0.447998	0.724254	0.583965	-0.347494	-0.117000	85.285522	-21.512229	-38.199557	0.731118	-0.575324	0.366700	-0.236374	0.290591	0.927192	-0.639995	-0.764565	0.076465	0	0	0
58098	0	0	0	0	0	4.059437	7.714586	0.283980	-0.026951	0.368963	-1.619881	0.039551	-0.801025	-0.439453	0.724004	0.586869	-0.341410	-0.121831	85.218007	-20.570946	-38.056865	0.737193	-0.577137	0.351367	-0.224313	0.281485	0.932979	-0.637362	-0.766602	0.078049	0	0	0
58099	0	0	0	0	0	3.677483	7.742496	0.534003	-0.001916	0.379199	-1.636378	0.051514	-0.803467	-0.436035	0.723639	0.589855	-0.335234	-0.126635	85.165854	-19.620198	-37.910507	0.743163	-0.578756	0.335784	-0.212202	0.272070	0.938588	-0.634570	-0.768778	0.079379	0	0	0
58100	0	0	0	0	0	2.075020	8.662798	0.653873	0.070422	0.365439	-1.653114	0.069824	-0.801270	-0.435303	0.722974	0.593081	-0.329079	-0.131416	85.160903	-18.659907	-37.774903	0.748874	-0.580361	0.319950	-0.200320	0.261969	0.944057	-0.631711	-0.771073	0.079923	0	0	0
58101	0	0	0	0	0	1.160972	9.917036	0.188486	0.235409	0.317220	-1.636165	0.084229	-0.799561	-0.427979	0.721702	0.596802	-0.323235	-0.135992	85.261374	-17.712292	-37.667130	0.754051	-0.582106	0.304237	-0.189522	0.250668	0.949340	-0.628879	-0.773510	0.078694	0	0	0
58102	0	0	0	0	0	1.274137	10.265480	0.957377	-0.042131	0.298254	-1.576966	0.091797	-0.798828	-0.426270	0.721217	0.599372	-0.317423	-0.140856	85.207023	-16.798837	-37.568114	0.758804	-0.583685	0.289012	-0.177334	0.241825	0.953978	-0.626713	-0.775134	0.079990	0	0	0
58103	0	0	0	0	0	1.269059	9.943316	0.858723	-0.241039	0.266211	-1.575657	0.114746	-0.806152	-0.439209	0.721234	0.601162	-0.311573	-0.146113	85.046198	-15.888060	-37.490165	0.763146	-0.585375	0.273759	-0.163848	0.234511	0.958206	-0.625109	-0.776106	0.083054	0	0	0
58104	0	0	0	0	0	0.982966	9.718787	0.885480	-0.299286	0.295424	-1.538602	0.127197	-0.795410	-0.436768	0.721450	0.602667	-0.305664	-0.151234	84.848931	-14.996182	-37.396474	0.767395	-0.586643	0.258755	-0.150211	0.227842	0.962042	-0.623331	-0.777134	0.086724	0	0	0
58105	0	0	0	0	0	0.383507	9.715845	1.181111	-0.281802	0.302070	-1.487819	0.133301	-0.798340	-0.442139	0.721619	0.604125	-0.299880	-0.156112	84.662264	-14.133145	-37.299408	0.771401	-0.587638	0.244176	-0.137023	0.221325	0.965526	-0.621422	-0.778266	0.090211	0	0	0
58106	0	0	0	0	0	0.553494	9.526008	1.098998	-0.244650	0.309470	-1.448448	0.150879	-0.794189	-0.437256	0.721675	0.605629	-0.294199	-0.160766	84.497465	-13.291369	-37.199074	0.775203	-0.588391	0.229903	-0.124309	0.214736	0.968729	-0.619360	-0.779541	0.093321	0	0	0
58107	0	0	0	0	0	1.030845	8.988150	1.270685	-0.260793	0.319063	-1.426469	0.161621	-0.793945	-0.435791	0.721773	0.607016	-0.288521	-0.165321	84.323947	-12.461778	-37.094596	0.778849	-0.588923	0.215788	-0.111625	0.208401	0.971653	-0.617199	-0.780858	0.096574	0	0	0
58108	0	0	0	0	0	0.881459	8.662630	1.461309	-0.193666	0.359101	-1.413364	0.174316	-0.788574	-0.450195	0.721695	0.608627	-0.282777	-0.169606	84.185889	-11.636618	-36.968821	0.782541	-0.589020	0.201704	-0.099404	0.201613	0.974408	-0.614612	-0.782565	0.099219	0	0	0
58109	0	0	0	0	0	0.726163	8.916262	1.201578	-0.019350	0.369036	-1.402291	0.189209	-0.791748	-0.441895	0.721072	0.610827	-0.277166	-0.173562	84.148526	-10.817453	-36.838105	0.786111	-0.588902	0.187681	-0.088299	0.193533	0.977112	-0.611746	-0.784691	0.100138	0	0	0
58110	0	0	0	0	0	0.560859	9.255426	1.329893	0.065073	0.382871	-1.384293	0.196289	-0.786865	-0.445068	0.720189	0.613288	-0.271616	-0.177288	84.159834	-10.007260	-36.699016	0.789587	-0.588519	0.173773	-0.077796	0.184894	0.979674	-0.608687	-0.787057	0.100206	0	0	0
58111	0	0	0	0	0	0.479052	9.618405	1.180572	0.113716	0.377221	-1.369001	0.219238	-0.782471	-0.437256	0.719126	0.615865	-0.266165	-0.180898	84.201298	-9.206603	-36.562094	0.792865	-0.588020	0.159995	-0.067667	0.175972	0.982067	-0.605629	-0.789472	0.099732	0	0	0
58112	0	0	0	0	0	0.535433	9.768172	1.295595	0.064538	0.375621	-1.351290	0.224121	-0.773926	-0.440918	0.718192	0.618211	-0.260714	-0.184509	84.216457	-8.415772	-36.425130	0.795969	-0.587378	0.146355	-0.057328	0.167543	0.984197	-0.602616	-0.791780	0.099685	0	0	0
58113	0	0	0	0	0	0.756616	9.770023	1.102412	0.025581	0.363216	-1.334883	0.237061	-0.783447	-0.439941	0.717343	0.620354	-0.255312	-0.188137	84.212007	-7.635430	-36.294395	0.798840	-0.586686	0.132869	-0.046850	0.159531	0.986081	-0.599716	-0.793946	0.099954	0	0	0
58114	0	0	0	0	0	1.020933	9.854849	1.046905	0.007195	0.340323	-1.326615	0.250244	-0.780762	-0.432373	0.716495	0.622370	-0.249987	-0.191826	84.200460	-6.860700	-36.176838	0.801419	-0.586053	0.119456	-0.036284	0.151718	0.987758	-0.597002	-0.795942	0.100325	0	0	0
58115	0	0	0	0	0	0.731258	9.794159	1.176442	-0.071263	0.340207	-1.319850	0.253662	-0.773926	-0.434570	0.715865	0.624066	-0.244598	-0.195576	84.145527	-6.090164	-36.059439	0.803844	-0.585302	0.106093	-0.025278	0.144583	0.989170	-0.594302	-0.797820	0.101426	0	0	0
58116	0	0	0	0	0	0.339707	9.918781	1.062769	-0.099794	0.298391	-1.316500	0.285645	-0.775635	-0.435547	0.715243	0.625588	-0.239328	-0.199474	84.078312	-5.323473	-35.966943	0.805865	-0.584785	0.092779	-0.014097	0.137700	0.990374	-0.591931	-0.799415	0.102724	0	0	0
58117	0	0	0	0	0	0.151750	9.966944	1.058577	-0.123098	0.262874	-1.305871	0.282227	-0.765869	-0.435547	0.714630	0.626949	-0.234186	-0.203460	84.000715	-4.565225	-35.895062	0.807522	-0.584442	0.079594	-0.002847	0.131078	0.991368	-0.589831	-0.800778	0.104184	0	0	0
58118	0	0	0	0	0	-0.156120	9.817913	1.151753	-0.177451	0.237177	-1.293261	0.301270	-0.769775	-0.428467	0.714138	0.628048	-0.229108	-0.207540	83.894074	-3.815212	-35.838548	0.808874	-0.584206	0.066539	0.008643	0.124966	0.992123	-0.587919	-0.801927	0.106131	0	0	0
58119	0	0	0	0	0	-0.454626	9.891853	1.125861	-0.185164	0.204373	-1.274932	0.317139	-0.762939	-0.437012	0.713621	0.629036	-0.224188	-0.211654	83.784845	-3.077924	-35.800946	0.809884	-0.584127	0.053694	0.020037	0.119031	0.992688	-0.586248	-0.802887	0.108106	0	0	0
58120	0	0	0	0	0	-0.333888	9.837919	1.073817	-0.179234	0.170010	-1.265177	0.319580	-0.751709	-0.439941	0.713027	0.629973	-0.219417	-0.215830	83.680504	-2.347902	-35.783872	0.810547	-0.584238	0.040967	0.031331	0.113103	0.993089	-0.584834	-0.803662	0.109980	0	0	0
58121	0	0	0	0	0	-0.132694	9.726834	0.950645	-0.165623	0.147695	-1.253352	0.326172	-0.753174	-0.444336	0.712350	0.630895	-0.214770	-0.220006	83.584588	-1.626353	-35.779909	0.810942	-0.584438	0.028381	0.042448	0.107138	0.993338	-0.583585	-0.804335	0.111691	0	0	0
58122	0	0	0	0	0	-0.273183	9.544405	0.931143	-0.146290	0.138719	-1.235672	0.341064	-0.745117	-0.437500	0.711593	0.631832	-0.210222	-0.224122	83.499960	-0.915092	-35.781194	0.811152	-0.584617	0.015971	0.053316	0.101115	0.993445	-0.582400	-0.804984	0.113189	0	0	0
58123	0	0	0	0	0	-0.862410	9.701980	1.248219	-0.166336	0.134185	-1.221782	0.350586	-0.742920	-0.439209	0.710883	0.632653	-0.205705	-0.228212	83.403812	-0.212379	-35.785144	0.811210	-0.584743	0.003707	0.064184	0.095338	0.993374	-0.581222	-0.805597	0.114870	0	0	0
58124	0	0	0	0	0	-1.540592	10.149262	1.171701	-0.147190	0.104975	-1.202310	0.362305	-0.738281	-0.441650	0.710077	0.633466	-0.201366	-0.232299	83.318591	0.477652	-35.805671	0.810978	-0.585018	-0.008337	0.074783	0.089515	0.993174	-0.580278	-0.806065	0.116344	0	0	0
58125	0	0	0	0	0	-1.554170	10.305994	1.163449	-0.164690	0.085839	-1.159210	0.369873	-0.736816	-0.448486	0.709333	0.634128	-0.197205	-0.236301	83.222927	1.141526	-35.835164	0.810544	-0.585339	-0.019922	0.085126	0.084087	0.992816	-0.579459	-0.806416	0.117983	0	0	0
58126	0	0	0	0	0	-1.619623	10.224346	1.206608	-0.204159	0.081546	-1.114177	0.379395	-0.736572	-0.440186	0.708739	0.634580	-0.193148	-0.240191	83.104343	1.779747	-35.865397	0.810005	-0.585600	-0.031057	0.095329	0.079233	0.992288	-0.578623	-0.806718	0.120004	0	0	0
58127	0	0	0	0	0	-1.619402	10.233888	1.250655	-0.226728	0.080256	-1.079668	0.384521	-0.733643	-0.446289	0.708235	0.634897	-0.189173	-0.243974	82.972459	2.397901	-35.895265	0.809381	-0.585792	-0.041839	0.105371	0.074765	0.991618	-0.577754	-0.807005	0.122239	0	0	0
58128	0	0	0	0	0	-1.533491	10.244080	1.352594	-0.232678	0.078183	-1.061996	0.393555	-0.720215	-0.443848	0.707747	0.635155	-0.185247	-0.247702	82.836827	3.006071	-35.926627	0.808655	-0.585941	-0.052442	0.115299	0.070445	0.990830	-0.576874	-0.807286	0.124524	0	0	0
58129	0	0	0	0	0	-1.299824	10.228376	1.353697	-0.204454	0.074048	-1.035938	0.402832	-0.714355	-0.447510	0.707179	0.635464	-0.181449	-0.251315	82.716884	3.598804	-35.959740	0.807834	-0.586059	-0.062770	0.124841	0.066051	0.989976	-0.576038	-0.807572	0.126522	0	0	0
58130	0	0	0	0	0	-1.096340	10.024774	1.585321	-0.210242	0.091042	-1.008646	0.409912	-0.719482	-0.453369	0.706658	0.635733	-0.177665	-0.254779	82.594039	4.177458	-35.982550	0.807046	-0.585978	-0.072846	0.134188	0.061862	0.989023	-0.575039	-0.807962	0.128556	0	0	0
58131	0	0	0	0	0	-1.069994	9.806574	1.653139	-0.186714	0.111840	-0.984966	0.417236	-0.700439	-0.444824	0.706094	0.636074	-0.173909	-0.258063	82.485362	4.743914	-35.992836	0.806319	-0.585671	-0.082702	0.143196	0.057627	0.988015	-0.573886	-0.808498	0.130331	0	0	0
58132	0	0	0	0	0	-1.246722	9.852397	1.698258	-0.148109	0.125405	-0.963550	0.423828	-0.696045	-0.447510	0.705429	0.636535	-0.170217	-0.261190	82.399488	5.299456	-35.994836	0.805612	-0.585200	-0.092361	0.151804	0.053207	0.986977	-0.572665	-0.809141	0.131700	0	0	0
58133	0	0	0	0	0	-1.628520	9.888793	1.662030	-0.085151	0.148019	-0.936941	0.437988	-0.700928	-0.451904	0.704601	0.637209	-0.166610	-0.264090	82.350993	5.841363	-35.982463	0.804995	-0.584487	-0.101775	0.159827	0.048443	0.985956	-0.571348	-0.809956	0.132413	0	0	0
58134	0	0	0	0	0	-1.997566	10.202032	1.520559	-0.012285	0.157544	-0.908553	0.443359	-0.691406	-0.446289	0.703570	0.638115	-0.163151	-0.266795	82.345205	6.368122	-35.962813	0.804404	-0.583637	-0.110916	0.167201	0.043259	0.984973	-0.570068	-0.810862	0.132382	0	0	0
58135	0	0	0	0	0	-2.155601	10.206335	1.337312	0.017773	0.174008	-0.870845	0.454346	-0.698730	-0.450684	0.702494	0.639105	-0.159792	-0.269284	82.358174	6.874501	-35.930715	0.803906	-0.582588	-0.119695	0.174093	0.038063	0.983993	-0.568706	-0.811876	0.132024	0	0	0
58136	0	0	0	0	0	-2.214258	10.146742	1.312055	0.020770	0.196722	-0.823862	0.454834	-0.691895	-0.449219	0.701476	0.640086	-0.156504	-0.271528	82.375279	7.356141	-35.881935	0.803558	-0.581293	-0.128036	0.180590	0.033123	0.983001	-0.567170	-0.813020	0.131592	0	0	0
58137	0	0	0	0	0	-2.317714	10.187686	1.243369	0.007506	0.216786	-0.798256	0.459229	-0.690186	-0.444336	0.700539	0.641017	-0.153207	-0.273623	82.386918	7.824552	-35.819445	0.803316	-0.579784	-0.136140	0.186951	0.028454	0.981957	-0.565449	-0.814273	0.131249	0	0	0
58138	0	0	0	0	0	-2.381910	10.294847	1.092655	0.016571	0.213397	-0.772563	0.469238	-0.685791	-0.445801	0.699593	0.641945	-0.150013	-0.275629	82.404345	8.278298	-35.756821	0.803049	-0.578258	-0.143981	0.193056	0.023869	0.980897	-0.563775	-0.815505	0.130804	0	0	0
58139	0	0	0	0	0	-2.339535	10.287928	1.106882	0.008152	0.213950	-0.735224	0.467285	-0.676025	-0.437256	0.698716	0.642807	-0.146925	-0.277504	82.417863	8.710685	-35.690759	0.802810	-0.576681	-0.151445	0.198904	0.019583	0.979823	-0.562080	-0.816735	0.130425	0	0	0
58140	0	0	0	0	0	-2.512071	10.209217	1.104261	-0.037550	0.213414	-0.696765	0.485352	-0.666504	-0.449951	0.698029	0.643471	-0.143895	-0.279276	82.406159	9.121366	-35.622048	0.802598	-0.575071	-0.158526	0.204701	0.015900	0.978695	-0.560299	-0.817949	0.130479	0	0	0
58141	0	0	0	0	0	-2.437018	10.290033	1.015006	-0.024979	0.195459	-0.658696	0.485840	-0.680908	-0.448486	0.697333	0.644118	-0.141067	-0.280960	82.400876	9.508919	-35.560673	0.802323	-0.573574	-0.165201	0.210118	0.012347	0.977598	-0.558685	-0.819061	0.130424	0	0	0
58142	0	0	0	0	0	-2.254964	10.395914	0.959584	0.005145	0.193463	-0.619713	0.486572	-0.678711	-0.440186	0.696585	0.644833	-0.138412	-0.282492	82.413634	9.874335	-35.497422	0.802081	-0.572064	-0.171488	0.215053	0.008778	0.976563	-0.557152	-0.820162	0.130065	0	0	0
58143	0	0	0	0	0	-2.322953	10.443761	1.041179	0.003181	0.213186	-0.591063	0.498779	-0.664795	-0.437500	0.695891	0.645542	-0.135777	-0.283857	82.428003	10.224811	-35.420386	0.801980	-0.570367	-0.177511	0.219767	0.005401	0.975537	-0.555456	-0.821372	0.129679	0	0	0
58144	0	0	0	0	0	-2.201853	10.260017	0.951006	0.014724	0.207612	-0.561165	0.496094	-0.672607	-0.436279	0.695192	0.646258	-0.133273	-0.285127	82.449355	10.558005	-35.344136	0.801882	-0.568692	-0.183231	0.224179	0.002107	0.974546	-0.553831	-0.822548	0.129178	0	0	0
58145	0	0	0	0	0	-2.182395	10.199165	1.121231	0.007827	0.209966	-0.527184	0.502930	-0.660645	-0.444580	0.694559	0.646925	-0.130859	-0.286272	82.467912	10.871916	-35.263679	0.801849	-0.566978	-0.188614	0.228354	-0.000926	0.973578	-0.552172	-0.823733	0.128729	0	0	0
58146	0	0	0	0	0	-2.367748	10.332451	1.025377	0.035011	0.197886	-0.499268	0.508789	-0.664307	-0.441895	0.693865	0.647646	-0.128615	-0.287340	82.501620	11.169161	-35.187900	0.801787	-0.565345	-0.193706	0.232157	-0.004019	0.972670	-0.550673	-0.824845	0.128026	0	0	0
58147	0	0	0	0	0	-2.398201	10.528122	0.877298	0.055670	0.163542	-0.471862	0.519043	-0.658203	-0.434814	0.693117	0.648367	-0.126609	-0.288409	82.544067	11.448100	-35.129616	0.801581	-0.563980	-0.198480	0.235625	-0.007118	0.971818	-0.549499	-0.825758	0.127182	0	0	0
58148	0	0	0	0	0	-2.335913	10.503163	0.941319	0.034211	0.143339	-0.437349	0.517822	-0.652100	-0.429688	0.692471	0.648959	-0.124752	-0.289436	82.572739	11.706023	-35.080242	0.801328	-0.562770	-0.202890	0.238935	-0.009842	0.970986	-0.548438	-0.826555	0.126579	0	0	0
58149	0	0	0	0	0	-2.438159	10.481018	1.086426	-0.015721	0.141465	-0.415827	0.532227	-0.654053	-0.429932	0.692014	0.649359	-0.122899	-0.290424	82.573127	11.951447	-35.030180	0.801100	-0.561565	-0.207083	0.242344	-0.012025	0.970116	-0.547274	-0.827345	0.126459	0	0	0
58150	0	0	0	0	0	-2.451321	10.409644	1.076942	-0.044344	0.120718	-0.398176	0.527100	-0.657715	-0.436279	0.691659	0.649615	-0.121132	-0.291435	82.555102	12.185433	-34.990864	0.800786	-0.560526	-0.211076	0.245768	-0.013869	0.969229	-0.546206	-0.828021	0.126653	0	0	0
58151	0	0	0	0	0	-2.272515	10.173355	1.118936	-0.051030	0.119857	-0.375562	0.531494	-0.646973	-0.433105	0.691356	0.649832	-0.119433	-0.292372	82.533634	12.406403	-34.950343	0.800509	-0.559489	-0.214844	0.249045	-0.015525	0.968368	-0.545126	-0.828692	0.126910	0	0	0
58152	0	0	0	0	0	-2.319930	9.953581	1.187631	-0.051209	0.121853	-0.362650	0.533936	-0.649658	-0.428955	0.691071	0.650040	-0.117767	-0.293259	82.512683	12.620319	-34.907758	0.800261	-0.558431	-0.218489	0.252219	-0.017105	0.967519	-0.544030	-0.829375	0.127158	0	0	0
58153	0	0	0	0	0	-2.348917	9.811313	1.188267	-0.037093	0.106457	-0.341385	0.528076	-0.655762	-0.430908	0.690759	0.650259	-0.116244	-0.294111	82.498337	12.820901	-34.872511	0.799972	-0.557498	-0.221904	0.255143	-0.018678	0.966723	-0.543090	-0.829968	0.127300	0	0	0
58154	0	0	0	0	0	-2.473113	9.828749	1.224748	-0.027716	0.106868	-0.319768	0.534424	-0.640381	-0.441406	0.690447	0.650498	-0.114803	-0.294883	82.489911	13.009357	-34.835410	0.799729	-0.556560	-0.225110	0.257844	-0.020206	0.965975	-0.542171	-0.830562	0.127346	0	0	0
58155	0	0	0	0	0	-2.605153	9.922672	1.114861	-0.004322	0.111631	-0.308141	0.544189	-0.651367	-0.427979	0.690077	0.650815	-0.113418	-0.295583	82.495836	13.191453	-34.794584	0.799534	-0.555579	-0.228206	0.260322	-0.021859	0.965274	-0.541274	-0.831177	0.127152	0	0	0
58156	0	0	0	0	0	-2.596806	9.957590	1.099298	0.001306	0.108042	-0.298490	0.547363	-0.644043	-0.432129	0.689699	0.651140	-0.112084	-0.296259	82.504819	13.367906	-34.755088	0.799336	-0.554624	-0.231203	0.262694	-0.023504	0.964593	-0.540421	-0.831769	0.126909	0	0	0
58157	0	0	0	0	0	-2.735778	9.909990	1.233264	-0.052856	0.127621	-0.274243	0.547119	-0.647705	-0.431641	0.689543	0.651291	-0.110682	-0.296816	82.485979	13.531947	-34.702250	0.799299	-0.553507	-0.233988	0.265163	-0.024560	0.963891	-0.539268	-0.832482	0.127139	0	0	0
58158	0	0	0	0	0	-2.879190	9.888642	1.302404	-0.067563	0.114820	-0.264036	0.545898	-0.636230	-0.435059	0.689441	0.651366	-0.109335	-0.297388	82.457274	13.689357	-34.656167	0.799212	-0.552497	-0.236658	0.267629	-0.025435	0.963186	-0.538177	-0.833127	0.127537	0	0	0
58159	0	0	0	0	0	-2.914852	9.941145	1.394692	-0.106147	0.092369	-0.248858	0.547852	-0.639648	-0.434814	0.689473	0.651265	-0.108057	-0.298001	82.403717	13.836389	-34.622095	0.799038	-0.551675	-0.239150	0.270180	-0.025900	0.962461	-0.537160	-0.833657	0.128356	0	0	0
58160	0	0	0	0	0	-2.900026	9.903367	1.476369	-0.119143	0.062290	-0.239060	0.559814	-0.644531	-0.431641	0.689545	0.651067	-0.106895	-0.298685	82.338721	13.975698	-34.605013	0.798722	-0.551104	-0.241510	0.272722	-0.026202	0.961736	-0.536345	-0.834025	0.129370	0	0	0
58161	0	0	0	0	0	-2.988337	9.718173	1.624572	-0.129740	0.034913	-0.222558	0.555176	-0.638428	-0.433838	0.689660	0.650782	-0.105865	-0.299405	82.264077	14.103472	-34.602792	0.798298	-0.550766	-0.243674	0.275186	-0.026322	0.961031	-0.535717	-0.834244	0.130550	0	0	0
58162	0	0	0	0	0	-3.116424	9.690271	1.762313	-0.135191	-0.014988	-0.214722	0.554688	-0.636963	-0.432861	0.689777	0.650399	-0.105024	-0.300264	82.179278	14.223015	-34.629364	0.797622	-0.550846	-0.245697	0.277616	-0.026355	0.960331	-0.535470	-0.834190	0.131903	0	0	0
58163	0	0	0	0	0	-3.171315	9.755993	1.685862	-0.118439	-0.065199	-0.200777	0.550781	-0.634033	-0.435791	0.689833	0.649989	-0.104427	-0.301229	82.096990	14.330602	-34.684390	0.796712	-0.551349	-0.247517	0.279843	-0.026450	0.959681	-0.535666	-0.833856	0.133218	0	0	0
58164	0	0	0	0	0	-3.207225	9.737572	1.946011	-0.146162	-0.110070	-0.187989	0.551025	-0.627930	-0.441650	0.689974	0.649409	-0.103984	-0.302310	81.992420	14.427356	-34.764879	0.795592	-0.552228	-0.249152	0.282115	-0.026246	0.959021	-0.536138	-0.833280	0.134911	0	0	0
58165	0	0	0	0	0	-3.118518	9.726514	1.847260	-0.139348	-0.145142	-0.176117	0.555664	-0.635254	-0.446289	0.690092	0.648791	-0.103711	-0.303459	81.886656	14.514364	-34.865132	0.794314	-0.553402	-0.250623	0.284255	-0.026035	0.958395	-0.536903	-0.832507	0.136628	0	0	0
58166	0	0	0	0	0	-2.893298	9.611559	1.993928	-0.161781	-0.165321	-0.163459	0.553711	-0.625488	-0.442627	0.690289	0.648058	-0.103514	-0.304641	81.765171	14.592406	-34.976375	0.792957	-0.554747	-0.251941	0.286414	-0.025572	0.957765	-0.537760	-0.831626	0.138610	0	0	0
58167	0	0	0	0	0	-2.638070	9.467929	1.932935	-0.180384	-0.179372	-0.157534	0.562988	-0.625000	-0.441406	0.690547	0.647235	-0.103357	-0.305857	81.630833	14.665650	-35.095549	0.791537	-0.556210	-0.253178	0.288626	-0.024924	0.957117	-0.538668	-0.830668	0.140809	0	0	0
58168	0	0	0	0	0	-2.404582	9.345082	1.915233	-0.135561	-0.184820	-0.146598	0.560547	-0.624023	-0.448730	0.690673	0.646551	-0.103321	-0.307030	81.521462	14.732029	-35.217178	0.790115	-0.557719	-0.254299	0.290509	-0.024592	0.956556	-0.539744	-0.829665	0.142592	0	0	0
58169	0	0	0	0	0	-2.315844	9.289368	1.962360	-0.119046	-0.171099	-0.131490	0.556641	-0.623779	-0.448242	0.690774	0.645937	-0.103313	-0.308097	81.423709	14.790763	-35.329584	0.788806	-0.559117	-0.255290	0.292183	-0.024315	0.956053	-0.540753	-0.828732	0.144185	0	0	0
58170	0	0	0	0	0	-2.105096	9.377547	1.929668	-0.104556	-0.152534	-0.122022	0.550781	-0.625977	-0.445557	0.690852	0.645395	-0.103293	-0.309063	81.337178	14.845591	-35.430412	0.787621	-0.560363	-0.256215	0.293704	-0.024109	0.955592	-0.541656	-0.827896	0.145592	0	0	0
58171	0	0	0	0	0	-2.189692	9.346128	1.849614	-0.079984	-0.117129	-0.115872	0.555420	-0.618164	-0.452148	0.690877	0.644989	-0.103209	-0.309880	81.269993	14.899824	-35.510027	0.786644	-0.561316	-0.257130	0.295042	-0.024073	0.955181	-0.542348	-0.827252	0.146675	0	0	0
58172	0	0	0	0	0	-2.302882	9.384959	1.737033	-0.055247	-0.102864	-0.117619	0.550781	-0.619385	-0.441895	0.690827	0.644691	-0.103107	-0.310645	81.219080	14.956259	-35.581533	0.785737	-0.562149	-0.258082	0.296260	-0.024254	0.954799	-0.542999	-0.826680	0.147485	0	0	0
58173	0	0	0	0	0	-2.428031	9.406481	1.571880	-0.034060	-0.090035	-0.113488	0.560547	-0.614990	-0.446045	0.690722	0.644483	-0.103008	-0.311343	81.182172	15.011369	-35.645190	0.784910	-0.562877	-0.259011	0.297329	-0.024586	0.954459	-0.543611	-0.826175	0.148062	0	0	0
58174	0	0	0	0	0	-2.505451	9.409583	1.436822	-0.030366	-0.092777	-0.103822	0.551025	-0.618896	-0.450195	0.690617	0.644279	-0.102955	-0.312015	81.147214	15.060784	-35.709643	0.784094	-0.563629	-0.259844	0.298302	-0.024897	0.954147	-0.544254	-0.825653	0.148610	0	0	0
58175	0	0	0	0	0	-2.661131	9.362567	1.218715	-0.024739	-0.099918	-0.110651	0.559570	-0.615723	-0.450439	0.690480	0.644086	-0.102914	-0.312729	81.114066	15.113336	-35.778935	0.783218	-0.564437	-0.260729	0.299296	-0.025292	0.953825	-0.544969	-0.825088	0.149125	0	0	0
58176	0	0	0	0	0	-2.923159	9.500669	1.196640	-0.010826	-0.124210	-0.113718	0.549316	-0.615234	-0.447754	0.690280	0.643904	-0.102968	-0.313526	81.085118	15.165496	-35.862820	0.782198	-0.565444	-0.261608	0.300239	-0.025822	0.953515	-0.545914	-0.824382	0.149570	0	0	0
58177	0	0	0	0	0	-3.078372	9.676350	1.305251	-0.058861	-0.153355	-0.114276	0.554932	-0.614502	-0.445068	0.690219	0.643510	-0.103045	-0.314442	81.023979	15.215256	-35.963895	0.781015	-0.566689	-0.262446	0.301447	-0.025959	0.953130	-0.546941	-0.823522	0.150552	0	0	0
58178	0	0	0	0	0	-2.963638	9.684626	1.309405	-0.114837	-0.189692	-0.112392	0.563965	-0.623535	-0.454590	0.690320	0.642865	-0.103166	-0.315498	80.925195	15.260603	-36.086217	0.779636	-0.568233	-0.263210	0.302945	-0.025629	0.952663	-0.548080	-0.822469	0.152162	0	0	0
58179	0	0	0	0	0	-2.848867	9.434617	1.395501	-0.131461	-0.202654	-0.113057	0.554932	-0.616943	-0.452881	0.690467	0.642141	-0.103303	-0.316605	80.814664	15.304888	-36.216301	0.778179	-0.569881	-0.263955	0.304541	-0.025167	0.952167	-0.549265	-0.821342	0.153967	0	0	0
58180	0	0	0	0	0	-2.779381	9.283805	1.457199	-0.109172	-0.220931	-0.113358	0.553955	-0.613525	-0.458252	0.690530	0.641464	-0.103537	-0.317760	80.714018	15.347475	-36.357257	0.776617	-0.571677	-0.264672	0.306015	-0.024895	0.951701	-0.550655	-0.820101	0.155608	0	0	0
58181	0	0	0	0	0	-2.914919	9.254909	1.523759	-0.093438	-0.235435	-0.111503	0.555908	-0.613525	-0.456787	0.690538	0.640816	-0.103852	-0.318947	80.619978	15.387397	-36.506630	0.774975	-0.573590	-0.265344	0.307389	-0.024744	0.951262	-0.552200	-0.818769	0.157140	0	0	0
58182	0	0	0	0	0	-2.756372	9.239385	1.466799	-0.053583	-0.264422	-0.096507	0.545654	-0.611572	-0.469482	0.690425	0.640250	-0.104379	-0.320153	80.544617	15.415950	-36.671635	0.773214	-0.575741	-0.265824	0.308426	-0.024837	0.950924	-0.554088	-0.817255	0.158369	0	0	0
58183	0	0	0	0	0	-2.445997	9.319269	1.479680	-0.038955	-0.244029	-0.083701	0.553955	-0.608887	-0.460938	0.690295	0.639760	-0.104899	-0.321242	80.480986	15.438969	-36.823479	0.771600	-0.577724	-0.266212	0.309282	-0.024977	0.950642	-0.555858	-0.815850	0.159407	0	0	0
58184	0	0	0	0	0	-2.195006	9.265268	1.681442	-0.040795	-0.205801	-0.080974	0.552734	-0.613525	-0.456299	0.690194	0.639322	-0.105293	-0.322199	80.422348	15.463953	-36.952696	0.770202	-0.579393	-0.266632	0.310127	-0.025090	0.950364	-0.557324	-0.814662	0.160361	0	0	0
58185	0	0	0	0	0	-2.170967	9.112500	1.710673	-0.044660	-0.159930	-0.081861	0.555908	-0.608154	-0.467285	0.690128	0.638945	-0.105520	-0.323014	80.368499	15.493662	-37.055144	0.769055	-0.580686	-0.267132	0.311000	-0.025177	0.950076	-0.558421	-0.813739	0.161231	0	0	0
58186	0	0	0	0	0	-2.356230	8.919503	1.731369	-0.002238	-0.106179	-0.079184	0.555420	-0.614502	-0.476563	0.689958	0.638799	-0.105638	-0.323626	80.347468	15.526993	-37.125862	0.768213	-0.581540	-0.267692	0.311614	-0.025596	0.949864	-0.559236	-0.813115	0.161553	0	0	0
58187	0	0	0	0	0	-2.595820	9.015711	1.672628	0.048449	-0.071440	-0.070187	0.559082	-0.615234	-0.470947	0.689660	0.638879	-0.105747	-0.324069	80.361048	15.558522	-37.175318	0.767594	-0.582114	-0.268222	0.311876	-0.026373	0.949757	-0.559941	-0.812679	0.161304	0	0	0
58188	0	0	0	0	0	-2.768295	9.384936	1.367002	0.104358	-0.067739	-0.060113	0.550781	-0.614258	-0.474854	0.689200	0.639152	-0.105966	-0.324436	80.407577	15.584789	-37.221603	0.767025	-0.582660	-0.268664	0.311746	-0.027548	0.949766	-0.560792	-0.812249	0.160512	0	0	0
58189	0	0	0	0	0	-2.511788	9.526527	1.221431	0.090346	-0.060897	-0.052298	0.547852	-0.610596	-0.464844	0.688802	0.639383	-0.106164	-0.324761	80.447265	15.607279	-37.263077	0.766519	-0.583151	-0.269042	0.311634	-0.028562	0.949773	-0.561545	-0.811862	0.159836	0	0	0
58190	0	0	0	0	0	-2.547485	9.384177	1.321137	0.044437	-0.023126	-0.044879	0.552490	-0.614258	-0.466064	0.688582	0.639514	-0.106180	-0.324964	80.466884	15.629233	-37.281661	0.766248	-0.583337	-0.269411	0.311722	-0.029161	0.949726	-0.561867	-0.811707	0.159494	0	0	0
58191	0	0	0	0	0	-2.673713	9.254113	1.296857	0.075837	-0.009748	-0.041033	0.554688	-0.612793	-0.462646	0.688275	0.639773	-0.106214	-0.325095	80.506634	15.650237	-37.291997	0.766064	-0.583415	-0.269764	0.311603	-0.029991	0.949739	-0.562183	-0.811620	0.158819	0	0	0
58192	0	0	0	0	0	-2.641344	9.283870	1.449469	0.058988	0.005130	-0.040947	0.555420	-0.611328	-0.454834	0.688030	0.639998	-0.106170	-0.325186	80.539163	15.672655	-37.293590	0.765964	-0.583373	-0.270141	0.311579	-0.030686	0.949725	-0.562333	-0.811625	0.158262	0	0	0
58193	0	0	0	0	0	-2.692752	9.382358	1.420522	0.063133	0.024403	-0.036602	0.547363	-0.616211	-0.465332	0.687789	0.640265	-0.106080	-0.325199	80.577175	15.694378	-37.283419	0.765986	-0.583174	-0.270506	0.311498	-0.031387	0.949728	-0.562348	-0.811740	0.157615	0	0	0
58194	0	0	0	0	0	-2.684963	9.515437	1.495335	0.047956	0.039507	-0.035775	0.554932	-0.611084	-0.471436	0.687605	0.640505	-0.105916	-0.325168	80.608991	15.717093	-37.264296	0.766095	-0.582854	-0.270888	0.311496	-0.031962	0.949710	-0.562200	-0.811948	0.157070	0	0	0
58195	0	0	0	0	0	-2.679520	9.544747	1.573548	0.013350	0.049414	-0.031047	0.548828	-0.608154	-0.469482	0.687546	0.640639	-0.105676	-0.325108	80.622624	15.738002	-37.238873	0.766275	-0.582454	-0.271239	0.311652	-0.032227	0.949650	-0.561868	-0.812225	0.156828	0	0	0
58196	0	0	0	0	0	-2.741071	9.409778	1.764657	-0.016705	0.067935	-0.027029	0.556396	-0.614746	-0.460449	0.687598	0.640698	-0.105337	-0.324990	80.622171	15.758418	-37.202188	0.766570	-0.581905	-0.271582	0.311947	-0.032226	0.949553	-0.561301	-0.812618	0.156820	0	0	0
58197	0	0	0	0	0	-2.870892	9.210120	1.770358	-0.014794	0.074747	-0.023785	0.554688	-0.609863	-0.459229	0.687654	0.640772	-0.104989	-0.324839	80.623930	15.777583	-37.161173	0.766914	-0.581301	-0.271904	0.312206	-0.032219	0.949468	-0.560687	-0.813051	0.156776	0	0	0
58198	0	0	0	0	0	-2.960374	9.232199	1.601807	0.047077	0.060869	-0.025673	0.561523	-0.610596	-0.459473	0.687500	0.641038	-0.104782	-0.324706	80.658956	15.796562	-37.128494	0.767174	-0.580809	-0.272223	0.312132	-0.032728	0.949475	-0.560373	-0.813382	0.156181	0	0	0
58199	0	0	0	0	0	-3.094360	9.277122	1.694555	0.065788	0.055524	-0.008448	0.548584	-0.610840	-0.453857	0.687312	0.641350	-0.104679	-0.324521	80.704234	15.805241	-37.097271	0.767457	-0.580366	-0.272368	0.311822	-0.033288	0.949557	-0.560157	-0.813675	0.155424	0	0	0
58200	0	0	0	0	0	-2.931218	9.406137	1.638081	0.043246	0.038123	0.002365	0.556885	-0.611084	-0.465332	0.687205	0.641551	-0.104634	-0.324366	80.734175	15.806222	-37.075237	0.767677	-0.580068	-0.272385	0.311555	-0.033603	0.949634	-0.560005	-0.813875	0.154927	0	0	0
58201	0	0	0	0	0	-2.663739	9.475198	1.579559	0.027575	0.042830	0.006131	0.564697	-0.614746	-0.461914	0.687156	0.641704	-0.104560	-0.324191	80.755907	15.805465	-37.050071	0.767934	-0.579733	-0.272372	0.311348	-0.033767	0.949696	-0.559767	-0.814107	0.154567	0	0	0
58202	0	0	0	0	0	-2.572277	9.486926	1.693442	-0.006652	0.060295	0.005870	0.554932	-0.604736	-0.459961	0.687226	0.641767	-0.104369	-0.323980	80.760900	15.806489	-37.014669	0.768289	-0.579255	-0.272389	0.311333	-0.033656	0.949705	-0.559289	-0.814451	0.154484	0	0	0
58203	0	0	0	0	0	-2.573682	9.406073	1.686685	-0.029666	0.067247	0.004473	0.556152	-0.609375	-0.459961	0.687371	0.641763	-0.104112	-0.323762	80.753698	15.808907	-36.975311	0.768677	-0.578721	-0.272430	0.311459	-0.033364	0.949674	-0.558685	-0.814843	0.154601	0	0	0
58204	0	0	0	0	0	-2.495783	9.368248	1.598125	-0.013977	0.064405	0.004012	0.558105	-0.614990	-0.455811	0.687463	0.641809	-0.103890	-0.323548	80.755106	15.811363	-36.937670	0.769048	-0.578208	-0.272471	0.311499	-0.033204	0.949666	-0.558152	-0.815213	0.154576	0	0	0
58205	0	0	0	0	0	-2.452120	9.331385	1.504162	0.006828	0.064185	0.003068	0.559814	-0.611572	-0.452881	0.687487	0.641926	-0.103698	-0.323326	80.768284	15.814285	-36.900244	0.769414	-0.577698	-0.272520	0.311431	-0.033217	0.949688	-0.557685	-0.815575	0.154355	0	0	0
58206	0	0	0	0	0	-2.547918	9.332228	1.417458	0.009555	0.067920	-0.003640	0.557373	-0.602295	-0.464844	0.687493	0.642062	-0.103477	-0.323114	80.783546	15.821377	-36.861265	0.769780	-0.577154	-0.272639	0.311399	-0.033293	0.949696	-0.557198	-0.815957	0.154097	0	0	0
58207	0	0	0	0	0	-2.705941	9.417731	1.123651	0.053493	0.043454	-0.004619	0.555908	-0.607910	-0.458496	0.687344	0.642310	-0.103407	-0.322961	80.819947	15.826716	-36.836753	0.770007	-0.576809	-0.272729	0.311131	-0.033731	0.949768	-0.557035	-0.816182	0.153490	0	0	0
58208	0	0	0	0	0	-2.816241	9.355332	0.999992	0.055798	0.019440	-0.003746	0.560059	-0.611572	-0.467285	0.687175	0.642527	-0.103427	-0.322881	80.853936	15.829405	-36.826278	0.770102	-0.576661	-0.272774	0.310842	-0.034186	0.949847	-0.557064	-0.816268	0.152924	0	0	0
58209	0	0	0	0	0	-2.960184	9.382697	1.044520	0.031259	-0.006702	0.006561	0.563232	-0.606201	-0.460938	0.687090	0.642611	-0.103530	-0.322862	80.869864	15.823834	-36.830192	0.770084	-0.576729	-0.272680	0.310611	-0.034378	0.949915	-0.557218	-0.816212	0.152664	0	0	0
58210	0	0	0	0	0	-3.071041	9.582654	1.142604	-0.016099	-0.025799	0.003348	0.559326	-0.611084	-0.460938	0.687141	0.642505	-0.103612	-0.322940	80.855589	15.818389	-36.845644	0.769949	-0.576952	-0.272589	0.310668	-0.034205	0.949903	-0.557373	-0.816061	0.152905	0	0	0
58211	0	0	0	0	0	-2.973930	9.653993	1.074174	-0.045862	-0.040925	0.002945	0.562012	-0.614502	-0.461182	0.687279	0.642271	-0.103696	-0.323083	80.821773	15.811752	-36.870020	0.769728	-0.577299	-0.272478	0.310895	-0.033789	0.949844	-0.557550	-0.815833	0.153471	0	0	0
58212	0	0	0	0	0	-2.851950	9.515097	1.219745	-0.066951	-0.043606	0.014026	0.562256	-0.616699	-0.459229	0.687501	0.641955	-0.103791	-0.323208	80.775794	15.798620	-36.894915	0.769527	-0.577671	-0.272257	0.311154	-0.033139	0.949782	-0.557683	-0.815597	0.154243	0	0	0
58213	0	0	0	0	0	-2.827852	9.446637	1.329969	-0.082707	-0.039840	0.019126	0.564209	-0.608154	-0.463379	0.687784	0.641588	-0.103864	-0.323312	80.721492	15.782902	-36.917092	0.769364	-0.578013	-0.271993	0.311461	-0.032330	0.949709	-0.557738	-0.815387	0.155155	0	0	0
58214	0	0	0	0	0	-2.658838	9.597409	1.280308	-0.063397	-0.050235	0.035227	0.562012	-0.605713	-0.464600	0.688025	0.641262	-0.104056	-0.323383	80.677067	15.757127	-36.943814	0.769192	-0.578446	-0.271560	0.311537	-0.031587	0.949709	-0.557933	-0.815109	0.155911	0	0	0
58215	0	0	0	0	0	-2.675868	9.696741	1.340393	-0.054322	-0.030224	0.041801	0.560303	-0.609375	-0.466309	0.688259	0.640996	-0.104214	-0.323363	80.641191	15.729452	-36.958120	0.769152	-0.578717	-0.271095	0.311512	-0.030878	0.949740	-0.558001	-0.814944	0.156527	0	0	0
58216	0	0	0	0	0	-2.549837	9.608172	1.336284	-0.049253	-0.023054	0.058644	0.554688	-0.607178	-0.458252	0.688506	0.640750	-0.104410	-0.323259	80.609846	15.692943	-36.966567	0.769204	-0.578934	-0.270482	0.311329	-0.030115	0.949825	-0.558031	-0.814818	0.157075	0	0	0
58217	0	0	0	0	0	-2.694084	9.768038	1.321266	-0.026311	-0.008131	0.072820	0.558350	-0.615723	-0.468506	0.688711	0.640600	-0.104638	-0.323046	80.594374	15.649781	-36.964853	0.769384	-0.579033	-0.269757	0.310909	-0.029455	0.949983	-0.558017	-0.814772	0.157365	0	0	0
58218	0	0	0	0	0	-2.820202	10.022792	1.494529	-0.043957	-0.002908	0.098620	0.552734	-0.603516	-0.462402	0.689017	0.640384	-0.104901	-0.322737	80.570317	15.592559	-36.957552	0.769673	-0.579097	-0.268795	0.310389	-0.028503	0.950182	-0.557909	-0.814760	0.157807	0	0	0
58219	0	0	0	0	0	-2.948195	10.063311	1.508203	-0.052742	-0.005248	0.120380	0.549805	-0.613281	-0.464844	0.689384	0.640123	-0.105228	-0.322365	80.541415	15.522787	-36.949470	0.770016	-0.579184	-0.267622	0.309750	-0.027352	0.950425	-0.557791	-0.814738	0.158340	0	0	0
58220	0	0	0	0	0	-2.834625	10.018218	1.540865	-0.029185	-0.028242	0.145747	0.549072	-0.618164	-0.467285	0.689705	0.639891	-0.105753	-0.321967	80.523081	15.436549	-36.952370	0.770307	-0.579465	-0.266171	0.308783	-0.026247	0.950770	-0.557924	-0.814574	0.158711	0	0	0
58221	0	0	0	0	0	-2.833933	10.082294	1.705343	-0.020049	-0.034628	0.179259	0.547363	-0.614746	-0.464600	0.690046	0.639663	-0.106422	-0.321468	80.509867	15.330737	-36.955700	0.770665	-0.579804	-0.264390	0.307507	-0.025022	0.951217	-0.558135	-0.814372	0.159011	0	0	0
58222	0	0	0	0	0	-3.033671	10.168730	1.673774	0.007288	-0.044918	0.206400	0.548828	-0.603027	-0.458984	0.690337	0.639498	-0.107257	-0.320894	80.511442	15.208646	-36.962394	0.771046	-0.580232	-0.262335	0.305869	-0.023861	0.951775	-0.558509	-0.814102	0.159077	0	0	0
58223	0	0	0	0	0	-3.105329	10.293181	1.621064	0.014903	-0.047671	0.233614	0.545410	-0.623291	-0.465332	0.690646	0.639339	-0.108201	-0.320230	80.517663	15.070891	-36.968036	0.771490	-0.580685	-0.260014	0.303977	-0.022603	0.952411	-0.558928	-0.813814	0.159077	0	0	0
58224	0	0	0	0	0	-3.215188	10.220718	1.730442	0.013307	-0.049338	0.262297	0.539795	-0.614990	-0.463623	0.691003	0.639155	-0.109239	-0.319473	80.523458	14.916796	-36.971868	0.772007	-0.581155	-0.257416	0.301872	-0.021164	0.953114	-0.559355	-0.813517	0.159095	0	0	0
58225	0	0	0	0	0	-3.315895	10.125931	1.775700	0.010863	-0.046906	0.299487	0.542236	-0.617676	-0.471191	0.691427	0.638945	-0.110384	-0.318580	80.529149	14.741900	-36.970661	0.772644	-0.581609	-0.254465	0.299491	-0.019488	0.953900	-0.559756	-0.813235	0.159129	0	0	0
58226	0	0	0	0	0	-3.521547	10.118886	1.890514	0.005164	-0.056523	0.337465	0.549072	-0.618164	-0.468994	0.691923	0.638677	-0.111674	-0.317589	80.531087	14.544647	-36.971386	0.773332	-0.582142	-0.251134	0.296847	-0.017543	0.954764	-0.560214	-0.812898	0.159240	0	0	0
58227	0	0	0	0	0	-3.616861	10.241000	1.875533	0.022920	-0.077360	0.374185	0.543457	-0.619141	-0.463379	0.692406	0.638415	-0.113181	-0.316527	80.541044	14.324699	-36.980724	0.774001	-0.582844	-0.247417	0.293817	-0.015527	0.955735	-0.560886	-0.812436	0.159232	0	0	0
58228	0	0	0	0	0	-3.702975	10.233641	1.928853	0.013790	-0.080696	0.419009	0.531250	-0.619873	-0.464844	0.692985	0.638089	-0.114828	-0.315324	80.546403	14.079084	-36.987671	0.774771	-0.583570	-0.243261	0.290489	-0.013172	0.956788	-0.561557	-0.811956	0.159315	0	0	0
58229	0	0	0	0	0	-3.604333	10.148859	1.879487	0.031516	-0.080373	0.457588	0.529053	-0.620117	-0.461914	0.693565	0.637798	-0.116624	-0.313975	80.562866	13.811759	-36.990744	0.775638	-0.584288	-0.238733	0.286759	-0.010734	0.957943	-0.562277	-0.811475	0.159224	0	0	0
58230	0	0	0	0	0	-3.361807	10.173035	1.873495	0.046672	-0.074236	0.507107	0.523682	-0.625000	-0.465332	0.694173	0.637538	-0.118580	-0.312423	80.589995	13.516958	-36.985556	0.776661	-0.584949	-0.233733	0.282553	-0.008125	0.959217	-0.562993	-0.811029	0.158969	0	0	0
58231	0	0	0	0	0	-3.105459	10.133435	1.908582	0.055963	-0.052852	0.554421	0.523682	-0.631104	-0.470459	0.694834	0.637310	-0.120625	-0.310632	80.626273	13.197514	-36.963591	0.777915	-0.585426	-0.228309	0.277924	-0.005312	0.960588	-0.563566	-0.810708	0.158572	0	0	0
58232	0	0	0	0	0	-2.940093	10.106200	2.022028	0.059532	-0.017130	0.594899	0.518311	-0.641602	-0.460693	0.695561	0.637120	-0.122681	-0.308581	80.669986	12.858392	-36.917268	0.779455	-0.585598	-0.222542	0.272949	-0.002288	0.962026	-0.563870	-0.810598	0.158055	0	0	0
58233	0	0	0	0	0	-2.857467	10.071047	1.943833	0.100521	0.003635	0.626784	0.513672	-0.638916	-0.469238	0.696213	0.637079	-0.124827	-0.306326	80.740088	12.503249	-36.856319	0.781166	-0.585585	-0.216495	0.267487	0.000590	0.963561	-0.564119	-0.810611	0.157097	0	0	0
58234	0	0	0	0	0	-2.790314	10.044495	1.875081	0.148064	0.018289	0.668979	0.511475	-0.635010	-0.466309	0.696780	0.637193	-0.127129	-0.303843	80.839609	12.125367	-36.783527	0.783036	-0.585434	-0.210051	0.261413	0.003330	0.965221	-0.564375	-0.810713	0.155647	0	0	0
58235	0	0	0	0	0	-2.830975	9.959776	1.817603	0.165201	0.030474	0.708330	0.511963	-0.651855	-0.464355	0.697352	0.637352	-0.129537	-0.301171	80.950451	11.726360	-36.700889	0.785033	-0.585165	-0.203238	0.254922	0.006158	0.966942	-0.564569	-0.810891	0.154006	0	0	0
58236	0	0	0	0	0	-2.782673	10.006941	1.714849	0.177119	0.021757	0.745963	0.502197	-0.650391	-0.463379	0.697926	0.637506	-0.132112	-0.298382	81.067094	11.304952	-36.620747	0.787029	-0.584942	-0.196031	0.248052	0.009109	0.968704	-0.564850	-0.811024	0.152265	0	0	0
58237	0	0	0	0	0	-2.801830	10.121745	1.691169	0.194873	0.024002	0.776737	0.492188	-0.658203	-0.457520	0.698480	0.637695	-0.134802	-0.295463	81.193844	10.866350	-36.537603	0.789060	-0.584675	-0.188519	0.240826	0.012093	0.970493	-0.565144	-0.811177	0.150347	0	0	0
58238	0	0	0	0	0	-2.803995	10.137475	1.613256	0.200466	0.026138	0.812782	0.488281	-0.652344	-0.455811	0.699060	0.637872	-0.137605	-0.292402	81.323826	10.407146	-36.451130	0.791131	-0.584363	-0.180642	0.233264	0.015240	0.972294	-0.565419	-0.811349	0.148368	0	0	0
58239	0	0	0	0	0	-2.556269	10.050763	1.572434	0.196218	0.025214	0.850993	0.486328	-0.660645	-0.460938	0.699695	0.637995	-0.140524	-0.289210	81.450899	9.926260	-36.363073	0.793221	-0.584025	-0.172381	0.225410	0.018641	0.974086	-0.565677	-0.811522	0.146432	0	0	0
58240	0	0	0	0	0	-2.307123	9.961261	1.531908	0.204902	0.025016	0.874446	0.478760	-0.663574	-0.458984	0.700323	0.638118	-0.143529	-0.285922	81.582385	9.431639	-36.274313	0.795295	-0.583654	-0.163871	0.217299	0.022106	0.975855	-0.565939	-0.811702	0.144408	0	0	0
58241	0	0	0	0	0	-2.141084	9.921742	1.521455	0.205717	0.032630	0.899795	0.476563	-0.672119	-0.453613	0.700975	0.638224	-0.146586	-0.282517	81.714328	8.923357	-36.180373	0.797393	-0.583184	-0.155113	0.208966	0.025707	0.977585	-0.566125	-0.811933	0.142365	0	0	0
58242	0	0	0	0	0	-2.140841	9.940214	1.516012	0.204374	0.029551	0.925367	0.462646	-0.683105	-0.445801	0.701650	0.638289	-0.149731	-0.279025	81.844599	8.399835	-36.087342	0.799451	-0.582699	-0.146080	0.200414	0.029465	0.979268	-0.566315	-0.812154	0.140337	0	0	0
58243	0	0	0	0	0	-2.094660	9.938488	1.408993	0.217705	0.022076	0.957553	0.457031	-0.672852	-0.452148	0.702305	0.638350	-0.153018	-0.275430	81.981171	7.857533	-35.997365	0.801448	-0.582230	-0.136710	0.191513	0.033295	0.980925	-0.566572	-0.812342	0.138189	0	0	0
58244	0	0	0	0	0	-1.995620	9.959744	1.518356	0.216415	0.024028	0.982051	0.464355	-0.686035	-0.449951	0.702983	0.638375	-0.156373	-0.271734	82.116422	7.300982	-35.905697	0.803416	-0.581698	-0.127082	0.182399	0.037275	0.982518	-0.566792	-0.812550	0.136049	0	0	0
58245	0	0	0	0	0	-1.936893	9.978867	1.534914	0.185403	0.028477	1.004463	0.443604	-0.694336	-0.442139	0.703775	0.638264	-0.159736	-0.267965	82.233283	6.732207	-35.811131	0.805359	-0.581081	-0.117229	0.173267	0.041629	0.983995	-0.566900	-0.812781	0.134208	0	0	0
58246	0	0	0	0	0	-1.876562	9.873391	1.511249	0.178678	0.040343	1.022920	0.429199	-0.698975	-0.444092	0.704604	0.638112	-0.163104	-0.264089	82.346218	6.153328	-35.709558	0.807308	-0.580314	-0.107190	0.163999	0.046139	0.985381	-0.566885	-0.813085	0.132419	0	0	0
58247	0	0	0	0	0	-1.907475	9.831766	1.457830	0.199251	0.037859	1.039160	0.426514	-0.708984	-0.447754	0.705367	0.638000	-0.166554	-0.260142	82.469698	5.565171	-35.609530	0.809172	-0.579514	-0.096978	0.154469	0.050565	0.986703	-0.566904	-0.813392	0.130433	0	0	0
58248	0	0	0	0	0	-1.860067	9.898676	1.378580	0.229382	0.022177	1.056985	0.420898	-0.706543	-0.435303	0.706024	0.637939	-0.170152	-0.256147	82.608639	4.965154	-35.518522	0.810873	-0.578786	-0.086550	0.144599	0.054844	0.987969	-0.567076	-0.813633	0.128163	0	0	0
58249	0	0	0	0	0	-1.758165	9.934990	1.255314	0.242992	0.001222	1.071092	0.416260	-0.716309	-0.438965	0.706617	0.637869	-0.173879	-0.252153	82.753319	4.355789	-35.440062	0.812369	-0.578176	-0.075950	0.134527	0.059083	0.989147	-0.567414	-0.813770	0.125777	0	0	0
58250	0	0	0	0	0	-1.570688	9.868390	1.139279	0.235336	-0.017155	1.092007	0.410645	-0.723389	-0.443115	0.707223	0.637711	-0.177726	-0.248140	82.892114	3.732607	-35.372091	0.813680	-0.577656	-0.065100	0.124305	0.063501	0.990210	-0.567867	-0.813807	0.123476	0	0	0
58251	0	0	0	0	0	-1.417526	9.833626	1.084315	0.225379	-0.033311	1.101679	0.402100	-0.717529	-0.435791	0.707836	0.637470	-0.181639	-0.244148	83.023772	3.103122	-35.314228	0.814798	-0.577213	-0.054133	0.114055	0.068048	0.991141	-0.568416	-0.813754	0.121279	0	0	0
58252	0	0	0	0	0	-1.311685	9.878109	0.993850	0.242833	-0.056837	1.106312	0.391113	-0.726807	-0.434570	0.708355	0.637236	-0.185669	-0.240188	83.164173	2.468756	-35.270912	0.815673	-0.576907	-0.043075	0.103648	0.072479	0.991970	-0.569153	-0.813588	0.118914	0	0	0
58253	0	0	0	0	0	-1.040854	9.905010	0.852506	0.270429	-0.086143	1.123263	0.387451	-0.727295	-0.432373	0.708755	0.637029	-0.189880	-0.236232	83.319171	1.823203	-35.244868	0.816280	-0.576780	-0.031816	0.092943	0.076778	0.992707	-0.570131	-0.813284	0.116280	0	0	0
58254	0	0	0	0	0	-0.848755	9.887946	0.688351	0.283592	-0.097288	1.127701	0.376953	-0.739746	-0.429932	0.709085	0.636829	-0.194158	-0.232271	83.481299	1.173777	-35.226603	0.816706	-0.576691	-0.020485	0.082109	0.080999	0.993326	-0.571183	-0.812937	0.113504	0	0	0
