// General information: 
//  MT Manager version: 2022.2.0 
//  XDA version: 2022.2.0 build 7381 rev 124627 built on 2023-07-19
// Device information: 
//  DeviceId: 10B426ED
//  ProductCode: MTW2-3A7G6
//  Firmware Version: 4.14.0
//  Hardware Version: 3.0.0
// Device settings: 
//  Filter Profile: human(46.1)
//  Option Flags: Orientation Smoother Disabled, Position/Velocity Smoother Disabled, Continuous Zero Rotation Update Disabled, AHS Disabled, ICC Disabled
// Coordinate system: ENU
PacketCounter	SampleTimeFine	Year	Month	Day	Second	Acc_X	Acc_Y	Acc_Z	Gyr_X	Gyr_Y	Gyr_Z	Mag_X	Mag_Y	Mag_Z	Quat_q0	Quat_q1	Quat_q2	Quat_q3	Roll	Pitch	Yaw	Mat[1][1]	Mat[2][1]	Mat[3][1]	Mat[1][2]	Mat[2][2]	Mat[3][2]	Mat[1][3]	Mat[2][3]	Mat[3][3]	Vel_E	Vel_N	Vel_U
57802	0	0	0	0	0	9.784544	0.676092	-0.718697	0.000693	0.012145	-0.004137	-0.776855	-0.277588	-0.361328	0.669286	0.187564	-0.706588	0.132701	137.316479	-84.622399	-111.109429	-0.033753	-0.087430	0.995599	-0.442691	0.894420	0.063537	-0.896039	-0.438598	-0.068894	0	0	0
57803	0	0	0	0	0	9.762812	0.638848	-0.658923	0.000745	0.005561	-0.004939	-0.777832	-0.285156	-0.364258	0.669301	0.187558	-0.706577	0.132692	137.294545	-84.623347	-111.088813	-0.033716	-0.087427	0.995600	-0.442669	0.894430	0.063552	-0.896051	-0.438579	-0.068857	0	0	0
57804	0	0	0	0	0	9.775296	0.627392	-0.641568	-0.007002	-0.000363	-0.008993	-0.778320	-0.283447	-0.362549	0.669306	0.187550	-0.706584	0.132638	137.271790	-84.620221	-111.071133	-0.033708	-0.087488	0.995595	-0.442591	0.894464	0.063616	-0.896090	-0.438497	-0.068872	0	0	0
57805	0	0	0	0	0	9.784777	0.570965	-0.654586	-0.009876	0.000416	-0.013258	-0.773682	-0.286133	-0.364258	0.669319	0.187546	-0.706587	0.132561	137.225816	-84.615701	-111.031818	-0.033676	-0.087584	0.995588	-0.442487	0.894508	0.063725	-0.896142	-0.438389	-0.068879	0	0	0
57806	0	0	0	0	0	9.755834	0.615205	-0.637893	0.009970	-0.005524	-0.009432	-0.778564	-0.284180	-0.368164	0.669290	0.187600	-0.706600	0.132562	137.232181	-84.610233	-111.033620	-0.033713	-0.087672	0.995579	-0.442561	0.894467	0.063782	-0.896105	-0.438454	-0.068955	0	0	0
57807	0	0	0	0	0	9.755217	0.594073	-0.723728	0.007828	-0.006586	-0.012832	-0.777344	-0.285889	-0.358887	0.669262	0.187659	-0.706615	0.132541	137.226190	-84.602978	-111.024350	-0.033744	-0.087795	0.995567	-0.442615	0.894434	0.063874	-0.896077	-0.438497	-0.069041	0	0	0
57808	0	0	0	0	0	9.766219	0.625275	-0.711199	0.012022	-0.004625	-0.014710	-0.771729	-0.282959	-0.360352	0.669238	0.187737	-0.706619	0.132532	137.206563	-84.595833	-110.998863	-0.033750	-0.087926	0.995555	-0.442709	0.894380	0.063982	-0.896030	-0.438581	-0.069111	0	0	0
57809	0	0	0	0	0	9.778650	0.614229	-0.694390	-0.000090	-0.000164	-0.008676	-0.771729	-0.287109	-0.360352	0.669236	0.187753	-0.706622	0.132506	137.189397	-84.592796	-110.982593	-0.033744	-0.087985	0.995550	-0.442695	0.894382	0.064039	-0.896037	-0.438564	-0.069130	0	0	0
57810	0	0	0	0	0	9.774277	0.611611	-0.728255	0.009048	0.005293	-0.006828	-0.765137	-0.287109	-0.360840	0.669245	0.187787	-0.706601	0.132522	137.162336	-84.592888	-110.951350	-0.033695	-0.088002	0.995550	-0.442760	0.894348	0.064070	-0.896007	-0.438631	-0.069099	0	0	0
57811	0	0	0	0	0	9.761776	0.624036	-0.744836	0.015166	0.006518	-0.000769	-0.780518	-0.283203	-0.362793	0.669247	0.187823	-0.706578	0.132583	137.159920	-84.595731	-110.940827	-0.033661	-0.087962	0.995555	-0.442885	0.894288	0.064040	-0.895946	-0.438761	-0.069060	0	0	0
57812	0	0	0	0	0	9.791151	0.603278	-0.676523	0.003805	-0.004193	-0.004146	-0.772217	-0.286133	-0.360840	0.669225	0.187837	-0.706595	0.132581	137.180801	-84.592880	-110.960757	-0.033709	-0.087996	0.995550	-0.442902	0.894280	0.064048	-0.895936	-0.438772	-0.069119	0	0	0
57813	0	0	0	0	0	9.752522	0.574443	-0.669259	0.002196	-0.005521	0.002598	-0.775391	-0.281250	-0.363770	0.669195	0.187822	-0.706625	0.132594	137.236895	-84.592018	-111.016936	-0.033801	-0.087977	0.995549	-0.442902	0.894283	0.063991	-0.895933	-0.438768	-0.069193	0	0	0
57814	0	0	0	0	0	9.755436	0.619877	-0.639464	-0.008613	-0.001695	-0.002249	-0.772949	-0.288574	-0.357910	0.669193	0.187786	-0.706645	0.132556	137.248782	-84.590954	-111.034979	-0.033835	-0.087984	0.995547	-0.442807	0.894331	0.063989	-0.895978	-0.438670	-0.069220	0	0	0
57815	0	0	0	0	0	9.793491	0.626725	-0.732670	0.002856	-0.004151	-0.000474	-0.771240	-0.283936	-0.362061	0.669169	0.187784	-0.706666	0.132564	137.285724	-84.589454	-111.071425	-0.033901	-0.087987	0.995545	-0.442816	0.894328	0.063962	-0.895971	-0.438675	-0.069280	0	0	0
57816	0	0	0	0	0	9.777105	0.657697	-0.699058	0.012860	-0.002927	-0.000431	-0.775635	-0.287842	-0.363770	0.669140	0.187814	-0.706677	0.132607	137.323029	-84.588576	-111.102640	-0.033954	-0.087982	0.995543	-0.442913	0.894283	0.063927	-0.895922	-0.438768	-0.069333	0	0	0
57817	0	0	0	0	0	9.800679	0.675737	-0.669590	0.008784	-0.010656	-0.005960	-0.770264	-0.279785	-0.368652	0.669092	0.187856	-0.706711	0.132610	137.364837	-84.582226	-111.140582	-0.034052	-0.088063	0.995533	-0.442977	0.894249	0.063951	-0.895886	-0.438820	-0.069461	0	0	0
57818	0	0	0	0	0	9.836248	0.659616	-0.708221	0.000424	-0.003804	-0.003271	-0.780762	-0.285645	-0.365723	0.669074	0.187855	-0.706730	0.132599	137.385925	-84.579873	-111.162666	-0.034101	-0.088088	0.995529	-0.442963	0.894256	0.063953	-0.895891	-0.438801	-0.069515	0	0	0
57819	0	0	0	0	0	9.764410	0.671013	-0.717374	-0.010728	0.008015	-0.006715	-0.771729	-0.282715	-0.352295	0.669112	0.187817	-0.706715	0.132546	137.336768	-84.581225	-111.121142	-0.034029	-0.088090	0.995531	-0.442842	0.894313	0.063997	-0.895954	-0.438685	-0.069442	0	0	0
57820	0	0	0	0	0	9.802046	0.634970	-0.664989	0.002539	0.014619	-0.000141	-0.766113	-0.287598	-0.358887	0.669155	0.187800	-0.706674	0.132570	137.297525	-84.587848	-111.081407	-0.033926	-0.088007	0.995542	-0.442846	0.894313	0.063967	-0.895956	-0.438701	-0.069314	0	0	0
57821	0	0	0	0	0	9.746662	0.615076	-0.707192	-0.000570	0.010222	-0.004605	-0.778564	-0.285400	-0.355713	0.669187	0.187795	-0.706646	0.132567	137.255340	-84.590706	-111.039924	-0.033845	-0.087985	0.995547	-0.442832	0.894318	0.063984	-0.895965	-0.438695	-0.069230	0	0	0
57822	0	0	0	0	0	9.777540	0.682069	-0.612710	0.000191	-0.008977	-0.003470	-0.781738	-0.282715	-0.358154	0.669151	0.187797	-0.706682	0.132549	137.296709	-84.586102	-111.082514	-0.033939	-0.088034	0.995539	-0.442816	0.894326	0.063988	-0.895970	-0.438669	-0.069335	0	0	0
57823	0	0	0	0	0	9.774532	0.636929	-0.643805	0.000923	-0.010817	-0.002604	-0.779053	-0.279541	-0.360107	0.669105	0.187801	-0.706727	0.132537	137.352165	-84.580894	-111.138596	-0.034058	-0.088085	0.995531	-0.442810	0.894330	0.063982	-0.895968	-0.438652	-0.069464	0	0	0
57824	0	0	0	0	0	9.776874	0.660388	-0.699750	-0.005024	-0.007688	-0.001856	-0.775391	-0.284424	-0.356445	0.669078	0.187779	-0.706764	0.132508	137.392292	-84.577452	-111.182941	-0.034147	-0.088115	0.995525	-0.442747	0.894361	0.063974	-0.895996	-0.438581	-0.069553	0	0	0
57825	0	0	0	0	0	9.773892	0.615308	-0.730298	-0.005676	-0.001657	-0.004591	-0.775879	-0.274170	-0.360107	0.669073	0.187760	-0.706780	0.132473	137.397144	-84.575399	-111.192288	-0.034175	-0.088143	0.995521	-0.442678	0.894394	0.063992	-0.896029	-0.438508	-0.069584	0	0	0
57826	0	0	0	0	0	9.778171	0.619228	-0.696688	-0.015626	-0.009467	-0.005434	-0.772705	-0.287842	-0.362061	0.669052	0.187717	-0.706827	0.132392	137.422493	-84.569816	-111.227890	-0.034264	-0.088212	0.995512	-0.442521	0.894470	0.064027	-0.896103	-0.438341	-0.069684	0	0	0
57827	0	0	0	0	0	9.809933	0.622090	-0.683839	-0.014715	0.000450	-0.003568	-0.772705	-0.282471	-0.366455	0.669063	0.187661	-0.706843	0.132329	137.417216	-84.569122	-111.232518	-0.034276	-0.088220	0.995511	-0.442366	0.894545	0.064042	-0.896179	-0.438185	-0.069687	0	0	0
57828	0	0	0	0	0	9.818069	0.607416	-0.700766	-0.029295	-0.001494	-0.009807	-0.775635	-0.290039	-0.356689	0.669086	0.187582	-0.706868	0.132193	137.382804	-84.565207	-111.215957	-0.034275	-0.088294	0.995505	-0.442088	0.894676	0.064130	-0.896317	-0.437903	-0.069699	0	0	0
57829	0	0	0	0	0	9.760190	0.564614	-0.688890	-0.001311	0.004662	0.000338	-0.781494	-0.285400	-0.366211	0.669096	0.187558	-0.706863	0.132197	137.384260	-84.567727	-111.219050	-0.034264	-0.088251	0.995509	-0.442062	0.894692	0.064098	-0.896330	-0.437880	-0.069668	0	0	0
57830	0	0	0	0	0	9.822437	0.611455	-0.665796	0.007075	0.008588	-0.003419	-0.775391	-0.286377	-0.363770	0.669116	0.187572	-0.706837	0.132221	137.357877	-84.570540	-111.189622	-0.034201	-0.088223	0.995513	-0.442107	0.894669	0.064097	-0.896310	-0.437931	-0.069603	0	0	0
57831	0	0	0	0	0	9.769900	0.637107	-0.678734	0.001238	-0.001452	-0.004275	-0.775146	-0.278564	-0.365234	0.669106	0.187575	-0.706847	0.132211	137.365346	-84.568750	-111.197592	-0.034225	-0.088247	0.995510	-0.442100	0.894672	0.064109	-0.896312	-0.437921	-0.069634	0	0	0
57832	0	0	0	0	0	9.746256	0.619522	-0.708901	0.009273	0.003068	-0.000822	-0.774902	-0.284424	-0.361084	0.669103	0.187590	-0.706840	0.132246	137.374267	-84.570244	-111.202361	-0.034222	-0.088220	0.995513	-0.442165	0.894642	0.064081	-0.896281	-0.437988	-0.069625	0	0	0
57833	0	0	0	0	0	9.787729	0.693945	-0.686620	0.012708	-0.003904	-0.002500	-0.768066	-0.288086	-0.359375	0.669073	0.187625	-0.706853	0.132279	137.406831	-84.568152	-111.229280	-0.034277	-0.088238	0.995510	-0.442255	0.894598	0.064066	-0.896234	-0.438073	-0.069688	0	0	0
57834	0	0	0	0	0	9.759722	0.673097	-0.751007	0.004852	0.003333	-0.004951	-0.780762	-0.281250	-0.354736	0.669077	0.187640	-0.706844	0.132285	137.393835	-84.568156	-111.214579	-0.034254	-0.088247	0.995510	-0.442281	0.894584	0.064082	-0.896222	-0.438100	-0.069673	0	0	0
57835	0	0	0	0	0	9.778004	0.622761	-0.695887	-0.000461	-0.002945	-0.006206	-0.774414	-0.275146	-0.360840	0.669063	0.187648	-0.706858	0.132263	137.399032	-84.564873	-111.220836	-0.034285	-0.088296	0.995504	-0.442266	0.894589	0.064114	-0.896228	-0.438079	-0.069721	0	0	0
57836	0	0	0	0	0	9.791956	0.698753	-0.652759	-0.003029	-0.000206	-0.006334	-0.773193	-0.285156	-0.362549	0.669064	0.187644	-0.706865	0.132233	137.389826	-84.562848	-111.214477	-0.034288	-0.088333	0.995501	-0.442222	0.894609	0.064149	-0.896250	-0.438033	-0.069737	0	0	0
57837	0	0	0	0	0	9.746064	0.621858	-0.709498	-0.022170	-0.006896	-0.008224	-0.780762	-0.282471	-0.365479	0.669059	0.187583	-0.706906	0.132121	137.389513	-84.557275	-111.228509	-0.034344	-0.088414	0.995492	-0.442000	0.894713	0.064215	-0.896357	-0.437802	-0.069808	0	0	0
57838	0	0	0	0	0	9.814896	0.566588	-0.730726	-0.015990	-0.004850	-0.008774	-0.782471	-0.285645	-0.363037	0.669057	0.187547	-0.706935	0.132032	137.381005	-84.552345	-111.230310	-0.034378	-0.088493	0.995483	-0.441841	0.894787	0.064283	-0.896434	-0.437635	-0.069861	0	0	0
57839	0	0	0	0	0	9.806663	0.582750	-0.713747	-0.013461	0.002368	-0.003104	-0.778076	-0.279297	-0.359375	0.669073	0.187493	-0.706944	0.131977	137.370577	-84.552629	-111.228970	-0.034374	-0.088489	0.995484	-0.441699	0.894857	0.064293	-0.896505	-0.437494	-0.069846	0	0	0
57840	0	0	0	0	0	9.747395	0.581700	-0.705524	-0.005870	0.007318	-0.001118	-0.775635	-0.276123	-0.362549	0.669099	0.187456	-0.706932	0.131961	137.352196	-84.555799	-111.215030	-0.034333	-0.088446	0.995489	-0.441628	0.894893	0.064278	-0.896541	-0.437429	-0.069785	0	0	0
57841	0	0	0	0	0	9.766698	0.596127	-0.709115	0.002722	-0.001758	0.002196	-0.773193	-0.287842	-0.355713	0.669083	0.187437	-0.706950	0.131975	137.392365	-84.556450	-111.255634	-0.034391	-0.088412	0.995490	-0.441622	0.894900	0.064221	-0.896542	-0.437421	-0.069821	0	0	0
57842	0	0	0	0	0	9.777769	0.625993	-0.696283	0.007784	-0.004025	-0.001488	-0.777588	-0.285400	-0.355469	0.669056	0.187454	-0.706967	0.131996	137.426344	-84.554693	-111.286432	-0.034450	-0.088421	0.995487	-0.441673	0.894876	0.064200	-0.896514	-0.437468	-0.069882	0	0	0
57843	0	0	0	0	0	9.781606	0.607094	-0.747554	0.008614	0.001700	0.002250	-0.774902	-0.290771	-0.363525	0.669044	0.187462	-0.706968	0.132041	137.455268	-84.556583	-111.310962	-0.034476	-0.088376	0.995490	-0.441742	0.894846	0.064143	-0.896480	-0.437538	-0.069890	0	0	0
57844	0	0	0	0	0	9.784514	0.652589	-0.717192	0.004851	0.003335	-0.004950	-0.774902	-0.284668	-0.362061	0.669048	0.187477	-0.706958	0.132047	137.442300	-84.556589	-111.296290	-0.034453	-0.088385	0.995490	-0.441768	0.894832	0.064159	-0.896468	-0.437565	-0.069875	0	0	0
57845	0	0	0	0	0	9.776342	0.668406	-0.699580	-0.008148	0.008646	-0.001848	-0.777344	-0.289307	-0.364990	0.669081	0.187436	-0.706943	0.132023	137.413486	-84.559940	-111.272816	-0.034396	-0.088345	0.995496	-0.441682	0.894875	0.064154	-0.896512	-0.437486	-0.069800	0	0	0
57846	0	0	0	0	0	9.744526	0.666437	-0.712414	-0.007222	-0.002170	-0.004456	-0.781738	-0.281494	-0.355957	0.669077	0.187413	-0.706960	0.131983	137.418186	-84.557815	-111.282839	-0.034425	-0.088373	0.995492	-0.441600	0.894914	0.064174	-0.896551	-0.437400	-0.069833	0	0	0
57847	0	0	0	0	0	9.776278	0.669382	-0.699532	-0.010177	-0.005585	-0.006854	-0.771973	-0.283203	-0.356201	0.669064	0.187391	-0.706990	0.131922	137.425554	-84.553202	-111.297043	-0.034476	-0.088439	0.995485	-0.441495	0.894962	0.064219	-0.896601	-0.437288	-0.069900	0	0	0
57848	0	0	0	0	0	9.821537	0.595916	-0.750843	-0.003688	-0.001576	-0.003263	-0.773682	-0.282715	-0.356689	0.669058	0.187375	-0.707004	0.131898	137.435127	-84.551790	-111.309928	-0.034505	-0.088454	0.995482	-0.441445	0.894987	0.064224	-0.896625	-0.437234	-0.069929	0	0	0
57849	0	0	0	0	0	9.781527	0.609439	-0.746669	0.006628	0.009021	-0.004885	-0.772461	-0.283203	-0.356934	0.669079	0.187393	-0.706976	0.131917	137.401652	-84.554086	-111.273372	-0.034434	-0.088439	0.995486	-0.441491	0.894963	0.064238	-0.896605	-0.437286	-0.069862	0	0	0
57850	0	0	0	0	0	9.802294	0.582365	-0.745798	0.008020	0.008551	-0.007091	-0.776123	-0.282227	-0.363281	0.669100	0.187423	-0.706945	0.131932	137.359805	-84.555459	-111.227865	-0.034355	-0.088444	0.995489	-0.441546	0.894933	0.064272	-0.896581	-0.437346	-0.069797	0	0	0
57851	0	0	0	0	0	9.751685	0.588335	-0.669379	0.009333	0.003890	-0.007430	-0.781738	-0.284912	-0.357178	0.669103	0.187461	-0.706930	0.131945	137.337040	-84.554668	-111.200799	-0.034318	-0.088473	0.995487	-0.441613	0.894898	0.064310	-0.896549	-0.437413	-0.069782	0	0	0
57852	0	0	0	0	0	9.770919	0.603477	-0.673258	0.002920	-0.003331	-0.007083	-0.778320	-0.284912	-0.364014	0.669087	0.187481	-0.706942	0.131931	137.340693	-84.551034	-111.203933	-0.034346	-0.088530	0.995481	-0.441623	0.894890	0.064348	-0.896543	-0.437417	-0.069833	0	0	0
57853	0	0	0	0	0	9.762216	0.597294	-0.741382	0.013020	0.005466	-0.004167	-0.778076	-0.281250	-0.356934	0.669090	0.187520	-0.706922	0.131970	137.328448	-84.552136	-111.185173	-0.034310	-0.088524	0.995483	-0.441724	0.894840	0.064350	-0.896495	-0.437521	-0.069805	0	0	0
57854	0	0	0	0	0	9.759815	0.574435	-0.686077	0.002050	0.000900	-0.005278	-0.765869	-0.283203	-0.355225	0.669089	0.187528	-0.706923	0.131963	137.322353	-84.550986	-111.179016	-0.034307	-0.088546	0.995481	-0.441725	0.894838	0.064371	-0.896494	-0.437520	-0.069813	0	0	0
57855	0	0	0	0	0	9.781470	0.612491	-0.744927	0.012941	0.001275	-0.002299	-0.782471	-0.281738	-0.359619	0.669075	0.187563	-0.706918	0.132005	137.335552	-84.551031	-111.185793	-0.034318	-0.088541	0.995481	-0.441826	0.894790	0.064354	-0.896444	-0.437621	-0.069827	0	0	0
57856	0	0	0	0	0	9.750098	0.632489	-0.673142	0.005796	-0.004107	-0.002817	-0.780762	-0.279541	-0.364258	0.669051	0.187578	-0.706936	0.132014	137.362842	-84.548727	-111.211017	-0.034371	-0.088563	0.995477	-0.441860	0.894773	0.064348	-0.896426	-0.437650	-0.069887	0	0	0
57857	0	0	0	0	0	9.774646	0.586354	-0.724826	0.000196	-0.008977	-0.003472	-0.783203	-0.283936	-0.359863	0.669015	0.187577	-0.706974	0.131994	137.405768	-84.544105	-111.255678	-0.034469	-0.088611	0.995470	-0.441836	0.894785	0.064350	-0.896434	-0.437616	-0.069994	0	0	0
57858	0	0	0	0	0	9.793883	0.601041	-0.729007	0.015741	0.003710	-0.001973	-0.776367	-0.281250	-0.358887	0.669008	0.187617	-0.706959	0.132049	137.410700	-84.545423	-111.252718	-0.034456	-0.088592	0.995472	-0.441959	0.894726	0.064328	-0.896373	-0.437741	-0.069983	0	0	0
57859	0	0	0	0	0	9.764473	0.622031	-0.796961	0.023755	0.004859	-0.003261	-0.776367	-0.292236	-0.356934	0.668998	0.187687	-0.706935	0.132128	137.411686	-84.546646	-111.241282	-0.034431	-0.088579	0.995474	-0.442152	0.894631	0.064313	-0.896279	-0.437936	-0.069968	0	0	0
57860	0	0	0	0	0	9.793918	0.601311	-0.728313	0.015006	0.005549	-0.002840	-0.773438	-0.284912	-0.358887	0.668999	0.187727	-0.706914	0.132179	137.404894	-84.548403	-111.226967	-0.034398	-0.088559	0.995477	-0.442269	0.894575	0.064301	-0.896223	-0.438056	-0.069938	0	0	0
57861	0	0	0	0	0	9.737497	0.645674	-0.690077	0.004559	0.004744	-0.004351	-0.782715	-0.283936	-0.366699	0.669007	0.187743	-0.706901	0.132190	137.388988	-84.549047	-111.208791	-0.034366	-0.088560	0.995478	-0.442303	0.894557	0.064312	-0.896207	-0.438093	-0.069912	0	0	0
57862	0	0	0	0	0	9.817556	0.619816	-0.697094	-0.004480	0.006845	-0.003329	-0.774658	-0.284668	-0.359131	0.669031	0.187719	-0.706888	0.132171	137.363582	-84.551160	-111.186993	-0.034319	-0.088538	0.995481	-0.442245	0.894585	0.064318	-0.896237	-0.438040	-0.069857	0	0	0
57863	0	0	0	0	0	9.727940	0.574218	-0.698384	0.000290	-0.001411	-0.000601	-0.777588	-0.288330	-0.355469	0.669020	0.187705	-0.706902	0.132170	137.387201	-84.550816	-111.211847	-0.034359	-0.088529	0.995481	-0.442227	0.894596	0.064294	-0.896245	-0.438019	-0.069888	0	0	0
57864	0	0	0	0	0	9.795427	0.560148	-0.723230	0.010584	-0.001589	-0.001159	-0.786621	-0.279785	-0.364258	0.668999	0.187729	-0.706909	0.132204	137.414311	-84.550214	-111.234134	-0.034397	-0.088525	0.995480	-0.442303	0.894560	0.064268	-0.896206	-0.438093	-0.069926	0	0	0
57865	0	0	0	0	0	9.795848	0.582431	-0.638506	0.011898	-0.006250	-0.001495	-0.772949	-0.282471	-0.360840	0.668959	0.187761	-0.706932	0.132237	137.461446	-84.547419	-111.275797	-0.034479	-0.088546	0.995475	-0.442391	0.894518	0.064243	-0.896159	-0.438174	-0.070014	0	0	0
57866	0	0	0	0	0	9.821829	0.623345	-0.663742	0.022727	0.000710	0.002282	-0.774902	-0.281250	-0.357910	0.668932	0.187812	-0.706927	0.132328	137.501393	-84.549118	-111.303990	-0.034512	-0.088501	0.995478	-0.442575	0.894432	0.064174	-0.896067	-0.438359	-0.070037	0	0	0
57867	0	0	0	0	0	9.772152	0.693639	-0.646780	0.022956	0.005883	0.002478	-0.779297	-0.286133	-0.356445	0.668923	0.187858	-0.706905	0.132424	137.522412	-84.553034	-111.313191	-0.034502	-0.088432	0.995484	-0.442759	0.894347	0.064103	-0.895977	-0.438548	-0.070011	0	0	0
57868	0	0	0	0	0	9.773678	0.651164	-0.642521	0.010598	0.001788	0.003578	-0.777832	-0.292236	-0.352783	0.668911	0.187863	-0.706905	0.132477	137.556838	-84.555686	-111.342819	-0.034531	-0.088371	0.995489	-0.442833	0.894315	0.064029	-0.895939	-0.438625	-0.070015	0	0	0
57869	0	0	0	0	0	9.750096	0.633129	-0.672570	-0.000734	0.001839	-0.000867	-0.781006	-0.291504	-0.360352	0.668910	0.187852	-0.706909	0.132480	137.566183	-84.556384	-111.352840	-0.034542	-0.088354	0.995490	-0.442823	0.894321	0.064010	-0.895944	-0.438615	-0.070017	0	0	0
57870	0	0	0	0	0	9.784321	0.658628	-0.714297	0.000153	0.000983	0.002068	-0.769775	-0.282227	-0.363770	0.668906	0.187828	-0.706917	0.132490	137.591220	-84.558111	-111.379048	-0.034571	-0.088310	0.995493	-0.442805	0.894334	0.063959	-0.895951	-0.438598	-0.070022	0	0	0
57871	0	0	0	0	0	9.745790	0.629736	-0.706303	-0.005000	0.003082	-0.002927	-0.775146	-0.284424	-0.366455	0.668917	0.187804	-0.706917	0.132468	137.582346	-84.558723	-111.373942	-0.034559	-0.088304	0.995494	-0.442745	0.894363	0.063963	-0.895981	-0.438540	-0.070005	0	0	0
57872	0	0	0	0	0	9.781908	0.635744	-0.659132	-0.005308	-0.006281	-0.001252	-0.778320	-0.289551	-0.361328	0.668894	0.187779	-0.706950	0.132442	137.618973	-84.556093	-111.414935	-0.034639	-0.088321	0.995490	-0.442679	0.894397	0.063949	-0.896011	-0.438467	-0.070079	0	0	0
57873	0	0	0	0	0	9.784250	0.659120	-0.714815	-0.001928	-0.006668	-0.002128	-0.780273	-0.295654	-0.364014	0.668868	0.187768	-0.706982	0.132424	137.654721	-84.552913	-111.453001	-0.034718	-0.088350	0.995484	-0.442645	0.894414	0.063942	-0.896024	-0.438426	-0.070160	0	0	0
57874	0	0	0	0	0	9.762509	0.621686	-0.656763	-0.003703	-0.012353	-0.002187	-0.782471	-0.282471	-0.357910	0.668823	0.187755	-0.707033	0.132394	137.712570	-84.547344	-111.514389	-0.034848	-0.088403	0.995475	-0.442594	0.894440	0.063936	-0.896045	-0.438363	-0.070296	0	0	0
57875	0	0	0	0	0	9.802445	0.608783	-0.661627	-0.000905	-0.009919	-0.001862	-0.777832	-0.286865	-0.358887	0.668782	0.187752	-0.707075	0.132379	137.763959	-84.542786	-111.567208	-0.034959	-0.088444	0.995467	-0.442575	0.894450	0.063927	-0.896050	-0.438334	-0.070412	0	0	0
57876	0	0	0	0	0	9.842415	0.595815	-0.666043	0.013962	-0.001977	-0.002037	-0.777100	-0.286865	-0.354736	0.668757	0.187790	-0.707081	0.132422	137.790594	-84.541667	-111.587073	-0.034997	-0.088450	0.995466	-0.442682	0.894399	0.063907	-0.895996	-0.438438	-0.070456	0	0	0
57877	0	0	0	0	0	9.816864	0.597779	-0.785090	0.014132	0.009781	-0.001044	-0.774902	-0.288086	-0.360107	0.668771	0.187822	-0.707048	0.132482	137.775374	-84.545753	-111.564281	-0.034935	-0.088398	0.995472	-0.442798	0.894343	0.063878	-0.895941	-0.438561	-0.070387	0	0	0
57878	0	0	0	0	0	9.758557	0.641258	-0.606251	0.011546	0.009140	-0.005910	-0.777588	-0.282959	-0.364990	0.668791	0.187858	-0.707014	0.132513	137.738581	-84.547859	-111.521821	-0.034857	-0.088390	0.995476	-0.442884	0.894299	0.063898	-0.895901	-0.438654	-0.070319	0	0	0
57879	0	0	0	0	0	9.774976	0.610655	-0.639826	0.007860	0.000165	-0.003358	-0.768311	-0.283936	-0.356689	0.668780	0.187880	-0.707015	0.132532	137.747182	-84.547107	-111.527092	-0.034869	-0.088399	0.995475	-0.442937	0.894273	0.063897	-0.895874	-0.438704	-0.070338	0	0	0
57880	0	0	0	0	0	9.741656	0.650695	-0.656956	0.015138	0.003152	-0.005515	-0.773193	-0.288818	-0.360352	0.668774	0.187931	-0.706999	0.132572	137.738367	-84.546824	-111.510669	-0.034846	-0.088413	0.995474	-0.443056	0.894213	0.063911	-0.895817	-0.438823	-0.070332	0	0	0
57881	0	0	0	0	0	9.770577	0.608027	-0.674138	0.006666	-0.008343	-0.004616	-0.775635	-0.284668	-0.363281	0.668735	0.187962	-0.707028	0.132576	137.774835	-84.541908	-111.544215	-0.034929	-0.088472	0.995466	-0.443104	0.894188	0.063923	-0.895789	-0.438862	-0.070436	0	0	0
57882	0	0	0	0	0	9.772858	0.631716	-0.730139	0.011436	-0.009203	-0.007699	-0.770264	-0.282959	-0.364502	0.668690	0.188016	-0.707054	0.132584	137.803970	-84.535543	-111.568045	-0.035006	-0.088561	0.995455	-0.443190	0.894143	0.063962	-0.895744	-0.438937	-0.070550	0	0	0
57883	0	0	0	0	0	9.751977	0.660087	-0.731160	0.007169	-0.007961	-0.009759	-0.786865	-0.287109	-0.353760	0.668656	0.188062	-0.707076	0.132569	137.815993	-84.528946	-111.577436	-0.035063	-0.088661	0.995444	-0.443235	0.894116	0.064024	-0.895720	-0.438971	-0.070648	0	0	0
57884	0	0	0	0	0	9.802062	0.612572	-0.663799	0.005548	-0.012663	-0.007748	-0.778320	-0.290283	-0.359863	0.668605	0.188099	-0.707118	0.132553	137.855309	-84.521091	-111.614884	-0.035171	-0.088765	0.995431	-0.443268	0.894097	0.064067	-0.895699	-0.438990	-0.070793	0	0	0
57885	0	0	0	0	0	9.815375	0.666324	-0.706639	0.004906	-0.003255	-0.005752	-0.776123	-0.288574	-0.362793	0.668585	0.188125	-0.707130	0.132553	137.866796	-84.517806	-111.624165	-0.035207	-0.088813	0.995426	-0.443304	0.894077	0.064091	-0.895680	-0.439020	-0.070849	0	0	0
57886	0	0	0	0	0	9.793218	0.607114	-0.732891	0.002549	0.001276	-0.010423	-0.770996	-0.277832	-0.360107	0.668587	0.188153	-0.707124	0.132530	137.836648	-84.514842	-111.593556	-0.035178	-0.088879	0.995421	-0.443312	0.894068	0.064163	-0.895677	-0.439025	-0.070853	0	0	0
57887	0	0	0	0	0	9.770044	0.612290	-0.677990	0.016450	-0.001508	-0.005853	-0.781982	-0.283691	-0.364014	0.668565	0.188211	-0.707123	0.132568	137.846006	-84.512461	-111.594898	-0.035196	-0.088917	0.995417	-0.443438	0.894004	0.064179	-0.895614	-0.439147	-0.070894	0	0	0
57888	0	0	0	0	0	9.765636	0.609404	-0.712445	0.023497	-0.003694	-0.008208	-0.778809	-0.275391	-0.359619	0.668529	0.188305	-0.707122	0.132622	137.857569	-84.508238	-111.594134	-0.035221	-0.088986	0.995410	-0.443632	0.893905	0.064214	-0.895516	-0.439334	-0.070962	0	0	0
57889	0	0	0	0	0	9.743240	0.679559	-0.717575	0.033190	-0.011823	-0.006492	-0.774658	-0.293457	-0.365723	0.668454	0.188424	-0.707146	0.132705	137.916491	-84.501278	-111.636179	-0.035331	-0.089072	0.995398	-0.443900	0.893772	0.064222	-0.895379	-0.439589	-0.071117	0	0	0
57890	0	0	0	0	0	9.791339	0.651540	-0.739745	0.004293	-0.014590	-0.008206	-0.783203	-0.285889	-0.362793	0.668398	0.188460	-0.707194	0.132681	137.960407	-84.492421	-111.678971	-0.035455	-0.089189	0.995384	-0.443923	0.893757	0.064271	-0.895363	-0.439595	-0.071281	0	0	0
57891	0	0	0	0	0	9.748841	0.642218	-0.682084	0.003422	-0.010355	-0.006407	-0.773926	-0.286621	-0.358154	0.668356	0.188486	-0.707230	0.132664	137.994014	-84.486008	-111.711735	-0.035547	-0.089272	0.995373	-0.443939	0.893747	0.064303	-0.895351	-0.439599	-0.071401	0	0	0
57892	0	0	0	0	0	9.729451	0.628288	-0.679605	-0.002248	-0.019417	-0.005176	-0.783203	-0.290527	-0.360840	0.668287	0.188493	-0.707301	0.132623	138.066414	-84.476250	-111.786911	-0.035727	-0.089383	0.995356	-0.443902	0.893763	0.064326	-0.895363	-0.439543	-0.071609	0	0	0
57893	0	0	0	0	0	9.790114	0.587748	-0.685317	0.003797	-0.022362	0.002753	-0.777344	-0.289551	-0.364014	0.668195	0.188496	-0.707386	0.132628	138.188829	-84.468146	-111.908524	-0.035969	-0.089437	0.995343	-0.443922	0.893758	0.064267	-0.895343	-0.439542	-0.071851	0	0	0
57894	0	0	0	0	0	9.786208	0.606166	-0.635873	0.013017	-0.009320	0.007446	-0.775146	-0.279541	-0.355469	0.668139	0.188503	-0.707425	0.132692	138.285339	-84.467493	-111.999138	-0.036115	-0.089391	0.995342	-0.444016	0.893719	0.064154	-0.895291	-0.439631	-0.071967	0	0	0
57895	0	0	0	0	0	9.747107	0.554047	-0.714385	0.012633	-0.015480	0.005185	-0.781250	-0.280762	-0.357422	0.668062	0.188520	-0.707484	0.132740	138.396286	-84.463299	-112.104608	-0.036307	-0.089392	0.995335	-0.444107	0.893681	0.064062	-0.895238	-0.439709	-0.072146	0	0	0
57896	0	0	0	0	0	9.736518	0.545815	-0.644341	0.024158	-0.024509	0.006157	-0.774658	-0.282715	-0.356201	0.667942	0.188578	-0.707565	0.132825	138.552789	-84.455605	-112.249084	-0.036582	-0.089424	0.995322	-0.444302	0.893592	0.063954	-0.895130	-0.439884	-0.072421	0	0	0
57897	0	0	0	0	0	9.730470	0.583441	-0.685239	0.032979	-0.028402	0.009666	-0.780273	-0.288574	-0.354004	0.667798	0.188654	-0.707659	0.132948	138.746308	-84.447487	-112.425970	-0.036912	-0.089441	0.995308	-0.444570	0.893469	0.063802	-0.894983	-0.440129	-0.072742	0	0	0
57898	0	0	0	0	0	9.734734	0.585645	-0.654285	0.017694	-0.032538	0.013134	-0.782227	-0.288818	-0.356934	0.667651	0.188671	-0.707778	0.133026	138.960213	-84.438867	-112.631845	-0.037291	-0.089446	0.995293	-0.444704	0.893415	0.063628	-0.894901	-0.440238	-0.073093	0	0	0
57899	0	0	0	0	0	9.801231	0.634260	-0.601116	-0.003800	-0.028746	0.022693	-0.777588	-0.288574	-0.357178	0.667530	0.188584	-0.707908	0.133065	139.190092	-84.435237	-112.865634	-0.037680	-0.089351	0.995287	-0.444651	0.893459	0.063375	-0.894911	-0.440167	-0.073395	0	0	0
57900	0	0	0	0	0	9.783319	0.662693	-0.429776	-0.017333	-0.030577	0.021482	-0.790039	-0.285400	-0.358643	0.667417	0.188454	-0.708052	0.133049	139.412535	-84.430431	-113.100255	-0.038078	-0.089272	0.995279	-0.444468	0.893566	0.063144	-0.894985	-0.439966	-0.073704	0	0	0
57901	0	0	0	0	0	9.818910	0.643623	-0.470998	-0.029817	-0.039666	0.031091	-0.780518	-0.284668	-0.361084	0.667277	0.188255	-0.708244	0.133012	139.705894	-84.425042	-113.413176	-0.038603	-0.089149	0.995270	-0.444173	0.893736	0.062827	-0.895109	-0.439647	-0.074098	0	0	0
57902	0	0	0	0	0	9.835215	0.609944	-0.508247	-0.025193	-0.030742	0.024847	-0.781982	-0.292725	-0.360107	0.667169	0.188087	-0.708396	0.132979	139.938679	-84.421202	-113.662716	-0.039017	-0.089041	0.995263	-0.443919	0.893880	0.062568	-0.895217	-0.439375	-0.074404	0	0	0
57903	0	0	0	0	0	9.790749	0.617215	-0.541281	-0.016297	-0.030453	0.026472	-0.775146	-0.284668	-0.354004	0.667053	0.187944	-0.708543	0.132984	140.181905	-84.417932	-113.917381	-0.039436	-0.088919	0.995258	-0.443747	0.893985	0.062288	-0.895284	-0.439186	-0.074712	0	0	0
57904	0	0	0	0	0	9.805511	0.625758	-0.582563	-0.004418	-0.036716	0.024950	-0.781494	-0.288574	-0.353516	0.666904	0.187849	-0.708702	0.133019	140.448683	-84.411287	-114.189120	-0.039904	-0.088836	0.995247	-0.443679	0.894038	0.062013	-0.895297	-0.439095	-0.075091	0	0	0
57905	0	0	0	0	0	9.765466	0.636355	-0.582281	0.006757	-0.037759	0.027297	-0.778320	-0.283936	-0.351807	0.666738	0.187787	-0.708859	0.133102	140.736097	-84.404767	-114.474649	-0.040393	-0.088739	0.995236	-0.443717	0.894040	0.061707	-0.895256	-0.439110	-0.075488	0	0	0
57906	0	0	0	0	0	9.745221	0.596809	-0.667414	-0.005031	-0.044674	0.027225	-0.782227	-0.289307	-0.354980	0.666560	0.187686	-0.709046	0.133135	141.040763	-84.395142	-114.784818	-0.040943	-0.088671	0.995219	-0.443642	0.894098	0.061410	-0.895268	-0.439007	-0.075945	0	0	0
57907	0	0	0	0	0	9.780540	0.577520	-0.709821	-0.014591	-0.046328	0.028674	-0.779785	-0.288330	-0.353271	0.666383	0.187554	-0.709247	0.133140	141.351955	-84.384995	-115.106529	-0.041515	-0.088599	0.995202	-0.443489	0.894195	0.061107	-0.895318	-0.438824	-0.076416	0	0	0
57908	0	0	0	0	0	9.765663	0.563816	-0.675895	-0.011266	-0.040134	0.028581	-0.778320	-0.279541	-0.366455	0.666226	0.187425	-0.709425	0.133160	141.640684	-84.377569	-115.404282	-0.042030	-0.088499	0.995189	-0.443357	0.894281	0.060801	-0.895359	-0.438668	-0.076824	0	0	0
57909	0	0	0	0	0	9.759927	0.556873	-0.573809	-0.027820	-0.046179	0.031609	-0.778564	-0.278809	-0.354980	0.666061	0.187233	-0.709637	0.133124	141.953989	-84.368374	-115.736412	-0.042612	-0.088398	0.995173	-0.443073	0.894443	0.060478	-0.895472	-0.438357	-0.077281	0	0	0
57910	0	0	0	0	0	9.801884	0.563892	-0.637200	-0.027014	-0.043832	0.030598	-0.780762	-0.281738	-0.354248	0.665904	0.187047	-0.709839	0.133091	142.254394	-84.359677	-116.054975	-0.043169	-0.088295	0.995158	-0.442799	0.894600	0.060165	-0.895581	-0.438057	-0.077716	0	0	0
57911	0	0	0	0	0	9.755170	0.547681	-0.616272	-0.028119	-0.044775	0.032200	-0.784424	-0.283447	-0.353271	0.665744	0.186851	-0.710047	0.133058	142.564602	-84.350931	-116.384214	-0.043743	-0.088182	0.995143	-0.442511	0.894765	0.059835	-0.895696	-0.437744	-0.078161	0	0	0
57912	0	0	0	0	0	9.794991	0.531501	-0.624988	-0.022437	-0.053094	0.031223	-0.779785	-0.276855	-0.350586	0.665549	0.186684	-0.710278	0.133034	142.900867	-84.337885	-116.736188	-0.044386	-0.088114	0.995121	-0.442277	0.894902	0.059512	-0.895780	-0.437477	-0.078692	0	0	0
57913	0	0	0	0	0	9.786800	0.544255	-0.612997	-0.024885	-0.052750	0.028430	-0.777832	-0.283691	-0.352783	0.665359	0.186518	-0.710507	0.132993	143.221235	-84.323768	-117.073607	-0.045016	-0.088069	0.995097	-0.442022	0.895048	0.059218	-0.895874	-0.437189	-0.079220	0	0	0
57914	0	0	0	0	0	9.783334	0.496337	-0.648182	-0.018306	-0.054525	0.024576	-0.775391	-0.278320	-0.355713	0.665160	0.186390	-0.710734	0.132961	143.530793	-84.307403	-117.396380	-0.045642	-0.088066	0.995068	-0.441827	0.895161	0.058958	-0.895938	-0.436957	-0.079767	0	0	0
57915	0	0	0	0	0	9.736530	0.480771	-0.628245	-0.019860	-0.055038	0.024714	-0.790039	-0.283691	-0.347412	0.664960	0.186256	-0.710963	0.132923	143.839547	-84.290673	-117.719202	-0.046273	-0.088065	0.995039	-0.441619	0.895280	0.058699	-0.896008	-0.436713	-0.080318	0	0	0
57916	0	0	0	0	0	9.768208	0.416465	-0.701826	-0.011572	-0.055321	0.022780	-0.785156	-0.278564	-0.346191	0.664753	0.186157	-0.711185	0.132908	144.143648	-84.272991	-118.032632	-0.046898	-0.088082	0.995009	-0.441486	0.895362	0.058452	-0.896042	-0.436541	-0.080878	0	0	0
57917	0	0	0	0	0	9.745246	0.354469	-0.733347	-0.012114	-0.059091	0.023175	-0.788330	-0.277344	-0.358154	0.664530	0.186059	-0.711422	0.132891	144.461754	-84.253336	-118.360040	-0.047563	-0.088113	0.994974	-0.441354	0.895444	0.058200	-0.896072	-0.436367	-0.081479	0	0	0
57918	0	0	0	0	0	9.749617	0.355323	-0.705182	-0.008053	-0.062151	0.029738	-0.779785	-0.279053	-0.351807	0.664291	0.185951	-0.711671	0.132905	144.818514	-84.234418	-118.724391	-0.048280	-0.088096	0.994941	-0.441248	0.895517	0.057881	-0.896086	-0.436221	-0.082108	0	0	0
57919	0	0	0	0	0	9.773318	0.370213	-0.681353	-0.012702	-0.063684	0.030166	-0.793457	-0.280273	-0.355469	0.664050	0.185824	-0.711930	0.132901	145.177509	-84.214746	-119.094046	-0.049014	-0.088082	0.994907	-0.441094	0.895613	0.057561	-0.896121	-0.436026	-0.082749	0	0	0
57920	0	0	0	0	0	9.744191	0.346131	-0.751134	-0.002277	-0.056318	0.032418	-0.782471	-0.274170	-0.349854	0.663824	0.185722	-0.712158	0.132950	145.526627	-84.198998	-119.447413	-0.049690	-0.088016	0.994879	-0.441038	0.895663	0.057210	-0.896112	-0.435937	-0.083324	0	0	0
57921	0	0	0	0	0	9.681520	0.360724	-0.697738	0.005571	-0.070181	0.033988	-0.786865	-0.280518	-0.352051	0.663540	0.185647	-0.712430	0.133018	145.930386	-84.176977	-119.851548	-0.050500	-0.087995	0.994840	-0.441046	0.895683	0.056836	-0.896062	-0.435900	-0.084042	0	0	0
57922	0	0	0	0	0	9.733676	0.331618	-0.692993	0.010956	-0.091108	0.038562	-0.791748	-0.274414	-0.349121	0.663173	0.185589	-0.712770	0.133102	146.419205	-84.146118	-120.337750	-0.051516	-0.088025	0.994785	-0.441105	0.895681	0.056413	-0.895976	-0.435899	-0.084970	0	0	0
57923	0	0	0	0	0	9.747621	0.338683	-0.740108	0.018302	-0.091362	0.040279	-0.783936	-0.278076	-0.346191	0.662797	0.185549	-0.713109	0.133218	146.916973	-84.115242	-120.828951	-0.052543	-0.088041	0.994730	-0.441226	0.895649	0.055965	-0.895857	-0.435960	-0.085906	0	0	0
57924	0	0	0	0	0	9.745387	0.311412	-0.693887	0.031386	-0.089156	0.039937	-0.785400	-0.273438	-0.353271	0.662417	0.185553	-0.713431	0.133381	147.407743	-84.084902	-121.305401	-0.053547	-0.088051	0.994676	-0.441466	0.895559	0.055511	-0.895679	-0.436143	-0.086826	0	0	0
57925	0	0	0	0	0	9.758841	0.253105	-0.682186	0.019819	-0.097471	0.039293	-0.790283	-0.278809	-0.352295	0.662019	0.185524	-0.713787	0.133492	147.908782	-84.049964	-121.799175	-0.054624	-0.088102	0.994613	-0.441598	0.895521	0.055072	-0.895549	-0.436211	-0.087822	0	0	0
57926	0	0	0	0	0	9.747655	0.283187	-0.623288	0.028958	-0.092861	0.047654	-0.789063	-0.280518	-0.342041	0.661622	0.185495	-0.714129	0.133669	148.434402	-84.019294	-122.312121	-0.055695	-0.088059	0.994557	-0.441811	0.895448	0.054543	-0.895377	-0.436369	-0.088777	0	0	0
57927	0	0	0	0	0	9.690800	0.258691	-0.675358	0.031588	-0.104624	0.044250	-0.789307	-0.279541	-0.344727	0.661183	0.185496	-0.714505	0.133834	148.973666	-83.981315	-122.837095	-0.056857	-0.088099	0.994488	-0.442053	0.895359	0.054044	-0.895185	-0.436543	-0.089852	0	0	0
57928	0	0	0	0	0	9.705648	0.222859	-0.720515	0.041380	-0.118445	0.047084	-0.795654	-0.279785	-0.341553	0.660683	0.185527	-0.714922	0.134029	149.562471	-83.936864	-123.406492	-0.058154	-0.088174	0.994406	-0.442377	0.895232	0.053509	-0.894942	-0.436790	-0.091067	0	0	0
57929	0	0	0	0	0	9.766648	0.199645	-0.792479	0.032416	-0.126134	0.051290	-0.785400	-0.278076	-0.337891	0.660160	0.185521	-0.715374	0.134201	150.178475	-83.889085	-124.008072	-0.059540	-0.088246	0.994318	-0.442623	0.895144	0.052939	-0.894729	-0.436956	-0.092357	0	0	0
57930	0	0	0	0	0	9.714332	0.177874	-0.812767	0.041571	-0.120721	0.053016	-0.791504	-0.276123	-0.337646	0.659648	0.185533	-0.715804	0.134415	150.783399	-83.843915	-124.593670	-0.060884	-0.088278	0.994233	-0.442943	0.895020	0.052344	-0.894480	-0.437202	-0.093595	0	0	0
57931	0	0	0	0	0	9.722364	0.155995	-0.701939	0.048520	-0.130387	0.056338	-0.789551	-0.273193	-0.338867	0.659090	0.185565	-0.716263	0.134657	151.424303	-83.794023	-125.211082	-0.062331	-0.088324	0.994140	-0.443329	0.894866	0.051708	-0.894189	-0.437508	-0.094935	0	0	0
57932	0	0	0	0	0	9.694621	0.151490	-0.692573	0.060599	-0.118355	0.056483	-0.798340	-0.280762	-0.341309	0.658566	0.185625	-0.716675	0.134952	152.032210	-83.749636	-125.788817	-0.063669	-0.088316	0.994056	-0.443816	0.894662	0.051059	-0.893853	-0.437926	-0.096158	0	0	0
57933	0	0	0	0	0	9.684988	0.138105	-0.632622	0.054149	-0.135401	0.059987	-0.796387	-0.273193	-0.333984	0.657983	0.185664	-0.717149	0.135221	152.685626	-83.696807	-126.415968	-0.065176	-0.088351	0.993955	-0.444243	0.894489	0.050379	-0.893532	-0.438274	-0.097548	0	0	0
57934	0	0	0	0	0	9.711080	0.130225	-0.667682	0.067182	-0.140665	0.065328	-0.789795	-0.273193	-0.343018	0.657365	0.185729	-0.717637	0.135548	153.371682	-83.641916	-127.068650	-0.066752	-0.088362	0.993849	-0.444780	0.894263	0.049635	-0.893149	-0.438731	-0.098996	0	0	0
57935	0	0	0	0	0	9.699507	0.116069	-0.749574	0.080662	-0.146369	0.072111	-0.791016	-0.278809	-0.338135	0.656710	0.185815	-0.718141	0.135939	154.098771	-83.584969	-127.755159	-0.068411	-0.088337	0.993739	-0.445428	0.893986	0.048806	-0.892700	-0.439300	-0.100506	0	0	0
57936	0	0	0	0	0	9.690938	0.124059	-0.747414	0.064721	-0.160822	0.075325	-0.797607	-0.268799	-0.334717	0.656014	0.185850	-0.718704	0.136271	154.848907	-83.520326	-128.473898	-0.070211	-0.088350	0.993612	-0.445934	0.893780	0.047962	-0.892308	-0.439717	-0.102151	0	0	0
57937	0	0	0	0	0	9.677902	0.086465	-0.775931	0.059254	-0.167128	0.074101	-0.795654	-0.268799	-0.339111	0.655301	0.185873	-0.719291	0.136574	155.589506	-83.451112	-129.186410	-0.072063	-0.088400	0.993475	-0.446387	0.893598	0.047134	-0.891933	-0.440078	-0.103856	0	0	0
57938	0	0	0	0	0	9.694262	0.050663	-0.932735	0.100636	-0.166245	0.075232	-0.793701	-0.280029	-0.332031	0.654552	0.186029	-0.719846	0.137029	156.341028	-83.381531	-129.886024	-0.073910	-0.088439	0.993336	-0.447210	0.893232	0.046252	-0.891370	-0.440811	-0.105570	0	0	0
57939	0	0	0	0	0	9.655872	0.247525	-0.736653	0.115253	-0.182489	0.074181	-0.801025	-0.278076	-0.326416	0.653731	0.186247	-0.720442	0.137518	157.112006	-83.302202	-130.596987	-0.075897	-0.088560	0.993175	-0.448160	0.892802	0.045362	-0.890726	-0.441658	-0.107450	0	0	0
57940	0	0	0	0	0	9.687156	0.176880	-0.683816	0.104736	-0.202118	0.072454	-0.799072	-0.279541	-0.324463	0.652848	0.186450	-0.721108	0.137946	157.887349	-83.210899	-131.318451	-0.078051	-0.088786	0.992988	-0.449016	0.892415	0.044500	-0.890108	-0.442395	-0.109520	0	0	0
57941	0	0	0	0	0	9.732506	0.204299	-0.785220	0.125112	-0.192917	0.067713	-0.800781	-0.274414	-0.327637	0.651981	0.186736	-0.721723	0.138444	158.617692	-83.122248	-131.982131	-0.080102	-0.089018	0.992804	-0.450069	0.891926	0.043660	-0.889394	-0.443333	-0.111509	0	0	0
57942	0	0	0	0	0	9.684787	0.249276	-0.837493	0.111300	-0.198097	0.061968	-0.800049	-0.279053	-0.327393	0.651112	0.186995	-0.722359	0.138864	159.305497	-83.028807	-132.611898	-0.082171	-0.089323	0.992607	-0.450988	0.891499	0.042890	-0.888739	-0.444130	-0.113539	0	0	0
57943	0	0	0	0	0	9.727248	0.105449	-0.955729	0.104526	-0.208761	0.057663	-0.800293	-0.276611	-0.320313	0.650214	0.187257	-0.723028	0.139237	159.970054	-82.927944	-133.221998	-0.084314	-0.089716	0.992392	-0.451853	0.891095	0.042169	-0.888099	-0.444860	-0.115671	0	0	0
57944	0	0	0	0	0	9.748142	0.156013	-0.845229	0.121221	-0.204357	0.053608	-0.800293	-0.265869	-0.322021	0.649317	0.187583	-0.723668	0.139660	160.602168	-82.827781	-133.790179	-0.086400	-0.090128	0.992175	-0.452863	0.890615	0.041467	-0.887384	-0.445736	-0.117765	0	0	0
57945	0	0	0	0	0	9.773997	0.128522	-0.938565	0.093800	-0.208804	0.049688	-0.806152	-0.281250	-0.310303	0.648432	0.187835	-0.724337	0.139966	161.192898	-82.723780	-134.332729	-0.088508	-0.090594	0.991947	-0.453629	0.890255	0.040831	-0.886785	-0.446362	-0.119891	0	0	0
57946	0	0	0	0	0	9.707974	0.054621	-0.921152	0.106355	-0.187448	0.047901	-0.808350	-0.270020	-0.312744	0.647613	0.188121	-0.724924	0.140332	161.736634	-82.630336	-134.820647	-0.090417	-0.090984	0.991739	-0.454508	0.889835	0.040198	-0.886142	-0.447119	-0.121809	0	0	0
57947	0	0	0	0	0	9.651769	0.137055	-0.905181	0.152669	-0.206212	0.039936	-0.809326	-0.270020	-0.312744	0.646684	0.188602	-0.725532	0.140826	162.286779	-82.524478	-135.287670	-0.092457	-0.091533	0.991501	-0.455814	0.889194	0.039584	-0.885260	-0.448280	-0.123935	0	0	0
57948	0	0	0	0	0	9.714938	0.113480	-0.847867	0.168773	-0.227720	0.039831	-0.804688	-0.268799	-0.306396	0.645664	0.189147	-0.726196	0.141354	162.857690	-82.406450	-135.767160	-0.094683	-0.092181	0.991230	-0.457250	0.888485	0.038949	-0.884284	-0.449552	-0.126274	0	0	0
57949	0	0	0	0	0	9.710038	0.231992	-0.778603	0.218802	-0.235960	0.038294	-0.806885	-0.270996	-0.311768	0.644565	0.189862	-0.726850	0.142051	163.446702	-82.282962	-136.236251	-0.096977	-0.092880	0.990943	-0.459124	0.887548	0.038258	-0.883063	-0.451255	-0.128716	0	0	0
57950	0	0	0	0	0	9.744349	0.380862	-0.827612	0.179557	-0.243029	0.032911	-0.808105	-0.268066	-0.305908	0.643481	0.190477	-0.727546	0.142580	163.981380	-82.154172	-136.673213	-0.099303	-0.093666	0.990639	-0.460655	0.886779	0.037669	-0.882007	-0.452602	-0.131208	0	0	0
57951	0	0	0	0	0	9.749581	0.342143	-1.025968	0.152105	-0.240081	0.023360	-0.797119	-0.272217	-0.309082	0.642439	0.191031	-0.728242	0.142980	164.445476	-82.025097	-137.055349	-0.101559	-0.094522	0.990329	-0.461945	0.886128	0.037204	-0.881075	-0.453699	-0.133658	0	0	0
57952	0	0	0	0	0	9.722384	0.258697	-1.123999	0.128127	-0.245636	0.011500	-0.807861	-0.267822	-0.299561	0.641407	0.191559	-0.728959	0.143250	164.840713	-81.890676	-137.381521	-0.103805	-0.095515	0.990001	-0.463041	0.885569	0.036888	-0.880237	-0.454582	-0.136154	0	0	0
57953	0	0	0	0	0	9.770639	0.334864	-1.096356	0.109840	-0.231641	0.002249	-0.811768	-0.270752	-0.300781	0.640450	0.192049	-0.729635	0.143436	165.165159	-81.762502	-137.647212	-0.105883	-0.096525	0.989683	-0.463979	0.885087	0.036684	-0.879496	-0.455307	-0.138501	0	0	0
57954	0	0	0	0	0	9.725452	0.196395	-1.075340	0.070796	-0.222172	-0.005259	-0.806885	-0.269287	-0.292480	0.639568	0.192437	-0.730300	0.143465	165.419864	-81.638139	-137.864772	-0.107841	-0.097563	0.989369	-0.464586	0.884771	0.036608	-0.878937	-0.455699	-0.140741	0	0	0
57955	0	0	0	0	0	9.660250	0.066175	-1.103507	0.090870	-0.221480	-0.006625	-0.806152	-0.273193	-0.298828	0.638669	0.192891	-0.730947	0.143564	165.675083	-81.513834	-138.071531	-0.109790	-0.098607	0.989052	-0.465366	0.884365	0.036512	-0.878283	-0.456263	-0.142982	0	0	0
57956	0	0	0	0	0	9.639131	-0.010792	-1.165501	0.129899	-0.237439	-0.005287	-0.806152	-0.272705	-0.295654	0.637673	0.193479	-0.731617	0.143794	165.963721	-81.380702	-138.289304	-0.111879	-0.099718	0.988706	-0.466492	0.883779	0.036349	-0.877422	-0.457156	-0.145394	0	0	0
57957	0	0	0	0	0	9.628302	0.004990	-1.276832	0.174990	-0.218800	-0.004511	-0.815186	-0.279541	-0.293457	0.636700	0.194191	-0.732193	0.144209	166.257096	-81.258078	-138.486040	-0.113805	-0.100735	0.988383	-0.468006	0.882987	0.036106	-0.876367	-0.458460	-0.147633	0	0	0
57958	0	0	0	0	0	9.642687	0.017667	-1.411722	0.193978	-0.251737	-0.004643	-0.809570	-0.281982	-0.287354	0.635586	0.194990	-0.732859	0.144661	166.581721	-81.116738	-138.703227	-0.116017	-0.101912	0.988005	-0.469689	0.882104	0.035835	-0.875175	-0.459898	-0.150206	0	0	0
57959	0	0	0	0	0	9.598942	0.070993	-1.434390	0.227860	-0.239341	-0.000107	-0.812500	-0.278564	-0.287598	0.634479	0.195875	-0.733462	0.145266	166.922674	-80.982746	-138.916771	-0.118138	-0.102997	0.987641	-0.471670	0.881062	0.035463	-0.873825	-0.461651	-0.152667	0	0	0
57960	0	0	0	0	0	9.646841	0.209064	-1.364002	0.229978	-0.258783	0.002226	-0.816895	-0.281494	-0.281494	0.633296	0.196767	-0.734127	0.145864	167.280355	-80.837964	-139.146711	-0.120437	-0.104154	0.987242	-0.473655	0.880013	0.035059	-0.872437	-0.463389	-0.155320	0	0	0
57961	0	0	0	0	0	9.657096	0.345176	-1.517940	0.210179	-0.245310	0.007070	-0.819580	-0.277100	-0.286621	0.632176	0.197571	-0.734766	0.146420	167.624354	-80.701115	-139.373962	-0.122639	-0.105211	0.986859	-0.475463	0.879054	0.034631	-0.871145	-0.464968	-0.157830	0	0	0
57962	0	0	0	0	0	9.646766	0.382604	-1.760447	0.196089	-0.239271	0.012857	-0.813965	-0.275391	-0.270752	0.631086	0.198302	-0.735400	0.146945	167.966938	-80.568117	-139.608459	-0.124813	-0.106192	0.986481	-0.477133	0.878167	0.034164	-0.869923	-0.466419	-0.160274	0	0	0
57963	0	0	0	0	0	9.509240	0.452826	-1.835605	0.191088	-0.216530	0.017384	-0.822021	-0.283936	-0.275391	0.630080	0.198981	-0.735970	0.147490	168.299362	-80.448198	-139.835728	-0.126811	-0.107028	0.986136	-0.478749	0.877306	0.033652	-0.868745	-0.467845	-0.162491	0	0	0
57964	0	0	0	0	0	9.523522	0.458271	-1.684327	0.146746	-0.226311	0.016618	-0.819824	-0.288818	-0.272461	0.629082	0.199533	-0.736601	0.147858	168.602261	-80.322480	-140.058820	-0.128885	-0.107922	0.985769	-0.479981	0.876650	0.033220	-0.867760	-0.468869	-0.164787	0	0	0
57965	0	0	0	0	0	9.446410	0.444561	-1.759605	0.113948	-0.218210	0.031641	-0.820068	-0.284912	-0.274170	0.628133	0.199925	-0.737242	0.148165	168.923068	-80.202700	-140.318316	-0.130958	-0.108653	0.985416	-0.480921	0.876154	0.032693	-0.866928	-0.469626	-0.166993	0	0	0
57966	0	0	0	0	0	9.533490	0.377937	-1.828552	0.081370	-0.224597	0.039520	-0.824463	-0.277100	-0.271484	0.627187	0.200185	-0.737936	0.148365	169.248004	-80.080025	-140.601958	-0.133124	-0.109342	0.985049	-0.481553	0.875828	0.032139	-0.866248	-0.470075	-0.169248	0	0	0
57967	0	0	0	0	0	9.554373	0.306656	-1.917200	0.063329	-0.210483	0.044334	-0.815186	-0.279541	-0.271729	0.626307	0.200359	-0.738603	0.148529	169.562813	-79.965612	-140.885827	-0.135191	-0.109922	0.984703	-0.482021	0.875591	0.031565	-0.865667	-0.470381	-0.171356	0	0	0
57968	0	0	0	0	0	9.580819	0.258057	-1.848996	0.042981	-0.218675	0.038011	-0.819092	-0.283447	-0.266357	0.625422	0.200499	-0.739303	0.148589	169.843467	-79.845605	-141.147038	-0.137296	-0.110598	0.984336	-0.482320	0.875443	0.031089	-0.865169	-0.470497	-0.173539	0	0	0
57969	0	0	0	0	0	9.595865	0.268101	-1.876839	0.007705	-0.224778	0.029585	-0.818848	-0.282227	-0.256592	0.624555	0.200565	-0.740038	0.148486	170.074525	-79.721251	-141.378227	-0.139410	-0.111376	0.983951	-0.482328	0.875451	0.030757	-0.864826	-0.470300	-0.175767	0	0	0
57970	0	0	0	0	0	9.587252	0.289225	-2.134139	0.003192	-0.229287	0.015238	-0.815186	-0.278076	-0.260498	0.623685	0.200672	-0.740777	0.148317	170.256003	-79.592659	-141.562001	-0.141496	-0.112301	0.983548	-0.482313	0.875465	0.030574	-0.864496	-0.470052	-0.178039	0	0	0
57971	0	0	0	0	0	9.629390	0.278960	-2.130542	0.007480	-0.236121	-0.000634	-0.823486	-0.281738	-0.257813	0.622794	0.200861	-0.741516	0.148110	170.390976	-79.458451	-141.695408	-0.143565	-0.113399	0.983122	-0.482366	0.875437	0.030539	-0.864125	-0.469841	-0.180382	0	0	0
57972	0	0	0	0	0	9.714971	0.322207	-2.161909	0.042028	-0.197028	-0.007522	-0.819824	-0.279297	-0.260254	0.622020	0.201149	-0.742100	0.148045	170.501762	-79.345761	-141.784777	-0.145260	-0.114371	0.982761	-0.482719	0.875244	0.030509	-0.863645	-0.469965	-0.182347	0	0	0
57973	0	0	0	0	0	9.722295	0.307550	-2.090511	-0.003997	-0.170536	-0.017915	-0.827393	-0.279053	-0.254639	0.621397	0.201314	-0.742625	0.147806	170.540387	-79.247046	-141.827241	-0.146676	-0.115310	0.982441	-0.482693	0.875252	0.030664	-0.863419	-0.469720	-0.184038	0	0	0
57974	0	0	0	0	0	9.514139	0.085197	-2.345205	0.028995	-0.142503	-0.028556	-0.827148	-0.286133	-0.258545	0.620853	0.201599	-0.743027	0.147682	170.551776	-79.163164	-141.823081	-0.147798	-0.116209	0.982167	-0.482964	0.875096	0.030863	-0.863077	-0.469790	-0.185462	0	0	0
57975	0	0	0	0	0	9.582700	-0.030264	-2.395246	0.054760	-0.145157	-0.031468	-0.822998	-0.279785	-0.253906	0.620274	0.201979	-0.743415	0.147644	170.570783	-79.077459	-141.811228	-0.148928	-0.117148	0.981884	-0.483468	0.874812	0.031043	-0.862600	-0.470086	-0.186922	0	0	0
57976	0	0	0	0	0	9.458046	-0.263608	-2.432657	0.095330	-0.127966	-0.031039	-0.816406	-0.283447	-0.261719	0.619719	0.202467	-0.743720	0.147774	170.605645	-79.001562	-141.792262	-0.149912	-0.118002	0.981632	-0.484314	0.874340	0.031141	-0.861955	-0.470750	-0.188224	0	0	0
57977	0	0	0	0	0	9.366056	-0.244090	-2.389996	0.147071	-0.145501	-0.022557	-0.822510	-0.272461	-0.259277	0.619040	0.203098	-0.744047	0.148105	170.702414	-78.916782	-141.806090	-0.151081	-0.118863	0.981349	-0.485594	0.873632	0.031058	-0.861030	-0.471845	-0.189709	0	0	0
57978	0	0	0	0	0	9.388154	-0.134980	-2.714947	0.184825	-0.147199	-0.006063	-0.817871	-0.281982	-0.252197	0.618302	0.203785	-0.744369	0.148625	170.868309	-78.832312	-141.868399	-0.152349	-0.119592	0.981065	-0.487172	0.872765	0.030738	-0.859915	-0.473264	-0.191226	0	0	0
57979	0	0	0	0	0	9.216283	-0.126880	-2.904716	0.172763	-0.164716	-0.009320	-0.826904	-0.292969	-0.255127	0.617515	0.204454	-0.744749	0.149070	171.025134	-78.737924	-141.929110	-0.153747	-0.120427	0.980744	-0.488640	0.871954	0.030467	-0.858832	-0.474546	-0.192906	0	0	0
57980	0	0	0	0	0	9.297568	-0.233896	-3.142404	0.210658	-0.173422	-0.011128	-0.827881	-0.291992	-0.250732	0.616655	0.205258	-0.745126	0.149643	171.199658	-78.638095	-141.985163	-0.155211	-0.121329	0.980402	-0.490443	0.870952	0.030140	-0.857540	-0.476153	-0.194686	0	0	0
57981	0	0	0	0	0	9.206107	-0.085073	-3.340085	0.248318	-0.156239	-0.008485	-0.824951	-0.291992	-0.240967	0.615818	0.206162	-0.745419	0.150385	171.391852	-78.548353	-142.036463	-0.156530	-0.122134	0.980093	-0.492574	0.869763	0.029717	-0.856078	-0.478117	-0.196304	0	0	0
57982	0	0	0	0	0	9.301495	-0.065413	-3.204857	0.209372	-0.171144	-0.018703	-0.828857	-0.289307	-0.237793	0.614971	0.206988	-0.745778	0.150932	171.539636	-78.449104	-142.066019	-0.157932	-0.123097	0.979747	-0.494373	0.868751	0.029460	-0.854782	-0.479708	-0.198059	0	0	0
57983	0	0	0	0	0	9.405317	-0.083037	-2.958157	0.205867	-0.173270	-0.020319	-0.826416	-0.293701	-0.237305	0.614117	0.207820	-0.746143	0.151463	171.679751	-78.348172	-142.088660	-0.159342	-0.124095	0.979393	-0.496159	0.867739	0.029225	-0.853485	-0.481278	-0.199838	0	0	0
57984	0	0	0	0	0	9.382056	0.005623	-2.930087	0.183421	-0.163606	-0.029474	-0.824219	-0.285645	-0.237793	0.613331	0.208600	-0.746486	0.151887	171.777471	-78.252284	-142.082293	-0.160621	-0.125120	0.979054	-0.497749	0.866832	0.029119	-0.852319	-0.482646	-0.201510	0	0	0
57985	0	0	0	0	0	9.426350	0.179218	-2.572228	0.177682	-0.170836	-0.037487	-0.821777	-0.293945	-0.236816	0.612528	0.209404	-0.746844	0.152261	171.851983	-78.151461	-142.054821	-0.161919	-0.126256	0.978694	-0.499312	0.865933	0.029101	-0.851158	-0.483962	-0.203253	0	0	0
57986	0	0	0	0	0	9.546858	0.498504	-2.405175	0.135235	-0.178139	-0.047108	-0.820801	-0.282471	-0.239746	0.611750	0.210113	-0.747247	0.152436	171.879248	-78.045904	-142.004662	-0.163229	-0.127507	0.978314	-0.500517	0.865232	0.029259	-0.850199	-0.484887	-0.205051	0	0	0
57987	0	0	0	0	0	9.744882	0.627628	-2.481022	0.026820	-0.186539	-0.070952	-0.828369	-0.296631	-0.232422	0.611073	0.210587	-0.747731	0.152124	171.784410	-77.933777	-141.892983	-0.164487	-0.129007	0.977907	-0.500842	0.865023	0.029872	-0.849765	-0.484863	-0.206897	0	0	0
57988	0	0	0	0	0	9.917159	0.509110	-2.524608	-0.024300	-0.169083	-0.106879	-0.822021	-0.284424	-0.225830	0.610541	0.211024	-0.748163	0.151529	171.561524	-77.828359	-141.680422	-0.165418	-0.130731	0.977520	-0.500790	0.865016	0.030940	-0.849615	-0.484414	-0.208558	0	0	0
57989	0	0	0	0	0	9.938046	0.431305	-2.404283	-0.044492	-0.144885	-0.149238	-0.829346	-0.286865	-0.230225	0.610149	0.211544	-0.748491	0.150757	171.210982	-77.732534	-141.348357	-0.165934	-0.132709	0.977166	-0.500647	0.865043	0.032466	-0.849599	-0.483828	-0.209981	0	0	0
57990	0	0	0	0	0	9.849121	0.279466	-2.382760	-0.019814	-0.113695	-0.179576	-0.824219	-0.298584	-0.224121	0.609873	0.212225	-0.748673	0.150016	170.788338	-77.651427	-140.928555	-0.166031	-0.134793	0.976865	-0.500754	0.864912	0.034235	-0.849517	-0.483485	-0.211101	0	0	0
57991	0	0	0	0	0	9.705109	0.144436	-2.073600	0.039317	-0.092476	-0.201168	-0.829346	-0.292236	-0.225830	0.609626	0.213154	-0.748722	0.149454	170.340647	-77.579339	-140.447718	-0.165842	-0.136964	0.976595	-0.501409	0.864458	0.036090	-0.849168	-0.483688	-0.212038	0	0	0
57992	0	0	0	0	0	9.601016	0.042216	-1.924462	0.070929	-0.089873	-0.214711	-0.833008	-0.297119	-0.236328	0.609368	0.214224	-0.748723	0.148970	169.880411	-77.506842	-139.935933	-0.165557	-0.139235	0.976322	-0.502345	0.863832	0.038009	-0.848670	-0.484157	-0.212958	0	0	0
57993	0	0	0	0	0	9.375765	-0.105071	-1.841516	0.119816	-0.073418	-0.216167	-0.820313	-0.297119	-0.227295	0.609118	0.215435	-0.748636	0.148682	169.443060	-77.442634	-139.418826	-0.165125	-0.141435	0.976079	-0.503695	0.862963	0.039834	-0.847954	-0.485068	-0.213737	0	0	0
57994	0	0	0	0	0	9.185506	-0.141033	-1.858742	0.127167	-0.062399	-0.198797	-0.821289	-0.307617	-0.225098	0.608889	0.216596	-0.748527	0.148486	169.052248	-77.385649	-138.944903	-0.164681	-0.143434	0.975862	-0.505078	0.862076	0.041475	-0.847217	-0.486057	-0.214413	0	0	0
57995	0	0	0	0	0	9.094207	-0.343072	-1.855032	0.064685	-0.063062	-0.170274	-0.828369	-0.297363	-0.216064	0.608701	0.217466	-0.748495	0.148144	168.700354	-77.330702	-138.546773	-0.164382	-0.145194	0.975652	-0.505895	0.861524	0.042974	-0.846787	-0.486514	-0.215072	0	0	0
57996	0	0	0	0	0	9.020138	-0.492144	-1.865143	0.043999	-0.051764	-0.130630	-0.828125	-0.302734	-0.227051	0.608550	0.218111	-0.748488	0.147855	168.433532	-77.286208	-138.248595	-0.164189	-0.146552	0.975482	-0.506460	0.861133	0.044127	-0.846487	-0.486797	-0.215612	0	0	0
57997	0	0	0	0	0	8.896021	-0.594763	-1.906643	0.004466	-0.064914	-0.094284	-0.826416	-0.301270	-0.223877	0.608362	0.218508	-0.748591	0.147517	168.244607	-77.237997	-138.053191	-0.164299	-0.147660	0.975296	-0.506634	0.860986	0.045005	-0.846362	-0.486724	-0.216269	0	0	0
57998	0	0	0	0	0	8.890295	-0.567452	-2.040891	0.012348	-0.038905	-0.050774	-0.821289	-0.307861	-0.227295	0.608234	0.218748	-0.748655	0.147366	168.153774	-77.209653	-137.953965	-0.164401	-0.148267	0.975187	-0.506800	0.860865	0.045447	-0.846242	-0.486753	-0.216669	0	0	0
57999	0	0	0	0	0	8.960742	-0.361028	-2.046395	0.003451	-0.039606	-0.017203	-0.825439	-0.306885	-0.217041	0.608088	0.218837	-0.748763	0.147285	168.141526	-77.184885	-137.940299	-0.164679	-0.148589	0.975091	-0.506839	0.860835	0.045580	-0.846165	-0.486708	-0.217072	0	0	0
58000	0	0	0	0	0	9.241516	-0.233742	-2.151692	-0.023252	-0.048028	-0.003667	-0.821533	-0.302979	-0.219482	0.607930	0.218798	-0.748932	0.147135	168.151530	-77.156950	-137.965390	-0.165097	-0.148835	0.974983	-0.506626	0.860957	0.045640	-0.846211	-0.486417	-0.217545	0	0	0
58001	0	0	0	0	0	9.595640	-0.055075	-2.141979	-0.020009	-0.048504	-0.004810	-0.829834	-0.310303	-0.217773	0.607764	0.218779	-0.749100	0.146997	168.161483	-77.128251	-137.987779	-0.165518	-0.149097	0.974871	-0.506454	0.861055	0.045702	-0.846232	-0.486163	-0.218031	0	0	0
58002	0	0	0	0	0	9.490653	-0.091313	-2.001127	-0.048607	-0.041652	-0.024980	-0.828613	-0.306885	-0.222900	0.607673	0.218739	-0.749245	0.146693	168.101357	-77.101381	-137.955836	-0.165775	-0.149496	0.974767	-0.506062	0.861268	0.046025	-0.846416	-0.485662	-0.218430	0	0	0
58003	0	0	0	0	0	9.528221	0.007369	-2.051162	-0.051568	-0.043150	-0.041984	-0.825439	-0.304199	-0.225586	0.607589	0.218760	-0.749378	0.146329	167.999226	-77.071349	-137.881726	-0.165960	-0.150053	0.974649	-0.505685	0.861463	0.046521	-0.846605	-0.485145	-0.218848	0	0	0
58004	0	0	0	0	0	9.452353	-0.103999	-2.140032	-0.102255	-0.035565	-0.065693	-0.829834	-0.302490	-0.212646	0.607609	0.218705	-0.749499	0.145708	167.806545	-77.042971	-137.745305	-0.165960	-0.150772	0.974539	-0.504906	0.861874	0.047358	-0.847070	-0.484191	-0.219162	0	0	0
58005	0	0	0	0	0	9.344007	-0.329042	-2.053353	-0.136806	-0.035715	-0.071053	-0.823486	-0.308350	-0.213135	0.607667	0.218566	-0.749641	0.144944	167.583513	-77.013496	-137.597686	-0.165941	-0.151537	0.974423	-0.503847	0.862441	0.048319	-0.847704	-0.482942	-0.219465	0	0	0
58006	0	0	0	0	0	9.313384	-0.473023	-2.021143	-0.137012	-0.027754	-0.064631	-0.827881	-0.304199	-0.219971	0.607752	0.218395	-0.749764	0.144204	167.370794	-76.989394	-137.461108	-0.165881	-0.152209	0.974328	-0.502770	0.863018	0.049223	-0.848355	-0.481698	-0.219684	0	0	0
58007	0	0	0	0	0	9.073907	-0.634626	-2.289822	-0.143437	-0.003736	-0.059110	-0.822998	-0.311035	-0.228027	0.607927	0.218172	-0.749825	0.143487	167.156323	-76.978875	-137.325689	-0.165652	-0.152722	0.974287	-0.501640	0.863625	0.050085	-0.849068	-0.480445	-0.219673	0	0	0
58008	0	0	0	0	0	8.940743	-0.978359	-2.482476	-0.175570	0.010298	-0.049560	-0.824707	-0.304443	-0.224365	0.608186	0.217800	-0.749875	0.142690	166.937799	-76.977725	-137.205815	-0.165347	-0.153082	0.974283	-0.500209	0.864406	0.050927	-0.849972	-0.478924	-0.219499	0	0	0
58009	0	0	0	0	0	8.690685	-0.953769	-2.196297	-0.142444	0.039579	-0.034798	-0.826416	-0.305664	-0.219482	0.608508	0.217454	-0.749827	0.142095	166.757290	-76.994884	-137.105171	-0.164864	-0.153173	0.974350	-0.499037	0.865046	0.051551	-0.850754	-0.477738	-0.219054	0	0	0
58010	0	0	0	0	0	8.613281	-0.585677	-1.943287	-0.121777	0.052033	-0.006861	-0.825195	-0.312256	-0.224854	0.608834	0.217055	-0.749758	0.141675	166.648696	-77.022470	-137.066498	-0.164417	-0.152965	0.974458	-0.497990	0.865631	0.051858	-0.851453	-0.476744	-0.218499	0	0	0
58011	0	0	0	0	0	8.820655	-0.218948	-2.332560	-0.093989	0.032092	0.010436	-0.827637	-0.300049	-0.217773	0.609039	0.216696	-0.749748	0.141393	166.609674	-77.040971	-137.082071	-0.164228	-0.152706	0.974531	-0.497162	0.866102	0.051934	-0.851973	-0.475971	-0.218158	0	0	0
58012	0	0	0	0	0	9.134723	0.195559	-2.450475	-0.116476	0.039890	0.006126	-0.823975	-0.311279	-0.221680	0.609304	0.216273	-0.749725	0.141019	166.542227	-77.063498	-137.082509	-0.163949	-0.152444	0.974619	-0.496137	0.866679	0.052101	-0.852624	-0.475003	-0.217724	0	0	0
58013	0	0	0	0	0	9.490803	0.264924	-2.247541	-0.210956	0.037896	-0.032530	-0.831055	-0.305176	-0.222412	0.609686	0.215713	-0.749735	0.140175	166.329431	-77.079278	-136.988548	-0.163502	-0.152529	0.974680	-0.494380	0.867638	0.052846	-0.853730	-0.473222	-0.217268	0	0	0
58014	0	0	0	0	0	9.620205	0.546351	-2.288402	-0.224103	0.025621	-0.069773	-0.828369	-0.304443	-0.225098	0.610066	0.215256	-0.749748	0.139150	166.024052	-77.083476	-136.808142	-0.162969	-0.152994	0.974697	-0.492557	0.868604	0.053986	-0.854885	-0.471296	-0.216914	0	0	0
58015	0	0	0	0	0	9.708726	0.553484	-2.561049	-0.288309	0.037617	-0.110632	-0.828125	-0.317627	-0.225830	0.610583	0.214750	-0.749726	0.137777	165.577435	-77.088007	-136.520047	-0.162142	-0.153759	0.974714	-0.490255	0.869800	0.055656	-0.856364	-0.468835	-0.216412	0	0	0
58016	0	0	0	0	0	9.669893	0.175899	-2.534687	-0.329554	0.049206	-0.162046	-0.830078	-0.304199	-0.222656	0.611226	0.214300	-0.749637	0.136100	164.973202	-77.091202	-136.095029	-0.160958	-0.154920	0.974727	-0.487670	0.871105	0.057921	-0.858062	-0.466022	-0.215761	0	0	0
58017	0	0	0	0	0	9.463177	-0.119817	-2.294422	-0.312061	0.056333	-0.201326	-0.826660	-0.303955	-0.228027	0.611896	0.214054	-0.749471	0.134381	164.280300	-77.090774	-135.567607	-0.159530	-0.156400	0.974725	-0.485308	0.872246	0.060528	-0.859667	-0.463386	-0.215051	0	0	0
58018	0	0	0	0	0	9.285340	-0.089198	-2.077883	-0.271312	0.058474	-0.219782	-0.822266	-0.310059	-0.229248	0.612545	0.213991	-0.749248	0.132754	163.564152	-77.087666	-134.993533	-0.157992	-0.158028	0.974713	-0.483300	0.873169	0.063226	-0.861080	-0.461090	-0.214329	0	0	0
58019	0	0	0	0	0	9.412387	0.331732	-2.366658	-0.201446	0.056682	-0.220446	-0.827637	-0.317383	-0.228271	0.613109	0.214147	-0.748983	0.131389	162.890028	-77.081653	-134.420954	-0.156477	-0.159672	0.974690	-0.481896	0.873756	0.065774	-0.862143	-0.459407	-0.213668	0	0	0
58020	0	0	0	0	0	9.550642	0.653702	-2.243333	-0.228736	0.068843	-0.235771	-0.817383	-0.318359	-0.232666	0.613760	0.214266	-0.748678	0.129884	162.153316	-77.078327	-133.800734	-0.154778	-0.161397	0.974677	-0.480268	0.874440	0.068533	-0.863358	-0.457498	-0.212858	0	0	0
58021	0	0	0	0	0	9.687737	0.857111	-2.280157	-0.228814	0.074619	-0.265150	-0.821533	-0.314941	-0.234619	0.614445	0.214501	-0.748322	0.128300	161.342832	-77.070575	-133.103544	-0.152893	-0.163365	0.974646	-0.478697	0.875057	0.071579	-0.864565	-0.455617	-0.211993	0	0	0
58022	0	0	0	0	0	9.803205	0.903765	-2.448362	-0.258348	0.079570	-0.300124	-0.824707	-0.318848	-0.230713	0.615205	0.214761	-0.747930	0.126496	160.430157	-77.057027	-132.320148	-0.150800	-0.165610	0.974593	-0.476896	0.875752	0.075024	-0.865927	-0.453466	-0.211043	0	0	0
58023	0	0	0	0	0	9.792802	1.062041	-2.379479	-0.304920	0.105933	-0.330652	-0.811523	-0.323242	-0.231201	0.616126	0.214981	-0.747451	0.124458	159.399995	-77.048324	-131.442667	-0.148344	-0.168011	0.974559	-0.474738	0.876587	0.078858	-0.867535	-0.450963	-0.209798	0	0	0
58024	0	0	0	0	0	9.764859	0.948763	-2.336517	-0.380741	0.096271	-0.357704	-0.821289	-0.317383	-0.232422	0.617109	0.215067	-0.747014	0.122037	158.272759	-77.025523	-130.510973	-0.145845	-0.170696	0.974470	-0.471936	0.877707	0.083114	-0.869486	-0.447766	-0.208567	0	0	0
58025	0	0	0	0	0	9.781761	1.008817	-2.329557	-0.364110	0.113036	-0.389885	-0.820801	-0.318359	-0.239502	0.618147	0.215320	-0.746476	0.119601	157.070845	-76.999828	-129.491641	-0.143063	-0.173601	0.974369	-0.469325	0.878666	0.087640	-0.871359	-0.444758	-0.207180	0	0	0
58026	0	0	0	0	0	9.772296	0.984468	-2.319942	-0.390046	0.124314	-0.416863	-0.822510	-0.328125	-0.244629	0.619272	0.215578	-0.745883	0.116991	155.784792	-76.969434	-128.402220	-0.140058	-0.176695	0.974250	-0.466490	0.879678	0.092480	-0.873367	-0.441526	-0.205632	0	0	0
58027	0	0	0	0	0	9.735692	1.011512	-2.363021	-0.409636	0.130244	-0.439120	-0.817383	-0.323242	-0.238770	0.620444	0.215854	-0.745255	0.114248	154.439818	-76.930961	-127.263233	-0.136914	-0.179964	0.974098	-0.463501	0.880709	0.097564	-0.875455	-0.438138	-0.203995	0	0	0
58028	0	0	0	0	0	9.687290	0.929797	-2.243919	-0.461264	0.131645	-0.460771	-0.813965	-0.322998	-0.241455	0.621686	0.216047	-0.744618	0.111241	153.021861	-76.881688	-126.079936	-0.133661	-0.183430	0.973903	-0.460059	0.881898	0.102962	-0.877770	-0.434291	-0.202264	0	0	0
58029	0	0	0	0	0	9.591262	0.855675	-2.149629	-0.456996	0.141013	-0.469590	-0.812744	-0.337891	-0.246582	0.622951	0.216277	-0.743936	0.108237	151.590556	-76.827845	-124.879724	-0.130313	-0.186940	0.973690	-0.456646	0.883018	0.108417	-0.880053	-0.430504	-0.200434	0	0	0
58030	0	0	0	0	0	9.565202	0.810568	-2.255661	-0.467567	0.162077	-0.474694	-0.807617	-0.326660	-0.252197	0.624307	0.216481	-0.743177	0.105195	150.124456	-76.776540	-123.650184	-0.126755	-0.190419	0.973485	-0.453114	0.884140	0.113944	-0.882395	-0.426657	-0.198351	0	0	0
58031	0	0	0	0	0	9.506014	0.954410	-1.998249	-0.483501	0.176868	-0.486028	-0.806641	-0.336670	-0.252441	0.625730	0.216668	-0.742360	0.102076	148.620248	-76.721796	-122.390069	-0.123035	-0.193946	0.973266	-0.449435	0.885271	0.119596	-0.884800	-0.422706	-0.196085	0	0	0
58032	0	0	0	0	0	9.377886	1.236981	-2.150047	-0.486254	0.190723	-0.489311	-0.801758	-0.338135	-0.257568	0.627204	0.216847	-0.741486	0.098947	147.099631	-76.665323	-121.114962	-0.119184	-0.197457	0.973039	-0.445698	0.886374	0.125278	-0.887214	-0.418751	-0.193648	0	0	0
58033	0	0	0	0	0	9.436327	1.515466	-2.452848	-0.540661	0.167878	-0.490279	-0.806396	-0.344238	-0.256836	0.628642	0.216869	-0.740701	0.095592	145.591382	-76.589777	-119.883711	-0.115553	-0.201085	0.972735	-0.441456	0.887660	0.131057	-0.889811	-0.414276	-0.191342	0	0	0
58034	0	0	0	0	0	9.490836	0.828222	-2.252638	-0.685989	0.187234	-0.488366	-0.800049	-0.341553	-0.266113	0.630302	0.216413	-0.739914	0.091719	143.990849	-76.516352	-118.643357	-0.111770	-0.204633	0.972437	-0.435875	0.889506	0.137083	-0.893040	-0.408539	-0.188615	0	0	0
58035	0	0	0	0	0	9.206984	0.445788	-2.150393	-0.669533	0.203558	-0.469990	-0.794434	-0.344727	-0.271973	0.631980	0.215931	-0.739076	0.087985	142.429131	-76.448659	-117.432313	-0.107950	-0.207969	0.972160	-0.430388	0.891265	0.142873	-0.896166	-0.402983	-0.185719	0	0	0
58036	0	0	0	0	0	9.137785	0.410403	-2.083458	-0.674797	0.231746	-0.445577	-0.795654	-0.347900	-0.263428	0.633750	0.215324	-0.738163	0.084334	140.879646	-76.394774	-116.237194	-0.103993	-0.210995	0.971940	-0.424781	0.893047	0.148419	-0.899303	-0.397427	-0.182497	0	0	0
58037	0	0	0	0	0	9.185550	0.651990	-2.121732	-0.646032	0.248424	-0.439379	-0.794434	-0.350342	-0.270020	0.635534	0.214777	-0.737180	0.080829	139.345794	-76.342821	-115.040282	-0.099936	-0.213920	0.971726	-0.419399	0.894675	0.153825	-0.902285	-0.392168	-0.179128	0	0	0
58038	0	0	0	0	0	9.214854	0.912291	-2.046265	-0.658269	0.266925	-0.448915	-0.798584	-0.354004	-0.276367	0.637395	0.214213	-0.736119	0.077263	137.768126	-76.287698	-113.805873	-0.095681	-0.216878	0.971498	-0.413867	0.896286	0.159327	-0.905295	-0.386827	-0.175517	0	0	0
58039	0	0	0	0	0	8.909622	1.071750	-1.899535	-0.700644	0.287634	-0.454184	-0.788086	-0.348877	-0.285645	0.639362	0.213526	-0.734992	0.073551	136.138883	-76.230737	-112.542155	-0.091245	-0.219828	0.971262	-0.407931	0.897994	0.164922	-0.908442	-0.381159	-0.171612	0	0	0
58040	0	0	0	0	0	8.696722	1.187269	-2.034965	-0.721032	0.302452	-0.457725	-0.790527	-0.356445	-0.285156	0.641400	0.212772	-0.733803	0.069761	134.477358	-76.170072	-111.257821	-0.086668	-0.222776	0.971010	-0.401755	0.899723	0.170562	-0.911637	-0.375326	-0.167478	0	0	0
58041	0	0	0	0	0	8.751117	1.304208	-2.085730	-0.742772	0.322768	-0.458637	-0.786865	-0.356201	-0.289795	0.643519	0.211942	-0.732543	0.065913	132.783744	-76.108081	-109.952371	-0.081928	-0.225680	0.970750	-0.395346	0.901472	0.176208	-0.914871	-0.369345	-0.163078	0	0	0
58042	0	0	0	0	0	9.095032	1.545646	-2.415774	-0.709946	0.338584	-0.450228	-0.789307	-0.352295	-0.295898	0.645648	0.211175	-0.731213	0.062224	131.105989	-76.046582	-108.644090	-0.077087	-0.228479	0.970492	-0.389177	0.903067	0.181692	-0.917932	-0.363687	-0.158534	0	0	0
58043	0	0	0	0	0	10.143384	1.600113	-3.056877	-0.708624	0.318158	-0.421173	-0.780518	-0.359619	-0.294922	0.647674	0.210309	-0.729968	0.058615	129.525200	-75.981247	-107.434054	-0.072577	-0.231112	0.970216	-0.382964	0.904669	0.186850	-0.920908	-0.357997	-0.154165	0	0	0
58044	0	0	0	0	0	11.051363	0.690914	-3.422269	-0.633522	0.292220	-0.388327	-0.777344	-0.360840	-0.301758	0.649510	0.209570	-0.728802	0.055353	128.090291	-75.913603	-106.330232	-0.068433	-0.233566	0.969930	-0.377375	0.906033	0.191553	-0.923529	-0.352919	-0.150145	0	0	0
58045	0	0	0	0	0	11.283862	-0.029201	-3.665144	-0.365914	0.256913	-0.373982	-0.778076	-0.361084	-0.304443	0.650920	0.209661	-0.727687	0.053081	126.907935	-75.833767	-105.327303	-0.064692	-0.236031	0.969590	-0.374238	0.906450	0.195691	-0.925074	-0.350197	-0.146972	0	0	0
58046	0	0	0	0	0	10.630364	0.185346	-2.628154	-0.078818	0.234038	-0.360822	-0.771484	-0.370850	-0.313721	0.651943	0.210637	-0.726576	0.051867	125.958005	-75.747957	-104.395153	-0.061204	-0.238459	0.969222	-0.373715	0.905884	0.199276	-0.925522	-0.350017	-0.144560	0	0	0
58047	0	0	0	0	0	9.910694	1.416929	-1.860104	0.161090	0.192022	-0.342373	-0.769775	-0.367920	-0.312500	0.652550	0.212343	-0.725557	0.051545	125.259582	-75.653319	-103.579378	-0.058179	-0.240862	0.968814	-0.375405	0.904507	0.202330	-0.925033	-0.351926	-0.143044	0	0	0
58048	0	0	0	0	0	9.883068	3.337916	-1.101059	0.327299	0.166029	-0.294215	-0.770996	-0.378174	-0.305420	0.652874	0.214417	-0.724626	0.051950	124.772363	-75.570775	-102.883955	-0.055562	-0.242910	0.968456	-0.378578	0.902653	0.204686	-0.923900	-0.355263	-0.142114	0	0	0
58049	0	0	0	0	0	9.900632	5.055238	-0.253401	0.352249	0.161182	-0.262124	-0.764648	-0.368408	-0.310059	0.653138	0.216462	-0.723736	0.052551	124.357242	-75.500315	-102.246967	-0.053111	-0.244677	0.968149	-0.381968	0.900765	0.206693	-0.922648	-0.358824	-0.141299	0	0	0
58050	0	0	0	0	0	10.269161	5.998217	-0.199531	0.225793	0.173766	-0.268242	-0.768799	-0.376465	-0.310791	0.653587	0.218106	-0.722827	0.052681	123.842171	-75.429827	-101.582393	-0.050509	-0.246443	0.967840	-0.384170	0.899309	0.208944	-0.921880	-0.361261	-0.140099	0	0	0
58051	0	0	0	0	0	10.747981	6.273621	-0.473464	0.043782	0.213451	-0.319326	-0.765869	-0.384033	-0.312988	0.654386	0.219330	-0.721780	0.052034	123.096738	-75.345776	-100.786858	-0.047348	-0.248515	0.967470	-0.384716	0.898374	0.211938	-0.921820	-0.362167	-0.138144	0	0	0
58052	0	0	0	0	0	11.359765	5.813329	-0.588967	-0.159963	0.275057	-0.391284	-0.764648	-0.381836	-0.312988	0.655649	0.220129	-0.720500	0.050479	122.044879	-75.242692	-99.795308	-0.043336	-0.251012	0.967013	-0.383399	0.897990	0.215913	-0.922566	-0.361395	-0.135153	0	0	0
58053	0	0	0	0	0	11.150278	5.116253	-0.852319	-0.361612	0.305397	-0.445112	-0.768311	-0.387451	-0.319580	0.657249	0.220454	-0.719107	0.048059	120.778019	-75.117243	-98.699678	-0.038849	-0.253887	0.966453	-0.380233	0.898181	0.220667	-0.924074	-0.358905	-0.131429	0	0	0
58054	0	0	0	0	0	10.388730	4.125157	-1.149005	-0.536772	0.343298	-0.456633	-0.754395	-0.388916	-0.325439	0.659175	0.220230	-0.717608	0.045008	119.347160	-74.990422	-97.538212	-0.033975	-0.256742	0.965883	-0.375414	0.898946	0.225745	-0.926234	-0.354936	-0.126926	0	0	0
58055	0	0	0	0	0	9.614507	3.126007	-1.588750	-0.653069	0.351342	-0.440010	-0.756592	-0.394531	-0.319336	0.661241	0.219561	-0.716116	0.041606	117.874792	-74.866617	-96.401519	-0.029108	-0.259439	0.965321	-0.369485	0.900124	0.230776	-0.928781	-0.349954	-0.122060	0	0	0
58056	0	0	0	0	0	9.318904	1.776430	-1.990844	-0.600332	0.338394	-0.427152	-0.758057	-0.392578	-0.328857	0.663190	0.219016	-0.714657	0.038417	116.489406	-74.738646	-95.323539	-0.024422	-0.262087	0.964735	-0.363997	0.901113	0.235588	-0.931080	-0.345408	-0.117406	0	0	0
58057	0	0	0	0	0	9.126942	0.847889	-1.531548	-0.399874	0.349663	-0.433432	-0.747070	-0.388184	-0.327881	0.664949	0.219157	-0.713107	0.035940	115.214311	-74.603615	-94.239247	-0.019626	-0.264769	0.964112	-0.360362	0.901357	0.240199	-0.932606	-0.342715	-0.113102	0	0	0
58058	0	0	0	0	0	8.605694	0.833826	-1.127346	-0.090500	0.347621	-0.443963	-0.744873	-0.393311	-0.334229	0.666360	0.220359	-0.711487	0.034524	114.129594	-74.456843	-93.168739	-0.014812	-0.267554	0.963429	-0.359575	0.900500	0.244550	-0.932999	-0.342803	-0.109544	0	0	0
58059	0	0	0	0	0	8.291930	1.653711	-0.881785	0.198492	0.330915	-0.458552	-0.746826	-0.398682	-0.349854	0.667388	0.222578	-0.709853	0.034072	113.251163	-74.293784	-92.139098	-0.010104	-0.270516	0.962662	-0.361474	0.898596	0.248719	-0.932328	-0.345464	-0.106864	0	0	0
58060	0	0	0	0	0	8.162998	2.977039	-0.715036	0.350446	0.296468	-0.459557	-0.752197	-0.403320	-0.334473	0.668121	0.225309	-0.708298	0.034114	112.541067	-74.118602	-91.193657	-0.005701	-0.273588	0.961830	-0.364756	0.896144	0.252742	-0.931086	-0.349393	-0.104901	0	0	0
58061	0	0	0	0	0	8.189249	3.875335	-0.640114	0.307642	0.257487	-0.458119	-0.746094	-0.411377	-0.346680	0.668755	0.227898	-0.706877	0.033968	111.898965	-73.932850	-90.343195	-0.001658	-0.276759	0.960938	-0.367624	0.893818	0.256793	-0.929973	-0.352838	-0.103225	0	0	0
58062	0	0	0	0	0	8.312675	4.218218	-0.787868	0.155671	0.217847	-0.450321	-0.737305	-0.406982	-0.343506	0.669418	0.229955	-0.705616	0.033262	111.264528	-73.740164	-89.590968	0.001999	-0.279987	0.960002	-0.369052	0.892029	0.260931	-0.929407	-0.354812	-0.101547	0	0	0
58063	0	0	0	0	0	8.562495	3.900656	-0.554131	0.023429	0.192577	-0.436090	-0.736084	-0.413818	-0.344727	0.670135	0.231523	-0.704475	0.032111	110.627549	-73.547696	-88.913935	0.005368	-0.283166	0.959056	-0.369241	0.890732	0.265060	-0.929318	-0.355546	-0.099775	0	0	0
58064	0	0	0	0	0	8.558778	3.419807	-0.288390	-0.030346	0.169072	-0.413422	-0.733154	-0.423584	-0.349609	0.670827	0.232832	-0.703443	0.030816	110.031435	-73.360597	-88.311396	0.008438	-0.286223	0.958126	-0.368912	0.889679	0.269025	-0.929426	-0.355735	-0.098084	0	0	0
58065	0	0	0	0	0	8.788780	2.992898	-0.251904	-0.064633	0.163004	-0.399620	-0.730957	-0.421875	-0.346436	0.671529	0.233980	-0.702449	0.029443	109.449462	-73.178045	-87.743038	0.011397	-0.289174	0.957209	-0.368262	0.888773	0.272884	-0.929652	-0.355614	-0.096363	0	0	0
58066	0	0	0	0	0	9.028232	2.843378	-0.455340	-0.105636	0.165886	-0.409446	-0.729736	-0.417725	-0.345703	0.672290	0.235021	-0.701436	0.027893	108.844548	-72.988998	-87.175217	0.014418	-0.292200	0.956249	-0.367209	0.887974	0.276874	-0.930027	-0.355135	-0.094496	0	0	0
58067	0	0	0	0	0	9.236414	2.763543	-0.428144	-0.139519	0.170659	-0.416826	-0.717285	-0.429932	-0.341553	0.673103	0.235973	-0.700401	0.026208	108.221473	-72.795123	-86.607692	0.017503	-0.295271	0.955253	-0.365833	0.887259	0.280957	-0.930516	-0.354381	-0.092491	0	0	0
58068	0	0	0	0	0	9.174293	2.205844	-0.407078	-0.160376	0.196300	-0.417133	-0.724609	-0.424805	-0.342041	0.674028	0.236850	-0.699277	0.024476	107.553879	-72.603652	-86.005897	0.020825	-0.298254	0.954259	-0.364243	0.886606	0.285058	-0.931071	-0.353518	-0.090173	0	0	0
58069	0	0	0	0	0	8.966164	1.501251	-0.671948	-0.146347	0.218602	-0.382607	-0.727783	-0.432861	-0.350586	0.675005	0.237654	-0.698113	0.022939	106.888636	-72.432806	-85.396813	0.024223	-0.300851	0.953364	-0.362787	0.885989	0.288807	-0.931557	-0.352864	-0.087684	0	0	0
58070	0	0	0	0	0	8.683456	1.017728	-0.936749	-0.133794	0.237859	-0.324984	-0.717041	-0.436523	-0.354980	0.676026	0.238291	-0.696948	0.021660	106.237532	-72.294645	-84.795230	0.027589	-0.302868	0.952633	-0.361439	0.885496	0.291991	-0.931988	-0.352374	-0.085039	0	0	0
58071	0	0	0	0	0	8.407131	0.587287	-1.014392	-0.121772	0.238055	-0.253144	-0.715820	-0.436768	-0.357910	0.677022	0.238721	-0.695864	0.020669	105.637930	-72.194200	-84.239476	0.030693	-0.304247	0.952098	-0.360222	0.885170	0.294473	-0.932362	-0.352005	-0.082428	0	0	0
58072	0	0	0	0	0	8.176323	0.204796	-0.910631	-0.083328	0.242885	-0.151476	-0.714111	-0.433838	-0.354736	0.677977	0.238923	-0.694878	0.020158	105.104693	-72.148899	-83.730685	0.033475	-0.304711	0.951856	-0.359379	0.885019	0.295954	-0.932591	-0.351984	-0.079880	0	0	0
58073	0	0	0	0	0	7.824018	0.087295	-0.472222	-0.036500	0.260017	-0.039366	-0.715820	-0.446045	-0.362549	0.678923	0.238895	-0.693963	0.020215	104.622498	-72.166958	-83.246662	0.036013	-0.304119	0.951953	-0.359017	0.885041	0.296325	-0.932636	-0.352439	-0.077311	0	0	0
58074	0	0	0	0	0	7.907536	0.504750	-0.375186	0.078771	0.270870	0.064339	-0.715332	-0.440430	-0.362305	0.679757	0.238894	-0.693122	0.021032	104.231163	-72.242845	-82.789456	0.038280	-0.302571	0.952358	-0.359758	0.884975	0.295624	-0.932260	-0.353935	-0.074975	0	0	0
58075	0	0	0	0	0	8.065734	1.551376	-0.279654	0.151661	0.286962	0.102693	-0.712402	-0.435059	-0.354004	0.680553	0.239009	-0.692262	0.022257	103.867274	-72.341514	-82.316599	0.040557	-0.300619	0.952882	-0.361208	0.884759	0.294501	-0.931603	-0.356132	-0.072703	0	0	0
58076	0	0	0	0	0	8.102316	2.312953	-0.211973	0.186219	0.257589	0.108264	-0.713867	-0.439941	-0.360352	0.681206	0.239221	-0.691503	0.023580	103.571799	-72.438314	-81.895847	0.042536	-0.298719	0.953393	-0.362970	0.884434	0.293307	-0.930830	-0.358529	-0.070806	0	0	0
58077	0	0	0	0	0	8.273575	2.569637	-0.263519	0.094276	0.212283	0.087936	-0.715820	-0.436768	-0.369141	0.681810	0.239199	-0.690883	0.024467	103.292326	-72.517311	-81.546511	0.044163	-0.297154	0.953808	-0.363881	0.884370	0.292369	-0.930398	-0.359984	-0.069072	0	0	0
58078	0	0	0	0	0	8.429426	2.279841	-0.462516	0.000772	0.177296	0.085237	-0.724121	-0.435303	-0.367432	0.682407	0.238868	-0.690390	0.024974	103.016563	-72.589534	-81.258177	0.045475	-0.295739	0.954186	-0.363909	0.884637	0.291527	-0.930324	-0.360494	-0.067393	0	0	0
58079	0	0	0	0	0	8.127996	1.498065	-0.725210	-0.072370	0.137492	0.102553	-0.722168	-0.430664	-0.368164	0.682950	0.238234	-0.690063	0.025245	102.775535	-72.666172	-81.049716	0.046352	-0.294311	0.954585	-0.363275	0.885215	0.290563	-0.930528	-0.360245	-0.065884	0	0	0
58080	0	0	0	0	0	7.716442	0.392856	-0.982559	-0.076335	0.095166	0.155413	-0.718750	-0.442871	-0.366455	0.683346	0.237407	-0.689942	0.025628	102.626953	-72.766587	-80.941102	0.046647	-0.292570	0.955106	-0.362620	0.885962	0.289100	-0.930769	-0.359826	-0.064764	0	0	0
58081	0	0	0	0	0	7.572013	-0.310704	-0.389314	-0.047864	0.073479	0.241310	-0.716064	-0.428711	-0.368408	0.683619	0.236387	-0.689993	0.026382	102.568243	-72.912489	-80.908814	0.046427	-0.290141	0.955857	-0.362281	0.886850	0.286791	-0.930912	-0.359604	-0.063939	0	0	0
58082	0	0	0	0	0	7.766820	-0.516067	-0.537260	0.068195	0.072157	0.340134	-0.718262	-0.429199	-0.366699	0.683737	0.235419	-0.690148	0.027867	102.617579	-73.113260	-80.920732	0.045838	-0.286841	0.956881	-0.363056	0.887602	0.283466	-0.930639	-0.360395	-0.063453	0	0	0
58083	0	0	0	0	0	8.044797	0.044710	-1.042045	0.215707	0.060110	0.409619	-0.717041	-0.428223	-0.360352	0.683626	0.234719	-0.690403	0.030090	102.805332	-73.351624	-80.988221	0.044876	-0.282961	0.958081	-0.365242	0.888003	0.279372	-0.929830	-0.362469	-0.063499	0	0	0
58084	0	0	0	0	0	8.442224	0.737540	-1.012654	0.161133	0.040468	0.442522	-0.710693	-0.427734	-0.358154	0.683505	0.233718	-0.690768	0.032208	103.015862	-73.605496	-81.112703	0.043605	-0.278861	0.959341	-0.366919	0.888677	0.274998	-0.929230	-0.363992	-0.063568	0	0	0
58085	0	0	0	0	0	8.685132	0.800864	-1.126248	0.012980	0.098248	0.455271	-0.724365	-0.422363	-0.360840	0.683748	0.232160	-0.690970	0.033934	103.041472	-73.874166	-81.131749	0.042818	-0.274427	0.960654	-0.367236	0.889900	0.270584	-0.929142	-0.364373	-0.062676	0	0	0
58086	0	0	0	0	0	8.530808	0.919101	-1.419027	0.071383	0.133398	0.452611	-0.728516	-0.414307	-0.367676	0.684043	0.230800	-0.691035	0.035885	103.030238	-74.145602	-81.078699	0.042366	-0.269889	0.961959	-0.368075	0.890887	0.266159	-0.928830	-0.365349	-0.061596	0	0	0
58087	0	0	0	0	0	8.229308	0.937709	-1.274023	0.077630	0.097143	0.453627	-0.729004	-0.420898	-0.363525	0.684200	0.229465	-0.691221	0.037825	103.095633	-74.413263	-81.100812	0.041566	-0.265462	0.963225	-0.368982	0.891830	0.261709	-0.928507	-0.366291	-0.060881	0	0	0
58088	0	0	0	0	0	8.079250	0.546805	-1.024387	0.120709	0.098669	0.484625	-0.722412	-0.408447	-0.364746	0.684304	0.228166	-0.691424	0.040015	103.197901	-74.698062	-81.136336	0.040664	-0.260754	0.964548	-0.370284	0.892678	0.256935	-0.928028	-0.367605	-0.060254	0	0	0
58089	0	0	0	0	0	7.971738	0.485959	-0.011116	-0.004044	0.135414	0.543467	-0.733887	-0.416016	-0.372070	0.684659	0.226232	-0.691589	0.042025	103.184172	-75.020837	-81.124713	0.039878	-0.255373	0.966020	-0.370464	0.894106	0.251655	-0.927990	-0.367911	-0.058952	0	0	0
58090	0	0	0	0	0	8.283911	0.632140	-0.406583	0.095401	0.175328	0.590630	-0.734619	-0.404785	-0.360840	0.685026	0.224461	-0.691643	0.044577	103.164562	-75.374781	-81.049067	0.039285	-0.249420	0.967598	-0.371566	0.895261	0.245860	-0.927575	-0.369185	-0.057505	0	0	0
58091	0	0	0	0	0	8.349042	1.959417	-1.248955	0.356310	0.183844	0.617214	-0.733643	-0.400879	-0.360840	0.685113	0.223490	-0.691632	0.048140	103.290227	-75.745068	-80.968125	0.038655	-0.243184	0.969210	-0.375109	0.895469	0.239642	-0.926174	-0.372823	-0.056606	0	0	0
58092	0	0	0	0	0	8.588142	3.206333	-0.288009	0.218500	0.145095	0.598005	-0.742188	-0.398926	-0.364014	0.685218	0.222117	-0.691757	0.051108	103.412679	-76.099181	-80.966470	0.037721	-0.237262	0.970713	-0.377343	0.896104	0.233689	-0.925305	-0.375107	-0.055727	0	0	0
58093	0	0	0	0	0	8.806526	3.655312	-0.412401	0.094915	0.185470	0.546600	-0.739502	-0.399902	-0.363037	0.685605	0.220490	-0.691711	0.053525	103.346459	-76.430369	-80.842478	0.037341	-0.231636	0.972085	-0.378425	0.897039	0.228290	-0.924878	-0.376386	-0.054161	0	0	0
58094	0	0	0	0	0	9.217345	3.966924	-0.285315	0.033533	0.143119	0.469685	-0.742188	-0.396484	-0.354248	0.685931	0.218924	-0.691737	0.055411	103.295729	-76.712678	-80.771737	0.036858	-0.226860	0.973230	-0.378892	0.898004	0.223674	-0.924707	-0.376993	-0.052857	0	0	0
58095	0	0	0	0	0	8.941874	3.695523	-0.280521	-0.077786	0.169644	0.404323	-0.743896	-0.391357	-0.362061	0.686482	0.217199	-0.691628	0.056726	103.078585	-76.962279	-80.594410	0.036867	-0.222560	0.974222	-0.378325	0.899213	0.219741	-0.924938	-0.376673	-0.051049	0	0	0
58096	0	0	0	0	0	8.583379	3.172972	-0.235675	-0.114185	0.150071	0.363278	-0.740967	-0.380127	-0.361572	0.687016	0.215491	-0.691548	0.057743	102.856333	-77.185962	-80.434669	0.036855	-0.218704	0.975095	-0.377385	0.900459	0.216227	-0.925323	-0.375955	-0.049349	0	0	0
58097	0	0	0	0	0	8.346342	2.436639	-0.161392	-0.133542	0.120358	0.346362	-0.747314	-0.386719	-0.375000	0.687468	0.213786	-0.691555	0.058611	102.682340	-77.396618	-80.334895	0.036634	-0.215104	0.975904	-0.376275	0.901721	0.212877	-0.925783	-0.375007	-0.047905	0	0	0
58098	0	0	0	0	0	8.054122	2.075855	0.275818	0.010932	0.082828	0.372171	-0.738281	-0.385254	-0.364990	0.687628	0.212495	-0.691673	0.060018	102.695985	-77.616633	-80.343619	0.035972	-0.211413	0.976735	-0.376495	0.902488	0.209208	-0.925720	-0.375261	-0.047132	0	0	0
58099	0	0	0	0	0	8.296265	2.240702	0.610596	-0.058805	-0.039450	0.397042	-0.744873	-0.382568	-0.360107	0.687426	0.210919	-0.692257	0.061149	103.002594	-77.835251	-80.691879	0.034083	-0.207949	0.977546	-0.376090	0.903548	0.205320	-0.925956	-0.374644	-0.047412	0	0	0
58100	0	0	0	0	0	8.850875	2.346082	-0.441156	0.029576	-0.012576	0.415926	-0.744141	-0.377686	-0.362061	0.687218	0.209567	-0.692738	0.062670	103.311772	-78.067214	-80.991854	0.032374	-0.204214	0.978391	-0.376485	0.904309	0.201209	-0.925857	-0.374864	-0.047607	0	0	0
58101	0	0	0	0	0	9.209040	3.016615	0.149463	0.107207	0.004474	0.426125	-0.748535	-0.371094	-0.354248	0.686979	0.208446	-0.693143	0.064522	103.640153	-78.307059	-81.264426	0.030780	-0.200316	0.979248	-0.377616	0.904774	0.196951	-0.925451	-0.375842	-0.047793	0	0	0
58102	0	0	0	0	0	9.499191	3.559553	-0.146953	0.076083	0.085271	0.421397	-0.755615	-0.369629	-0.353516	0.687053	0.207202	-0.693273	0.066324	103.736530	-78.554743	-81.319464	0.029948	-0.196159	0.980115	-0.378430	0.905337	0.192756	-0.925145	-0.376678	-0.047119	0	0	0
58103	0	0	0	0	0	9.559361	3.775829	-0.467481	-0.011901	0.116577	0.387931	-0.747559	-0.374268	-0.364014	0.687332	0.205765	-0.693286	0.067747	103.675805	-78.788296	-81.264438	0.029530	-0.192179	0.980915	-0.378438	0.906142	0.188922	-0.925156	-0.376794	-0.045970	0	0	0
58104	0	0	0	0	0	9.676779	4.040173	-0.076586	-0.100497	0.158825	0.353683	-0.749268	-0.364014	-0.360840	0.687860	0.204122	-0.693146	0.068780	103.415086	-79.008159	-81.058582	0.029635	-0.188352	0.981654	-0.377595	0.907207	0.185467	-0.925497	-0.376164	-0.044236	0	0	0
58105	0	0	0	0	0	9.337970	3.891109	-0.209764	-0.129151	0.139973	0.298625	-0.757568	-0.367432	-0.363770	0.688366	0.202584	-0.693022	0.069513	103.147167	-79.194864	-80.860987	0.029776	-0.185090	0.982270	-0.376491	0.908256	0.182556	-0.925942	-0.375252	-0.042640	0	0	0
58106	0	0	0	0	0	9.439748	3.460060	0.096475	-0.230308	0.135320	0.245997	-0.753906	-0.363281	-0.359375	0.688977	0.200874	-0.692894	0.069701	102.789345	-79.351169	-80.632260	0.030078	-0.182325	0.982778	-0.374414	0.909583	0.180204	-0.926774	-0.373386	-0.040906	0	0	0
58107	0	0	0	0	0	9.322155	2.738052	-0.276240	-0.225942	0.152651	0.216285	-0.758545	-0.362549	-0.362305	0.689649	0.199282	-0.692673	0.069828	102.354597	-79.492892	-80.321538	0.030658	-0.179762	0.983232	-0.372388	0.910821	0.178134	-0.927571	-0.371605	-0.039017	0	0	0
58108	0	0	0	0	0	9.229231	2.898419	-0.481938	-0.051884	0.145775	0.194545	-0.760742	-0.358887	-0.371582	0.690132	0.198361	-0.692391	0.070466	102.015652	-79.621050	-80.008267	0.031258	-0.177425	0.983638	-0.371949	0.911375	0.176211	-0.927727	-0.371371	-0.037505	0	0	0
58109	0	0	0	0	0	9.337007	3.122267	0.015966	-0.046266	0.107828	0.179317	-0.756836	-0.362061	-0.366211	0.690480	0.197532	-0.692222	0.071042	101.780968	-79.736053	-79.796582	0.031564	-0.175365	0.983997	-0.371579	0.911868	0.174430	-0.927865	-0.371138	-0.036380	0	0	0
58110	0	0	0	0	0	9.460197	2.864941	-0.061097	-0.040145	0.101871	0.164759	-0.762207	-0.356689	-0.368896	0.690809	0.196770	-0.692056	0.071575	101.552778	-79.841891	-79.589245	0.031870	-0.173462	0.984325	-0.371241	0.912317	0.172792	-0.927989	-0.370929	-0.035321	0	0	0
58111	0	0	0	0	0	9.551158	2.513708	0.248312	-0.053175	0.079141	0.147444	-0.753906	-0.352783	-0.363770	0.691075	0.196037	-0.691956	0.071989	101.374768	-79.935411	-79.439227	0.032029	-0.171798	0.984611	-0.370798	0.912774	0.171326	-0.928161	-0.370580	-0.034467	0	0	0
58112	0	0	0	0	0	9.615353	2.437502	0.271024	0.026322	0.089713	0.147047	-0.762207	-0.346191	-0.368408	0.691301	0.195570	-0.691790	0.072679	101.204117	-80.029689	-79.251772	0.032289	-0.170100	0.984898	-0.371072	0.912940	0.169838	-0.928042	-0.370952	-0.033642	0	0	0
58113	0	0	0	0	0	9.556493	2.556044	0.243333	0.087981	0.074165	0.150419	-0.761719	-0.355225	-0.369385	0.691410	0.195315	-0.691658	0.073585	101.119093	-80.124186	-79.114348	0.032390	-0.168427	0.985182	-0.371937	0.912874	0.168294	-0.927693	-0.371877	-0.033076	0	0	0
58114	0	0	0	0	0	9.671037	2.483077	0.154811	0.096822	0.089363	0.168937	-0.761719	-0.355957	-0.364990	0.691556	0.195015	-0.691487	0.074594	100.997938	-80.230602	-78.936243	0.032562	-0.166529	0.985499	-0.372873	0.912810	0.166567	-0.927311	-0.372890	-0.032371	0	0	0
58115	0	0	0	0	0	9.887722	2.523858	0.140899	0.090934	0.088719	0.182278	-0.770020	-0.348633	-0.362549	0.691699	0.194656	-0.691333	0.075636	100.881845	-80.344485	-78.765442	0.032677	-0.164510	0.985834	-0.373779	0.912776	0.164708	-0.926942	-0.373866	-0.031664	0	0	0
58116	0	0	0	0	0	10.103346	2.757426	0.520711	0.044035	0.118174	0.206050	-0.750977	-0.353516	-0.364746	0.691981	0.194034	-0.691117	0.076618	100.650432	-80.474719	-78.506312	0.032974	-0.162164	0.986213	-0.374238	0.912961	0.162632	-0.926746	-0.374441	-0.030584	0	0	0
58117	0	0	0	0	0	10.038210	2.633240	0.266485	-0.033973	0.149179	0.228090	-0.764893	-0.345947	-0.367920	0.692434	0.193061	-0.690843	0.077445	100.276322	-80.620446	-78.146655	0.033476	-0.159499	0.986630	-0.374002	0.913459	0.160360	-0.926824	-0.374370	-0.029074	0	0	0
58118	0	0	0	0	0	9.921994	2.663898	0.238581	-0.017223	0.161800	0.229601	-0.757324	-0.352295	-0.360596	0.692915	0.192129	-0.690520	0.078339	99.856366	-80.767798	-77.732248	0.034090	-0.156772	0.987046	-0.373902	0.913899	0.158068	-0.926841	-0.374447	-0.027463	0	0	0
58119	0	0	0	0	0	9.904184	2.755978	0.391082	-0.066464	0.144482	0.218470	-0.752930	-0.347412	-0.369385	0.693384	0.191078	-0.690263	0.079016	99.450154	-80.906771	-77.359178	0.034586	-0.154211	0.987432	-0.373365	0.914491	0.155897	-0.927039	-0.374065	-0.025949	0	0	0
58120	0	0	0	0	0	9.824926	2.591494	0.263759	-0.108608	0.146050	0.215324	-0.763916	-0.335938	-0.370361	0.693901	0.189883	-0.690015	0.079530	98.999122	-81.043602	-76.966649	0.035109	-0.151672	0.987807	-0.372416	0.915239	0.153766	-0.927402	-0.373274	-0.024352	0	0	0
58121	0	0	0	0	0	9.733049	2.342931	0.226677	-0.112979	0.136674	0.221083	-0.764893	-0.340576	-0.374512	0.694385	0.188663	-0.689803	0.080047	98.570868	-81.182445	-76.598687	0.035528	-0.149115	0.988181	-0.371448	0.915997	0.151577	-0.927774	-0.372443	-0.022845	0	0	0
58122	0	0	0	0	0	9.846165	2.233704	0.201611	-0.129788	0.109396	0.229099	-0.762695	-0.334717	-0.368652	0.694787	0.187361	-0.689701	0.080500	98.224923	-81.323114	-76.325057	0.035666	-0.146585	0.988555	-0.370308	0.916831	0.149310	-0.928224	-0.371395	-0.021582	0	0	0
58123	0	0	0	0	0	10.065054	2.564826	0.273370	-0.117592	0.091558	0.231518	-0.763184	-0.335205	-0.372559	0.695112	0.186107	-0.689655	0.080994	97.945429	-81.463522	-76.110515	0.035633	-0.144099	0.988922	-0.369300	0.917608	0.147014	-0.928627	-0.370447	-0.020519	0	0	0
58124	0	0	0	0	0	10.230276	2.545802	0.273714	-0.162294	0.081382	0.229142	-0.762939	-0.332031	-0.375488	0.695445	0.184703	-0.689660	0.081310	97.668901	-81.601598	-75.926098	0.035517	-0.141671	0.989276	-0.367856	0.918547	0.144749	-0.929204	-0.369053	-0.019491	0	0	0
58125	0	0	0	0	0	10.428991	2.513835	0.168299	-0.169188	0.078459	0.225626	-0.765381	-0.330566	-0.381104	0.695772	0.183294	-0.689672	0.081593	97.391169	-81.737339	-75.743365	0.035391	-0.139285	0.989620	-0.366365	0.919492	0.142517	-0.929798	-0.367606	-0.018487	0	0	0
58126	0	0	0	0	0	10.566848	2.632790	0.149166	-0.125523	0.074866	0.217035	-0.762207	-0.334229	-0.374268	0.696051	0.182061	-0.689670	0.081986	97.140184	-81.867799	-75.563596	0.035266	-0.136991	0.989944	-0.365257	0.920264	0.140361	-0.930238	-0.366534	-0.017583	0	0	0
58127	0	0	0	0	0	10.636975	2.645765	0.137482	-0.139951	0.071087	0.200528	-0.766602	-0.333008	-0.380615	0.696334	0.180843	-0.689671	0.082276	96.881826	-81.988482	-75.383558	0.035170	-0.134862	0.990240	-0.364028	0.921053	0.138368	-0.930724	-0.365342	-0.016700	0	0	0
58128	0	0	0	0	0	10.666056	2.485809	0.132460	-0.144311	0.057838	0.181628	-0.767334	-0.323486	-0.375000	0.696583	0.179674	-0.689702	0.082466	96.658765	-82.097420	-75.242961	0.035021	-0.132954	0.990503	-0.362731	0.921834	0.136562	-0.931236	-0.364069	-0.015943	0	0	0
58129	0	0	0	0	0	10.818964	2.168099	-0.051162	-0.134577	0.073190	0.170083	-0.765625	-0.321533	-0.378418	0.696879	0.178578	-0.689663	0.082670	96.367746	-82.200664	-75.026953	0.035061	-0.131097	0.990749	-0.361539	0.922551	0.134867	-0.931697	-0.362923	-0.015051	0	0	0
58130	0	0	0	0	0	10.793529	1.919729	-0.084639	-0.110796	0.089575	0.159787	-0.767090	-0.329346	-0.382324	0.697215	0.177587	-0.689549	0.082927	96.009263	-82.298919	-74.730376	0.035292	-0.129274	0.990981	-0.360546	0.923172	0.133269	-0.932074	-0.361997	-0.014029	0	0	0
58131	0	0	0	0	0	10.606103	1.799598	0.063264	-0.058808	0.093478	0.152979	-0.768799	-0.312744	-0.377686	0.697519	0.176806	-0.689391	0.083350	95.653498	-82.393226	-74.405331	0.035586	-0.127501	0.991200	-0.360054	0.923585	0.131730	-0.932253	-0.361573	-0.013040	0	0	0
58132	0	0	0	0	0	10.506383	1.883389	-0.094986	-0.036640	0.076205	0.162619	-0.765869	-0.310303	-0.380371	0.697740	0.176069	-0.689293	0.083861	95.379901	-82.491883	-74.151657	0.035684	-0.125700	0.991426	-0.359753	0.923934	0.130091	-0.932365	-0.361311	-0.012251	0	0	0
58133	0	0	0	0	0	10.585732	2.028328	-0.199917	-0.004990	0.054077	0.166649	-0.761719	-0.319824	-0.385254	0.697854	0.175443	-0.689262	0.084481	95.216922	-82.591505	-73.990413	0.035562	-0.123942	0.991652	-0.359763	0.924165	0.128408	-0.932366	-0.361326	-0.011724	0	0	0
58134	0	0	0	0	0	10.749560	2.110085	-0.346314	-0.000468	0.034323	0.162780	-0.765381	-0.312012	-0.377197	0.697899	0.174849	-0.689294	0.085080	95.137797	-82.687888	-73.912044	0.035269	-0.122290	0.991868	-0.359799	0.924379	0.126763	-0.932363	-0.361344	-0.011398	0	0	0
58135	0	0	0	0	0	10.933424	1.997891	-0.336409	0.004445	0.018485	0.149883	-0.758789	-0.319092	-0.382568	0.697888	0.174330	-0.689367	0.085644	95.126314	-82.776033	-73.897933	0.034876	-0.120815	0.992062	-0.359894	0.924549	0.125245	-0.932341	-0.361405	-0.011236	0	0	0
58136	0	0	0	0	0	11.045881	1.980291	-0.203478	0.048158	0.023113	0.138113	-0.767090	-0.317871	-0.384033	0.697861	0.173995	-0.689396	0.086314	95.113095	-82.857757	-73.857942	0.034567	-0.119431	0.992241	-0.360373	0.924551	0.123838	-0.932168	-0.361858	-0.011081	0	0	0
58137	0	0	0	0	0	10.908445	2.077756	-0.333933	0.101155	0.020882	0.125254	-0.770752	-0.316650	-0.380371	0.697783	0.173898	-0.689396	0.087128	95.135580	-82.931951	-73.822108	0.034284	-0.118176	0.992401	-0.361361	0.924337	0.122554	-0.931795	-0.362817	-0.011014	0	0	0
58138	0	0	0	0	0	10.843826	2.003674	-0.224555	0.115683	0.016617	0.101258	-0.768555	-0.316895	-0.380615	0.697690	0.173928	-0.689385	0.087897	95.175292	-82.992312	-73.796479	0.034045	-0.117156	0.992530	-0.362456	0.924046	0.121505	-0.931379	-0.363885	-0.011005	0	0	0
58139	0	0	0	0	0	10.872843	1.967945	-0.157126	0.112009	0.014999	0.097718	-0.772949	-0.308105	-0.373291	0.697594	0.173966	-0.689376	0.088647	95.219909	-83.050480	-73.776711	0.033804	-0.116177	0.992653	-0.363535	0.923755	0.120493	-0.930967	-0.364937	-0.011008	0	0	0
58140	0	0	0	0	0	10.891984	1.885811	-0.295548	0.125734	0.018310	0.092913	-0.765137	-0.302002	-0.385742	0.697501	0.174059	-0.689347	0.089423	95.254106	-83.106173	-73.739732	0.033608	-0.115229	0.992770	-0.364719	0.923414	0.119526	-0.930511	-0.366099	-0.010991	0	0	0
58141	0	0	0	0	0	10.906770	1.906317	-0.211883	0.147828	0.006182	0.094206	-0.768555	-0.317383	-0.387451	0.697345	0.174235	-0.689350	0.090274	95.360035	-83.161877	-73.761390	0.033295	-0.114315	0.992887	-0.366122	0.922985	0.118544	-0.929971	-0.367465	-0.011122	0	0	0
58142	0	0	0	0	0	11.025793	1.679133	-0.251664	0.155521	-0.010639	0.094535	-0.774658	-0.317383	-0.375732	0.697124	0.174440	-0.689408	0.091133	95.551463	-83.216935	-73.865581	0.032822	-0.113458	0.993000	-0.367582	0.922531	0.117556	-0.929412	-0.368867	-0.011426	0	0	0
58143	0	0	0	0	0	11.160415	1.397076	-0.275151	0.186592	-0.027264	0.088738	-0.765381	-0.307861	-0.376953	0.696819	0.174787	-0.689504	0.092071	95.841536	-83.267573	-74.049963	0.032215	-0.112720	0.993104	-0.369346	0.921945	0.116624	-0.928733	-0.370556	-0.011932	0	0	0
58144	0	0	0	0	0	11.169257	1.372086	-0.333752	0.191802	-0.043763	0.086153	-0.775635	-0.316406	-0.371582	0.696455	0.175161	-0.689652	0.092997	96.216195	-83.315736	-74.317694	0.031463	-0.112065	0.993203	-0.371137	0.921340	0.115714	-0.928045	-0.372255	-0.012604	0	0	0
58145	0	0	0	0	0	11.120849	1.342838	-0.354960	0.202210	-0.047826	0.087690	-0.774658	-0.306152	-0.379639	0.696065	0.175576	-0.689810	0.093966	96.623112	-83.364183	-74.610760	0.030666	-0.111415	0.993301	-0.373041	0.920687	0.114787	-0.927308	-0.374061	-0.013328	0	0	0
58146	0	0	0	0	0	11.083047	1.274795	-0.272316	0.221854	-0.053643	0.088488	-0.772217	-0.312500	-0.381104	0.695637	0.176051	-0.689979	0.094995	97.074703	-83.412545	-74.938552	0.029810	-0.110779	0.993398	-0.375106	0.919964	0.113846	-0.926502	-0.376024	-0.014129	0	0	0
58147	0	0	0	0	0	11.063069	1.247443	-0.314013	0.232137	-0.058653	0.087878	-0.768555	-0.306396	-0.371582	0.695181	0.176572	-0.690158	0.096057	97.563237	-83.459778	-75.296652	0.028910	-0.110171	0.993492	-0.377279	0.919191	0.112910	-0.925648	-0.378088	-0.014992	0	0	0
58148	0	0	0	0	0	11.133084	1.158520	-0.289992	0.257514	-0.046447	0.096633	-0.771240	-0.305420	-0.367188	0.694741	0.177139	-0.690290	0.097243	98.016871	-83.512698	-75.605870	0.028087	-0.109436	0.993597	-0.379672	0.918331	0.111879	-0.924695	-0.380383	-0.015757	0	0	0
58149	0	0	0	0	0	10.981879	1.221067	-0.238589	0.257000	-0.045145	0.097126	-0.759521	-0.309326	-0.366699	0.694303	0.177707	-0.690416	0.098435	98.471183	-83.565615	-75.915112	0.027272	-0.108696	0.993701	-0.382071	0.917461	0.110843	-0.923730	-0.382687	-0.016509	0	0	0
58150	0	0	0	0	0	10.960757	1.236459	-0.246137	0.253622	-0.043057	0.093230	-0.770264	-0.315918	-0.370605	0.693877	0.178270	-0.690533	0.099599	98.915320	-83.616341	-76.216955	0.026490	-0.107984	0.993800	-0.384420	0.916600	0.109842	-0.922778	-0.384946	-0.017231	0	0	0
58151	0	0	0	0	0	10.653452	1.440409	-0.258783	0.267451	-0.027796	0.093076	-0.770752	-0.307373	-0.367920	0.693488	0.178880	-0.690587	0.100829	99.296428	-83.668001	-76.446263	0.025847	-0.107218	0.993900	-0.386912	0.915671	0.108841	-0.921754	-0.387365	-0.017816	0	0	0
58152	0	0	0	0	0	10.397896	1.306120	-0.345226	0.236150	-0.027394	0.095655	-0.769775	-0.310547	-0.364746	0.693128	0.179366	-0.690657	0.101954	99.663765	-83.721108	-76.680848	0.025196	-0.106426	0.994001	-0.389094	0.914867	0.107816	-0.920853	-0.389477	-0.018359	0	0	0
58153	0	0	0	0	0	10.461948	1.257495	-0.354197	0.230452	-0.037618	0.103050	-0.779785	-0.317139	-0.364258	0.692731	0.179817	-0.690771	0.103081	100.093523	-83.777086	-76.980510	0.024420	-0.105610	0.994108	-0.391239	0.914080	0.106719	-0.919965	-0.391540	-0.018997	0	0	0
58154	0	0	0	0	0	10.466176	1.315801	-0.382374	0.218065	-0.041200	0.105660	-0.775635	-0.304688	-0.372070	0.692332	0.180212	-0.690905	0.104165	100.543003	-83.834033	-77.308094	0.023599	-0.104784	0.994215	-0.393252	0.913347	0.105596	-0.919128	-0.393469	-0.019653	0	0	0
58155	0	0	0	0	0	10.466534	1.347936	-0.357242	0.207901	-0.042769	0.105159	-0.768311	-0.316162	-0.360596	0.691934	0.180580	-0.691048	0.105217	101.002559	-83.890126	-77.650671	0.022764	-0.103973	0.994320	-0.395185	0.912641	0.104479	-0.918320	-0.395318	-0.020314	0	0	0
58156	0	0	0	0	0	10.421220	1.387741	-0.399232	0.161657	-0.058530	0.100813	-0.767822	-0.310547	-0.364258	0.691527	0.180804	-0.691266	0.106074	101.520702	-83.941821	-78.079741	0.021799	-0.103262	0.994415	-0.396674	0.912116	0.103412	-0.917701	-0.396713	-0.021078	0	0	0
58157	0	0	0	0	0	10.431665	1.316871	-0.213595	0.146503	-0.051937	0.097578	-0.773438	-0.315674	-0.363281	0.691155	0.180992	-0.691465	0.106879	102.000491	-83.991935	-78.477811	0.020907	-0.102559	0.994507	-0.398039	0.911638	0.102381	-0.917130	-0.397993	-0.021763	0	0	0
58158	0	0	0	0	0	10.473157	1.250009	-0.012291	0.133286	-0.050365	0.095483	-0.773438	-0.307129	-0.364990	0.690803	0.181132	-0.691663	0.107627	102.468113	-84.040858	-78.872347	0.020037	-0.101867	0.994596	-0.399263	0.911215	0.101371	-0.916617	-0.399137	-0.022414	0	0	0
58159	0	0	0	0	0	10.438258	1.411791	0.060628	0.120097	-0.035233	0.090025	-0.777832	-0.310303	-0.361816	0.690517	0.181245	-0.691810	0.108329	102.847857	-84.088186	-79.185074	0.019326	-0.101168	0.994682	-0.400380	0.910830	0.100419	-0.916145	-0.400191	-0.022903	0	0	0
58160	0	0	0	0	0	10.455483	1.370741	0.230310	0.078749	-0.024395	0.093605	-0.768066	-0.316162	-0.361084	0.690304	0.181189	-0.691947	0.108905	103.154094	-84.138852	-79.448715	0.018699	-0.100391	0.994772	-0.401102	0.910620	0.099439	-0.915843	-0.400864	-0.023239	0	0	0
58161	0	0	0	0	0	10.279511	1.327340	0.364640	0.046750	-0.005079	0.096967	-0.775146	-0.310059	-0.361572	0.690184	0.181009	-0.692035	0.109405	103.346319	-84.193664	-79.615036	0.018236	-0.099509	0.994870	-0.401548	0.910533	0.098434	-0.915656	-0.401283	-0.023353	0	0	0
58162	0	0	0	0	0	10.811793	1.283510	0.585980	-0.009099	-0.014136	0.099038	-0.777588	-0.309082	-0.357178	0.690083	0.180625	-0.692188	0.109705	103.561757	-84.248510	-79.837952	0.017681	-0.098642	0.994966	-0.401465	0.910679	0.097420	-0.915704	-0.401166	-0.023499	0	0	0
58163	0	0	0	0	0	10.604445	1.168709	0.522777	0.002380	0.041199	0.109851	-0.778564	-0.308594	-0.362061	0.690156	0.180221	-0.692152	0.110138	103.494212	-84.316619	-79.768779	0.017590	-0.097456	0.995084	-0.401505	0.910780	0.096297	-0.915688	-0.401225	-0.023109	0	0	0
58164	0	0	0	0	0	10.508259	1.322662	0.576731	-0.036356	0.048517	0.111518	-0.782227	-0.300049	-0.366211	0.690289	0.179666	-0.692115	0.110443	103.362703	-84.386766	-79.658698	0.017559	-0.096224	0.995205	-0.401174	0.911045	0.095165	-0.915833	-0.400922	-0.022606	0	0	0
58165	0	0	0	0	0	10.520658	1.319534	0.478096	-0.080350	0.066329	0.113081	-0.778564	-0.309326	-0.369385	0.690521	0.178950	-0.692040	0.110622	103.103018	-84.459946	-79.444278	0.017686	-0.094908	0.995329	-0.400455	0.911479	0.094028	-0.916146	-0.400247	-0.021886	0	0	0
58166	0	0	0	0	0	10.459386	1.101313	0.417522	-0.121977	0.082849	0.106674	-0.779297	-0.299561	-0.367188	0.690852	0.178097	-0.691927	0.110645	102.707511	-84.531679	-79.118288	0.017990	-0.093582	0.995449	-0.399339	0.912078	0.092961	-0.916627	-0.399194	-0.020963	0	0	0
58167	0	0	0	0	0	10.342487	0.905362	0.308734	-0.119810	0.094156	0.110663	-0.771240	-0.302246	-0.364258	0.691216	0.177238	-0.691775	0.110704	102.242266	-84.606666	-78.720096	0.018385	-0.092177	0.995573	-0.398258	0.912663	0.091855	-0.917089	-0.398183	-0.019931	0	0	0
58168	0	0	0	0	0	10.195205	0.840571	0.038895	-0.101931	0.104376	0.112967	-0.774902	-0.300049	-0.372314	0.691598	0.176420	-0.691580	0.110837	101.716064	-84.683972	-78.251384	0.018865	-0.090708	0.995699	-0.397326	0.913182	0.090719	-0.917484	-0.397329	-0.018814	0	0	0
58169	0	0	0	0	0	10.192515	0.670777	0.007956	-0.107152	0.111565	0.116745	-0.778076	-0.299805	-0.368408	0.692007	0.175574	-0.691365	0.110976	101.133120	-84.763650	-77.727780	0.019399	-0.089179	0.995827	-0.396363	0.913716	0.089547	-0.917889	-0.396446	-0.017622	0	0	0
58170	0	0	0	0	0	10.098682	0.538323	-0.278510	-0.083429	0.116912	0.123018	-0.784180	-0.299316	-0.367676	0.692410	0.174778	-0.691124	0.111218	100.520354	-84.847067	-77.161623	0.019957	-0.087569	0.995959	-0.395604	0.914166	0.088305	-0.918204	-0.395767	-0.016399	0	0	0
58171	0	0	0	0	0	10.001601	0.580506	-0.193436	-0.067513	0.113457	0.118595	-0.778809	-0.294434	-0.374756	0.692787	0.174061	-0.690880	0.111503	99.914975	-84.926955	-76.592784	0.020503	-0.086016	0.996083	-0.395006	0.914540	0.087105	-0.918450	-0.395245	-0.015226	0	0	0
58172	0	0	0	0	0	9.980937	0.595788	-0.181702	-0.037147	0.115365	0.117095	-0.784424	-0.295654	-0.363037	0.693147	0.173447	-0.690613	0.111883	99.294015	-85.005765	-75.991924	0.021073	-0.084467	0.996203	-0.394672	0.914797	0.085913	-0.918580	-0.394984	-0.014060	0	0	0
58173	0	0	0	0	0	9.929148	0.652648	-0.152938	-0.021473	0.114223	0.115414	-0.774170	-0.290039	-0.369385	0.693488	0.172900	-0.690337	0.112316	98.668949	-85.082819	-75.377032	0.021640	-0.082939	0.996320	-0.394497	0.914982	0.084736	-0.918642	-0.394879	-0.012920	0	0	0
58174	0	0	0	0	0	9.919990	0.743663	-0.059678	0.002370	0.115326	0.114862	-0.784180	-0.293213	-0.371338	0.693813	0.172430	-0.690045	0.112825	98.029573	-85.159187	-74.735105	0.022218	-0.081410	0.996433	-0.394527	0.915077	0.083560	-0.918616	-0.394976	-0.011788	0	0	0
58175	0	0	0	0	0	9.803753	0.925876	0.000361	0.014152	0.106513	0.116110	-0.775391	-0.291016	-0.373535	0.694096	0.172008	-0.689776	0.113376	97.438279	-85.234875	-74.133790	0.022711	-0.079906	0.996544	-0.394680	0.915119	0.082372	-0.918538	-0.395187	-0.010754	0	0	0
58176	0	0	0	0	0	9.813877	1.032136	0.090446	-0.009871	0.104457	0.114457	-0.786133	-0.288574	-0.369873	0.694393	0.171503	-0.689527	0.113831	96.826272	-85.309062	-73.526505	0.023191	-0.078424	0.996650	-0.394599	0.915259	0.081201	-0.918561	-0.395160	-0.009720	0	0	0
58177	0	0	0	0	0	9.877711	1.049082	0.320826	-0.056016	0.104668	0.119470	-0.779053	-0.287354	-0.370117	0.694727	0.170826	-0.689306	0.114150	96.171005	-85.385437	-72.901474	0.023654	-0.076896	0.996758	-0.394110	0.915576	0.079986	-0.918759	-0.394724	-0.008648	0	0	0
58178	0	0	0	0	0	9.908503	1.059657	0.190848	-0.077658	0.115796	0.126030	-0.770752	-0.296875	-0.376221	0.695114	0.170039	-0.689065	0.114422	95.405739	-85.465683	-72.179534	0.024194	-0.075263	0.996870	-0.393409	0.915989	0.078705	-0.919045	-0.394082	-0.007448	0	0	0
58179	0	0	0	0	0	9.895767	1.101455	0.183877	-0.098348	0.114366	0.134365	-0.778809	-0.290283	-0.370850	0.695507	0.169159	-0.688846	0.114656	94.617884	-85.549695	-71.445815	0.024691	-0.073561	0.996985	-0.392538	0.916478	0.077343	-0.919405	-0.393264	-0.006247	0	0	0
58180	0	0	0	0	0	9.939081	1.054078	0.039978	-0.119371	0.118526	0.141468	-0.779785	-0.287109	-0.378662	0.695929	0.168172	-0.688631	0.114840	93.760559	-85.637239	-70.655682	0.025198	-0.071776	0.997102	-0.391458	0.917060	0.075907	-0.919851	-0.392236	-0.004989	0	0	0
58181	0	0	0	0	0	9.975709	0.826102	-0.024723	-0.132009	0.125866	0.143088	-0.780029	-0.286377	-0.376709	0.696384	0.167138	-0.688397	0.114997	92.807415	-85.724844	-69.775733	0.025770	-0.069950	0.997218	-0.390279	0.917681	0.074457	-0.920336	-0.391112	-0.003651	0	0	0
58182	0	0	0	0	0	9.934734	0.690913	-0.142023	-0.104475	0.116724	0.144896	-0.786621	-0.283936	-0.390137	0.696783	0.166192	-0.688181	0.115243	91.903481	-85.812321	-68.930487	0.026252	-0.068142	0.997330	-0.389338	0.918199	0.072983	-0.920721	-0.390214	-0.002426	0	0	0
58183	0	0	0	0	0	9.841672	0.625240	-0.243596	-0.084737	0.111478	0.139247	-0.778076	-0.279785	-0.381348	0.697149	0.165343	-0.687965	0.115537	91.015628	-85.895369	-68.089136	0.026710	-0.066408	0.997435	-0.388593	0.918626	0.071567	-0.921022	-0.389508	-0.001269	0	0	0
58184	0	0	0	0	0	9.725641	0.673269	-0.315560	-0.033518	0.105608	0.143471	-0.777100	-0.283691	-0.377686	0.697451	0.164655	-0.687744	0.116012	90.169217	-85.980003	-67.260982	0.027098	-0.064656	0.997540	-0.388305	0.918860	0.070104	-0.921132	-0.389250	-0.000207	0	0	0
58185	0	0	0	0	0	9.604895	0.781867	-0.616604	-0.020053	0.086530	0.145620	-0.773926	-0.280029	-0.385254	0.697673	0.164024	-0.687582	0.116530	89.454307	-86.064965	-66.555947	0.027303	-0.062960	0.997643	-0.388160	0.919034	0.068622	-0.921188	-0.389118	0.000654	0	0	0
58186	0	0	0	0	0	9.726384	0.731117	-0.267996	-0.002919	0.060608	0.146153	-0.776855	-0.284424	-0.394043	0.697792	0.163459	-0.687502	0.117082	88.937801	-86.150042	-66.041057	0.027266	-0.061359	0.997743	-0.388155	0.919146	0.067132	-0.921191	-0.389110	0.001245	0	0	0
58187	0	0	0	0	0	9.704834	0.742053	-0.297028	0.043897	0.056745	0.159006	-0.772705	-0.285156	-0.388672	0.697851	0.163023	-0.687416	0.117843	88.456758	-86.242093	-65.533846	0.027144	-0.059656	0.997850	-0.388602	0.919073	0.065517	-0.921006	-0.389545	0.001765	0	0	0
58188	0	0	0	0	0	9.751299	0.587457	-0.288996	0.048958	0.032701	0.153721	-0.780518	-0.281738	-0.391846	0.697826	0.162629	-0.687408	0.118577	88.169261	-86.331425	-65.218769	0.026820	-0.058093	0.997951	-0.389077	0.918983	0.063952	-0.920815	-0.389995	0.002044	0	0	0
58189	0	0	0	0	0	9.890091	0.569852	-0.137520	0.099411	0.031769	0.153268	-0.784180	-0.277832	-0.386230	0.697756	0.162421	-0.687371	0.119488	87.905945	-86.420282	-64.897850	0.026488	-0.056540	0.998049	-0.390034	0.918684	0.062396	-0.920419	-0.390926	0.002281	0	0	0
58190	0	0	0	0	0	9.811979	0.688722	-0.224680	0.134488	0.015756	0.156411	-0.781006	-0.280762	-0.383301	0.697601	0.162326	-0.687372	0.120512	87.795975	-86.511351	-64.711603	0.025994	-0.055019	0.998147	-0.391295	0.918254	0.060806	-0.919898	-0.392151	0.002340	0	0	0
58191	0	0	0	0	0	9.781572	0.801505	-0.178185	0.144402	-0.012341	0.152166	-0.777832	-0.276611	-0.379395	0.697342	0.162305	-0.687459	0.121537	87.957705	-86.600457	-64.790755	0.025257	-0.053651	0.998240	-0.392663	0.917771	0.059261	-0.919336	-0.393468	0.002113	0	0	0
58192	0	0	0	0	0	9.806698	0.718082	-0.144907	0.154200	-0.035363	0.156888	-0.781494	-0.277344	-0.371826	0.696993	0.162308	-0.687626	0.122588	88.356751	-86.692801	-65.103118	0.024286	-0.052328	0.998335	-0.394101	0.917256	0.057666	-0.918746	-0.394845	0.001654	0	0	0
58193	0	0	0	0	0	9.825412	0.715344	-0.186598	0.168247	-0.053106	0.156042	-0.788086	-0.279785	-0.384521	0.696570	0.162382	-0.687842	0.123677	88.967064	-86.784590	-65.617807	0.023155	-0.051087	0.998426	-0.395685	0.916672	0.056081	-0.918094	-0.396361	0.001011	0	0	0
58194	0	0	0	0	0	9.959475	0.735837	-0.115788	0.172166	-0.060480	0.155834	-0.782471	-0.273926	-0.391113	0.696119	0.162466	-0.688082	0.124765	89.688495	-86.876107	-66.242683	0.021954	-0.049877	0.998514	-0.397283	0.916077	0.054494	-0.917434	-0.397889	0.000296	0	0	0
58195	0	0	0	0	0	9.966736	0.770074	0.012312	0.168481	-0.062035	0.152310	-0.788086	-0.271973	-0.386230	0.695666	0.162558	-0.688324	0.125833	90.466384	-86.965004	-66.925115	0.020751	-0.048710	0.998597	-0.398860	0.915482	0.052944	-0.916777	-0.399399	-0.000431	0	0	0
58196	0	0	0	0	0	10.020417	0.686735	0.022798	0.143438	-0.071247	0.151202	-0.782471	-0.275879	-0.375488	0.695202	0.162564	-0.688614	0.126797	91.374328	-87.052774	-67.753135	0.019466	-0.047589	0.998677	-0.400187	0.914991	0.051401	-0.916227	-0.400659	-0.001233	0	0	0
58197	0	0	0	0	0	10.030794	0.656922	-0.002271	0.118998	-0.072487	0.147953	-0.785889	-0.272217	-0.376709	0.694754	0.162505	-0.688919	0.127670	92.335409	-87.137796	-68.647261	0.018181	-0.046506	0.998753	-0.401305	0.914585	0.049893	-0.915764	-0.401711	-0.002035	0	0	0
58198	0	0	0	0	0	10.134125	0.565302	-0.167509	0.107868	-0.075643	0.138221	-0.782471	-0.273682	-0.372559	0.694311	0.162435	-0.689235	0.128463	93.375462	-87.216504	-69.627831	0.016905	-0.045525	0.998820	-0.402299	0.914224	0.048478	-0.915352	-0.402644	-0.002859	0	0	0
58199	0	0	0	0	0	10.149445	0.610366	0.097159	0.099960	-0.073569	0.126539	-0.792236	-0.271484	-0.366943	0.693887	0.162384	-0.689537	0.129196	94.435041	-87.287560	-70.631294	0.015695	-0.044645	0.998880	-0.403235	0.913879	0.047182	-0.914962	-0.403523	-0.003659	0	0	0
58200	0	0	0	0	0	10.109932	0.525002	0.061989	0.091761	-0.058442	0.116564	-0.783447	-0.271484	-0.378906	0.693529	0.162322	-0.689784	0.129872	95.344906	-87.352980	-71.490656	0.014661	-0.043794	0.998933	-0.404074	0.913570	0.045982	-0.914609	-0.404317	-0.004302	0	0	0
58201	0	0	0	0	0	10.070986	0.398122	0.030700	0.094209	-0.051405	0.113671	-0.776855	-0.274658	-0.378662	0.693193	0.162281	-0.690002	0.130558	96.209483	-87.416365	-72.302111	0.013704	-0.042944	0.998983	-0.404952	0.913239	0.044813	-0.914235	-0.405154	-0.004876	0	0	0
58202	0	0	0	0	0	9.994473	0.392328	-0.091463	0.089071	-0.041772	0.111380	-0.791016	-0.262451	-0.374512	0.692898	0.162216	-0.690189	0.131220	96.983473	-87.478704	-73.026918	0.012842	-0.042075	0.999032	-0.405763	0.912935	0.043664	-0.913888	-0.405931	-0.005349	0	0	0
58203	0	0	0	0	0	9.935185	0.380146	-0.091923	0.071323	-0.032920	0.114423	-0.789307	-0.267334	-0.376465	0.692643	0.162080	-0.690357	0.131844	97.674821	-87.542848	-73.678136	0.012049	-0.041144	0.999081	-0.406428	0.912695	0.042488	-0.913603	-0.406566	-0.005726	0	0	0
58204	0	0	0	0	0	9.949816	0.205923	-0.224255	0.054390	-0.027787	0.105544	-0.787354	-0.272461	-0.370850	0.692427	0.161906	-0.690513	0.132378	98.303637	-87.602187	-74.277458	0.011337	-0.040272	0.999124	-0.406919	0.912526	0.041399	-0.913394	-0.407032	-0.006042	0	0	0
58205	0	0	0	0	0	9.910626	0.166833	-0.221936	0.078518	-0.007157	0.102457	-0.785156	-0.268799	-0.365479	0.692263	0.161819	-0.690577	0.133006	98.686493	-87.661137	-74.615636	0.010826	-0.039347	0.999167	-0.407648	0.912248	0.040341	-0.913075	-0.407745	-0.006163	0	0	0
58206	0	0	0	0	0	9.810730	0.340487	-0.193946	0.077842	-0.004386	0.103624	-0.790771	-0.259521	-0.379395	0.692109	0.161717	-0.690634	0.133633	99.049263	-87.721059	-74.935197	0.010335	-0.038398	0.999209	-0.408352	0.911980	0.039270	-0.912766	-0.408434	-0.006254	0	0	0
58207	0	0	0	0	0	9.773427	0.364467	-0.315858	0.062755	-0.003373	0.097999	-0.792480	-0.265137	-0.372803	0.691973	0.161588	-0.690691	0.134194	99.394990	-87.777663	-75.245357	0.009876	-0.037499	0.999248	-0.408932	0.911763	0.038257	-0.912511	-0.409002	-0.006330	0	0	0
58208	0	0	0	0	0	9.798117	0.331723	-0.247673	0.038193	-0.017964	0.089697	-0.787354	-0.266357	-0.381348	0.691814	0.161406	-0.690810	0.134624	99.938035	-87.828227	-75.768034	0.009317	-0.036732	0.999282	-0.409271	0.911649	0.037327	-0.912365	-0.409325	-0.006540	0	0	0
58209	0	0	0	0	0	9.927434	0.437569	-0.247409	0.014459	-0.014317	0.088319	-0.783203	-0.260010	-0.374756	0.691685	0.161151	-0.690929	0.134976	100.435054	-87.878049	-76.257250	0.008796	-0.035967	0.999314	-0.409409	0.911624	0.036414	-0.912308	-0.409449	-0.006706	0	0	0
58210	0	0	0	0	0	9.872069	0.646595	-0.155570	-0.029701	-0.009267	0.080693	-0.788574	-0.265381	-0.375732	0.691616	0.160759	-0.691056	0.135147	100.827179	-87.924117	-76.667800	0.008353	-0.035247	0.999344	-0.409128	0.911783	0.035578	-0.912439	-0.409156	-0.006804	0	0	0
58211	0	0	0	0	0	9.865870	0.674412	-0.262068	-0.063627	-0.008633	0.074744	-0.785889	-0.267334	-0.373535	0.691579	0.160277	-0.691198	0.135187	101.190925	-87.966655	-77.068422	0.007940	-0.034581	0.999370	-0.408551	0.912072	0.034806	-0.912701	-0.408570	-0.006886	0	0	0
58212	0	0	0	0	0	10.018409	0.519130	-0.400753	-0.065826	-0.009189	0.061130	-0.786377	-0.269043	-0.373535	0.691552	0.159827	-0.691333	0.135166	101.531931	-88.001547	-77.448511	0.007578	-0.034039	0.999392	-0.407937	0.912371	0.034169	-0.912979	-0.407948	-0.006972	0	0	0
58213	0	0	0	0	0	10.034001	0.504787	-0.315050	-0.077771	-0.009449	0.061354	-0.782471	-0.258545	-0.377197	0.691532	0.159345	-0.691475	0.135111	101.885947	-88.036277	-77.847247	0.007214	-0.033499	0.999413	-0.407233	0.912709	0.033532	-0.913296	-0.407235	-0.007058	0	0	0
58214	0	0	0	0	0	10.155255	0.349141	-0.469876	-0.099745	-0.018319	0.058233	-0.784668	-0.256592	-0.376465	0.691502	0.158794	-0.691662	0.134956	102.374700	-88.068264	-78.394598	0.006781	-0.033020	0.999432	-0.406308	0.913143	0.032926	-0.913711	-0.406300	-0.007224	0	0	0
58215	0	0	0	0	0	10.286153	0.289063	-0.459085	-0.111285	-0.026500	0.057012	-0.785156	-0.260254	-0.379150	0.691452	0.158220	-0.691883	0.134754	103.009113	-88.098200	-79.093407	0.006279	-0.032587	0.999449	-0.405291	0.913616	0.032335	-0.914166	-0.405270	-0.007470	0	0	0
58216	0	0	0	0	0	10.384964	0.335857	-0.315229	-0.133289	-0.035364	0.053869	-0.792969	-0.257080	-0.368164	0.691392	0.157580	-0.692147	0.134454	103.787769	-88.125073	-79.950029	0.005709	-0.032216	0.999465	-0.404057	0.914182	0.031775	-0.914716	-0.404022	-0.007798	0	0	0
58217	0	0	0	0	0	10.569011	0.269857	-0.414058	-0.138883	-0.057414	0.053064	-0.789795	-0.262939	-0.380371	0.691259	0.156945	-0.692489	0.134119	104.963578	-88.147706	-81.206183	0.004942	-0.031943	0.999477	-0.402788	0.914761	0.031227	-0.915280	-0.402731	-0.008346	0	0	0
58218	0	0	0	0	0	10.894383	0.159154	-0.330072	-0.129333	-0.056771	0.049917	-0.792725	-0.250977	-0.372559	0.691124	0.156346	-0.692821	0.133802	106.145337	-88.168028	-82.463826	0.004193	-0.031692	0.999489	-0.401588	0.915306	0.030708	-0.915811	-0.401511	-0.008890	0	0	0
58219	0	0	0	0	0	10.965335	0.079661	-0.162910	-0.126963	-0.053941	0.048864	-0.794434	-0.256592	-0.377197	0.690995	0.155765	-0.693139	0.133497	107.302793	-88.187238	-83.694792	0.003474	-0.031442	0.999500	-0.400425	0.915832	0.030202	-0.916323	-0.400329	-0.009408	0	0	0
58220	0	0	0	0	0	10.975971	0.146054	-0.156051	-0.125914	-0.053930	0.045211	-0.791748	-0.259033	-0.375000	0.690870	0.155192	-0.693454	0.133177	108.462460	-88.203835	-84.928345	0.002771	-0.031221	0.999509	-0.399254	0.916358	0.029731	-0.916836	-0.399140	-0.009926	0	0	0
58221	0	0	0	0	0	11.135153	0.127393	-0.171468	-0.123372	-0.056695	0.045376	-0.797363	-0.255615	-0.372314	0.690730	0.154637	-0.693776	0.132871	109.696417	-88.219010	-86.233675	0.002042	-0.031012	0.999517	-0.398123	0.916865	0.029261	-0.917330	-0.397990	-0.010475	0	0	0
58222	0	0	0	0	0	11.229341	0.337951	-0.108891	-0.101911	-0.061440	0.051847	-0.791992	-0.243408	-0.369385	0.690555	0.154130	-0.694105	0.132651	111.087503	-88.235955	-87.684977	0.001243	-0.030758	0.999526	-0.397170	0.917295	0.028722	-0.917744	-0.397018	-0.011076	0	0	0
58223	0	0	0	0	0	11.290907	0.460841	-0.091588	-0.127502	-0.063350	0.050294	-0.792725	-0.263184	-0.377197	0.690391	0.153547	-0.694456	0.132341	112.514607	-88.250391	-89.186023	0.000434	-0.030529	0.999534	-0.395998	0.917818	0.028205	-0.918251	-0.395825	-0.011691	0	0	0
58224	0	0	0	0	0	11.434839	0.472756	-0.039795	-0.124805	-0.071720	0.051648	-0.799072	-0.250000	-0.372070	0.690197	0.152967	-0.694835	0.132034	114.119440	-88.262587	-90.864273	-0.000457	-0.030315	0.999540	-0.394833	0.918336	0.027672	-0.918753	-0.394639	-0.012390	0	0	0
58225	0	0	0	0	0	11.512573	0.543025	0.065385	-0.111633	-0.062171	0.054866	-0.794434	-0.250977	-0.376709	0.690022	0.152424	-0.695174	0.131797	115.617842	-88.277179	-92.427298	-0.001273	-0.030037	0.999548	-0.393807	0.918793	0.027109	-0.919192	-0.393595	-0.012999	0	0	0
58226	0	0	0	0	0	11.488453	0.751745	0.137154	-0.099616	-0.053589	0.059637	-0.785156	-0.248535	-0.375000	0.689866	0.151892	-0.695479	0.131618	117.042006	-88.295385	-93.910333	-0.002029	-0.029678	0.999557	-0.392872	0.919211	0.026495	-0.919591	-0.392645	-0.013524	0	0	0
58227	0	0	0	0	0	11.514942	0.953246	0.068448	-0.122561	-0.049864	0.063325	-0.789551	-0.247559	-0.372803	0.689735	0.151272	-0.695788	0.131380	118.454687	-88.315170	-95.394000	-0.002764	-0.029271	0.999568	-0.391742	0.919712	0.025850	-0.920071	-0.391501	-0.014009	0	0	0
58228	0	0	0	0	0	11.628515	0.920177	0.109043	-0.117453	-0.053010	0.057704	-0.797363	-0.245361	-0.373779	0.689595	0.150684	-0.696101	0.131133	119.901594	-88.330345	-96.909984	-0.003505	-0.028925	0.999575	-0.390641	0.920197	0.025258	-0.920537	-0.390386	-0.014525	0	0	0
58229	0	0	0	0	0	11.650499	0.950657	-0.020261	-0.104750	-0.048985	0.048471	-0.797119	-0.241699	-0.368896	0.689464	0.150177	-0.696384	0.130907	121.219152	-88.340867	-98.288257	-0.004174	-0.028651	0.999581	-0.389672	0.920621	0.024761	-0.920944	-0.389406	-0.015007	0	0	0
58230	0	0	0	0	0	11.652458	0.799019	-0.140754	-0.107785	-0.063037	0.046783	-0.797363	-0.243652	-0.370850	0.689288	0.149667	-0.696716	0.130648	122.768031	-88.345492	-99.900697	-0.004964	-0.028443	0.999583	-0.388659	0.921062	0.024278	-0.921368	-0.388376	-0.015627	0	0	0
58231	0	0	0	0	0	11.647807	0.664482	-0.210569	-0.085833	-0.060246	0.038916	-0.794434	-0.247070	-0.377441	0.689108	0.149265	-0.697017	0.130446	124.203236	-88.345819	-101.385828	-0.005699	-0.028299	0.999583	-0.387864	0.921407	0.023874	-0.921699	-0.387566	-0.016227	0	0	0
58232	0	0	0	0	0	11.534886	0.644189	-0.260561	-0.048510	-0.063323	0.039854	-0.795410	-0.251953	-0.365967	0.688891	0.148984	-0.697306	0.130369	125.720112	-88.344676	-102.932274	-0.006465	-0.028154	0.999583	-0.387396	0.921615	0.023453	-0.921891	-0.387082	-0.016865	0	0	0
58233	0	0	0	0	0	11.429394	0.712762	-0.211643	-0.023496	-0.072669	0.038662	-0.798828	-0.247803	-0.374512	0.688622	0.148808	-0.697609	0.130376	127.379297	-88.338327	-104.605487	-0.007312	-0.028061	0.999579	-0.387178	0.921717	0.023042	-0.921976	-0.386847	-0.017604	0	0	0
58234	0	0	0	0	0	11.315237	0.711530	-0.142808	-0.016867	-0.081000	0.042778	-0.795410	-0.239502	-0.373535	0.688317	0.148637	-0.697940	0.130407	129.207984	-88.329628	-106.445746	-0.008252	-0.027957	0.999575	-0.387001	0.921803	0.022587	-0.922042	-0.386650	-0.018426	0	0	0
58235	0	0	0	0	0	11.317723	0.581334	-0.112481	-0.000059	-0.084920	0.043450	-0.790527	-0.250244	-0.373291	0.687985	0.148531	-0.698273	0.130501	131.089871	-88.317834	-108.328546	-0.009231	-0.027866	0.999569	-0.386995	0.921816	0.022124	-0.922035	-0.386624	-0.019293	0	0	0
58236	0	0	0	0	0	11.230097	0.746408	-0.104536	0.074629	-0.067329	0.046202	-0.794434	-0.246338	-0.371338	0.687657	0.148654	-0.698500	0.130873	132.774426	-88.312451	-109.972183	-0.010059	-0.027678	0.999566	-0.387660	0.921549	0.021617	-0.921747	-0.387275	-0.019999	0	0	0
58237	0	0	0	0	0	11.071811	0.925318	-0.109288	0.069598	-0.081398	0.043109	-0.800537	-0.249023	-0.364502	0.687285	0.148788	-0.698774	0.131212	134.593182	-88.298510	-111.751688	-0.011003	-0.027578	0.999559	-0.388299	0.921291	0.021144	-0.921468	-0.387896	-0.020846	0	0	0
58238	0	0	0	0	0	11.139422	0.882778	-0.018973	0.057271	-0.091799	0.034138	-0.799072	-0.237305	-0.364502	0.686892	0.148909	-0.699087	0.131464	136.390212	-88.275292	-113.517823	-0.012010	-0.027597	0.999547	-0.388805	0.921086	0.020759	-0.921242	-0.388379	-0.021792	0	0	0
58239	0	0	0	0	0	11.103098	0.833461	-0.112094	0.065939	-0.100956	0.028910	-0.797119	-0.243652	-0.372559	0.686463	0.149093	-0.699420	0.131727	138.182013	-88.244304	-115.272573	-0.013080	-0.027705	0.999531	-0.389409	0.920838	0.020428	-0.920972	-0.388959	-0.022833	0	0	0
58240	0	0	0	0	0	10.893191	0.831072	-0.124695	0.061281	-0.099144	0.025256	-0.798828	-0.239990	-0.371826	0.686047	0.149264	-0.699748	0.131957	139.838255	-88.211374	-116.895611	-0.014119	-0.027836	0.999513	-0.389952	0.920615	0.020130	-0.920727	-0.389477	-0.023853	0	0	0
58241	0	0	0	0	0	10.725784	0.858839	-0.107381	0.049632	-0.111413	0.017164	-0.793945	-0.244629	-0.362061	0.685601	0.149438	-0.700118	0.132114	141.446914	-88.168446	-118.476732	-0.015239	-0.028094	0.999489	-0.390404	0.920428	0.019919	-0.920518	-0.389901	-0.024995	0	0	0
58242	0	0	0	0	0	10.663258	0.813707	-0.147930	0.051802	-0.120246	0.014926	-0.801025	-0.248535	-0.357422	0.685125	0.149626	-0.700517	0.132259	143.048550	-88.119549	-120.050644	-0.016432	-0.028403	0.999461	-0.390860	0.920239	0.019726	-0.920304	-0.390325	-0.026223	0	0	0
58243	0	0	0	0	0	10.671484	0.754921	-0.177726	0.061090	-0.141119	0.013478	-0.801514	-0.235352	-0.364746	0.684567	0.149875	-0.700978	0.132423	144.754149	-88.058792	-121.721903	-0.017811	-0.028814	0.999426	-0.391423	0.920003	0.019548	-0.920038	-0.390850	-0.027664	0	0	0
58244	0	0	0	0	0	10.668575	0.771671	-0.107144	0.033472	-0.142952	0.010716	-0.791504	-0.243896	-0.359863	0.684027	0.150030	-0.701462	0.132473	146.323870	-87.994957	-123.274497	-0.019196	-0.029251	0.999388	-0.391710	0.919884	0.019400	-0.919888	-0.391098	-0.029116	0	0	0
58245	0	0	0	0	0	10.611157	0.668665	-0.199926	0.046657	-0.145048	0.004031	-0.802734	-0.248291	-0.356689	0.683472	0.150263	-0.701938	0.132548	147.727279	-87.926456	-124.652133	-0.020573	-0.029764	0.999345	-0.392137	0.919704	0.019320	-0.919677	-0.391483	-0.030593	0	0	0
58246	0	0	0	0	0	10.495312	0.839965	-0.178818	0.066079	-0.138646	-0.002090	-0.809326	-0.248047	-0.358154	0.682931	0.150571	-0.702376	0.132672	148.925622	-87.858345	-125.814532	-0.021868	-0.030304	0.999301	-0.392726	0.919453	0.019289	-0.919395	-0.392030	-0.032008	0	0	0
58247	0	0	0	0	0	10.413618	0.972027	-0.106349	0.051085	-0.139774	-0.010233	-0.806152	-0.251465	-0.359375	0.682400	0.150868	-0.702819	0.132720	149.940839	-87.786252	-126.800912	-0.023139	-0.030930	0.999254	-0.393202	0.919249	0.019348	-0.919161	-0.392461	-0.033433	0	0	0
58248	0	0	0	0	0	10.481883	0.935795	-0.021716	0.035111	-0.144182	-0.019505	-0.800293	-0.245605	-0.349121	0.681873	0.151135	-0.703283	0.132671	150.803527	-87.708970	-127.645265	-0.024416	-0.031653	0.999201	-0.393510	0.919113	0.019500	-0.918996	-0.392720	-0.034897	0	0	0
58249	0	0	0	0	0	10.407391	0.908141	-0.080987	0.050005	-0.141574	-0.028104	-0.799805	-0.249756	-0.354492	0.681347	0.151492	-0.703718	0.132653	151.491362	-87.629946	-128.304698	-0.025633	-0.032451	0.999145	-0.393981	0.918907	0.019738	-0.918761	-0.393138	-0.036339	0	0	0
