// General information: 
//  MT Manager version: 2022.2.0 
//  XDA version: 2022.2.0 build 7381 rev 124627 built on 2023-07-19
// Device information: 
//  DeviceId: 10B426F2
//  ProductCode: MTW2-3A7G6
//  Firmware Version: 4.14.0
//  Hardware Version: 3.0.0
// Device settings: 
//  Filter Profile: human(46.1)
//  Option Flags: Orientation Smoother Disabled, Position/Velocity Smoother Disabled, Continuous Zero Rotation Update Disabled, AHS Disabled, ICC Disabled
// Coordinate system: ENU
PacketCounter	SampleTimeFine	Year	Month	Day	Second	Acc_X	Acc_Y	Acc_Z	Gyr_X	Gyr_Y	Gyr_Z	Mag_X	Mag_Y	Mag_Z	Quat_q0	Quat_q1	Quat_q2	Quat_q3	Roll	Pitch	Yaw	Mat[1][1]	Mat[2][1]	Mat[3][1]	Mat[1][2]	Mat[2][2]	Mat[3][2]	Mat[1][3]	Mat[2][3]	Mat[3][3]	Vel_E	Vel_N	Vel_U
57802	0	0	0	0	0	9.744131	-0.309192	-1.057765	0.003550	0.004358	0.002876	-0.875732	0.340332	0.457275	0.229267	-0.705991	-0.233930	-0.627925	-164.269005	-83.659875	22.567709	0.101974	0.042380	0.993884	0.618230	-0.785427	-0.029940	0.779354	0.617502	-0.106294	0	0	0
57803	0	0	0	0	0	9.744176	-0.309344	-1.057308	0.003075	0.004803	-0.000476	-0.875000	0.330811	0.456543	0.229273	-0.705981	-0.233930	-0.627934	-164.265102	-83.661429	22.564318	0.101952	0.042364	0.993887	0.618237	-0.785421	-0.029940	0.779351	0.617510	-0.106266	0	0	0
57804	0	0	0	0	0	9.752891	-0.313591	-1.023649	0.005337	0.004830	0.004095	-0.876465	0.331543	0.455811	0.229301	-0.705975	-0.233922	-0.627934	-164.237917	-83.662223	22.538780	0.101958	0.042313	0.993888	0.618257	-0.785403	-0.029987	0.779334	0.617536	-0.106239	0	0	0
57805	0	0	0	0	0	9.752927	-0.313972	-1.023185	0.006755	0.004291	0.002456	-0.871338	0.329834	0.454346	0.229325	-0.705966	-0.233921	-0.627936	-164.219393	-83.663118	22.522174	0.101956	0.042278	0.993890	0.618282	-0.785383	-0.030017	0.779315	0.617565	-0.106214	0	0	0
57806	0	0	0	0	0	9.761638	-0.318205	-0.989520	0.008069	0.005208	0.000323	-0.875244	0.332031	0.449951	0.229351	-0.705951	-0.233933	-0.627939	-164.208827	-83.664706	22.514932	0.101936	0.042254	0.993893	0.618327	-0.785347	-0.030029	0.779282	0.617612	-0.106182	0	0	0
57807	0	0	0	0	0	9.726289	-0.294165	-1.030953	0.004993	0.000405	0.000799	-0.871582	0.330566	0.459229	0.229360	-0.705954	-0.233939	-0.627930	-164.204730	-83.663766	22.512128	0.101953	0.042256	0.993891	0.618344	-0.785333	-0.030041	0.779266	0.617630	-0.106196	0	0	0
57808	0	0	0	0	0	9.711408	-0.297237	-0.991230	0.006282	0.004736	-0.000896	-0.871338	0.333496	0.457520	0.229376	-0.705940	-0.233951	-0.627935	-164.201900	-83.665284	22.511638	0.101929	0.042245	0.993894	0.618377	-0.785307	-0.030039	0.779244	0.617663	-0.106169	0	0	0
57809	0	0	0	0	0	9.779023	-0.281193	-1.024524	0.005073	0.002365	0.001733	-0.871094	0.331055	0.456787	0.229388	-0.705940	-0.233948	-0.627932	-164.190398	-83.665121	22.500986	0.101940	0.042227	0.993894	0.618387	-0.785298	-0.030061	0.779234	0.617676	-0.106165	0	0	0
57810	0	0	0	0	0	9.749951	-0.295443	-1.036309	0.004784	0.003315	-0.000191	-0.862549	0.331543	0.458496	0.229399	-0.705933	-0.233955	-0.627933	-164.186921	-83.665746	22.498982	0.101931	0.042219	0.993895	0.618407	-0.785282	-0.030065	0.779219	0.617697	-0.106153	0	0	0
57811	0	0	0	0	0	9.744461	-0.310739	-1.054271	0.006756	0.004292	0.002456	-0.879395	0.333740	0.454834	0.229422	-0.705926	-0.233953	-0.627933	-164.168052	-83.666495	22.481858	0.101932	0.042184	0.993897	0.618430	-0.785264	-0.030096	0.779201	0.617723	-0.106131	0	0	0
57812	0	0	0	0	0	9.755549	-0.280728	-1.017158	0.004968	0.003820	0.001237	-0.870361	0.329834	0.457275	0.229438	-0.705919	-0.233954	-0.627934	-164.156660	-83.667175	22.471998	0.101928	0.042162	0.993898	0.618450	-0.785247	-0.030114	0.779186	0.617745	-0.106113	0	0	0
57813	0	0	0	0	0	9.726494	-0.295004	-1.028779	0.001658	0.005341	0.001161	-0.874268	0.335938	0.453369	0.229441	-0.705912	-0.233941	-0.627946	-164.145840	-83.668832	22.460245	0.101910	0.042130	0.993901	0.618437	-0.785257	-0.030126	0.779199	0.617735	-0.106080	0	0	0
57814	0	0	0	0	0	9.744586	-0.311219	-1.052972	-0.000025	0.003415	0.000437	-0.869629	0.329346	0.459961	0.229437	-0.705911	-0.233930	-0.627953	-164.141850	-83.669414	22.454953	0.101905	0.042116	0.993902	0.618419	-0.785271	-0.030131	0.779214	0.617718	-0.106068	0	0	0
57815	0	0	0	0	0	9.765055	-0.293288	-1.073761	0.005258	0.002870	0.003161	-0.871094	0.333496	0.452637	0.229456	-0.705910	-0.233923	-0.627949	-164.122252	-83.669338	22.436461	0.101919	0.042084	0.993902	0.618432	-0.785259	-0.030167	0.779201	0.617735	-0.106059	0	0	0
57816	0	0	0	0	0	9.779279	-0.282385	-1.021745	0.006363	0.006695	0.000037	-0.873535	0.330078	0.453125	0.229477	-0.705892	-0.233930	-0.627960	-164.111950	-83.671790	22.428501	0.101886	0.042054	0.993907	0.618464	-0.785234	-0.030175	0.779180	0.617770	-0.106013	0	0	0
57817	0	0	0	0	0	9.732191	-0.280546	-1.008584	0.003446	0.005813	0.002380	-0.868896	0.336182	0.448242	0.229493	-0.705882	-0.233919	-0.627970	-164.093094	-83.673543	22.409949	0.101871	0.042009	0.993910	0.618467	-0.785230	-0.030201	0.779180	0.617777	-0.105974	0	0	0
57818	0	0	0	0	0	9.747911	-0.331115	-1.036088	0.003157	0.006762	0.000456	-0.877930	0.330811	0.450439	0.229504	-0.705867	-0.233914	-0.627984	-164.082436	-83.675966	22.399782	0.101840	0.041975	0.993915	0.618474	-0.785225	-0.030209	0.779178	0.617787	-0.105928	0	0	0
57819	0	0	0	0	0	9.777067	-0.317164	-1.023382	0.001843	0.005847	0.002589	-0.868408	0.332764	0.462891	0.229517	-0.705857	-0.233899	-0.627996	-164.062945	-83.677772	22.380134	0.101825	0.041928	0.993918	0.618470	-0.785226	-0.030237	0.779183	0.617788	-0.105887	0	0	0
57820	0	0	0	0	0	9.773984	-0.298256	-1.037739	0.001763	0.003887	0.001656	-0.865967	0.329346	0.456299	0.229523	-0.705855	-0.233889	-0.628000	-164.051183	-83.678421	22.368054	0.101824	0.041902	0.993920	0.618465	-0.785230	-0.030255	0.779187	0.617785	-0.105870	0	0	0
57821	0	0	0	0	0	9.730000	-0.315393	-1.009969	0.001290	0.004330	-0.001696	-0.877441	0.332520	0.461182	0.229512	-0.705850	-0.233883	-0.628012	-164.056184	-83.679797	22.371553	0.101799	0.041900	0.993922	0.618446	-0.785246	-0.030240	0.779206	0.617765	-0.105850	0	0	0
57822	0	0	0	0	0	9.735568	-0.300251	-0.991146	0.001659	0.005341	0.001161	-0.876953	0.333740	0.459473	0.229519	-0.705842	-0.233873	-0.628022	-164.044875	-83.681325	22.359868	0.101783	0.041869	0.993925	0.618440	-0.785249	-0.030253	0.779212	0.617762	-0.105819	0	0	0
57823	0	0	0	0	0	9.747421	-0.278279	-1.044980	-0.001443	0.003954	0.002075	-0.877441	0.336426	0.456055	0.229510	-0.705845	-0.233846	-0.628032	-164.033285	-83.681995	22.345288	0.101783	0.041838	0.993926	0.618398	-0.785282	-0.030272	0.779246	0.617723	-0.105801	0	0	0
57824	0	0	0	0	0	9.747456	-0.278463	-1.044597	0.001763	0.003886	0.001656	-0.873291	0.333740	0.461182	0.229517	-0.705842	-0.233836	-0.628036	-164.021513	-83.682643	22.333197	0.101782	0.041813	0.993928	0.618393	-0.785285	-0.030290	0.779250	0.617721	-0.105784	0	0	0
57825	0	0	0	0	0	9.750623	-0.297826	-1.029280	-0.001363	0.005914	0.003007	-0.872559	0.343018	0.457031	0.229517	-0.705839	-0.233806	-0.628051	-164.001898	-83.684243	22.310930	0.101772	0.041763	0.993931	0.618355	-0.785314	-0.030319	0.779281	0.617688	-0.105747	0	0	0
57826	0	0	0	0	0	9.750650	-0.298177	-1.028919	0.000553	0.001516	0.004285	-0.869629	0.330078	0.455078	0.229524	-0.705848	-0.233786	-0.628046	-163.981116	-83.683169	22.289077	0.101805	0.041731	0.993929	0.618338	-0.785326	-0.030362	0.779291	0.617675	-0.105754	0	0	0
57827	0	0	0	0	0	9.774238	-0.299514	-1.034980	0.000264	0.002465	0.002361	-0.869629	0.333496	0.450928	0.229526	-0.705852	-0.233769	-0.628047	-163.968118	-83.682959	22.274754	0.101819	0.041707	0.993928	0.618318	-0.785340	-0.030387	0.779304	0.617658	-0.105751	0	0	0
57828	0	0	0	0	0	9.753814	-0.317893	-1.013476	0.000240	0.005880	0.002798	-0.873779	0.325439	0.458496	0.229533	-0.705846	-0.233748	-0.628059	-163.948676	-83.684523	22.254069	0.101809	0.041660	0.993931	0.618300	-0.785354	-0.030416	0.779320	0.617644	-0.105714	0	0	0
57829	0	0	0	0	0	9.739700	-0.329413	-1.064556	0.002236	0.003442	0.005009	-0.879883	0.331543	0.453125	0.229547	-0.705849	-0.233724	-0.628059	-163.921285	-83.684514	22.225800	0.101830	0.041609	0.993931	0.618285	-0.785363	-0.030466	0.779329	0.617635	-0.105700	0	0	0
57830	0	0	0	0	0	9.721691	-0.313543	-1.039378	0.001451	0.008250	0.000169	-0.874268	0.329102	0.454590	0.229552	-0.705832	-0.233713	-0.628081	-163.910811	-83.687798	22.214836	0.101785	0.041568	0.993938	0.618279	-0.785368	-0.030470	0.779340	0.617632	-0.105640	0	0	0
57831	0	0	0	0	0	9.774415	-0.300703	-1.032957	0.005442	0.003375	0.004591	-0.872314	0.337891	0.451416	0.229577	-0.705830	-0.233701	-0.628078	-163.883768	-83.687893	22.188943	0.101802	0.041522	0.993938	0.618292	-0.785356	-0.030519	0.779328	0.617650	-0.105624	0	0	0
57832	0	0	0	0	0	9.735930	-0.302968	-0.986755	0.004762	0.006728	0.000247	-0.871338	0.333008	0.456055	0.229593	-0.705813	-0.233702	-0.628091	-163.873175	-83.690326	22.179767	0.101770	0.041490	0.993942	0.618311	-0.785340	-0.030527	0.779316	0.617672	-0.105577	0	0	0
57833	0	0	0	0	0	9.768999	-0.316248	-1.050266	0.004970	0.003819	0.001239	-0.865967	0.328369	0.457275	0.229610	-0.705806	-0.233703	-0.628093	-163.861231	-83.691095	22.169291	0.101765	0.041466	0.993944	0.618330	-0.785324	-0.030545	0.779302	0.617694	-0.105558	0	0	0
57834	0	0	0	0	0	9.747866	-0.281191	-1.040031	0.003447	0.005812	0.002380	-0.875488	0.336182	0.461670	0.229627	-0.705796	-0.233694	-0.628101	-163.842078	-83.692684	22.150745	0.101753	0.041423	0.993947	0.618338	-0.785318	-0.030573	0.779298	0.617706	-0.105522	0	0	0
57835	0	0	0	0	0	9.747911	-0.281342	-1.039575	0.003183	0.003347	0.000019	-0.870605	0.340332	0.457275	0.229627	-0.705793	-0.233689	-0.628105	-163.838784	-83.693277	22.147094	0.101746	0.041412	0.993948	0.618333	-0.785322	-0.030576	0.779303	0.617702	-0.105510	0	0	0
57836	0	0	0	0	0	9.756567	-0.285595	-1.005975	-0.004281	0.005033	0.005348	-0.874512	0.329346	0.451660	0.229625	-0.705798	-0.233646	-0.628117	-163.810396	-83.693962	22.114803	0.101758	0.041350	0.993949	0.618276	-0.785364	-0.030625	0.779346	0.617652	-0.105483	0	0	0
57837	0	0	0	0	0	9.727511	-0.300110	-1.017621	0.003551	0.004358	0.002876	-0.880127	0.335205	0.450195	0.229642	-0.705793	-0.233635	-0.628120	-163.790527	-83.694762	22.095399	0.101759	0.041311	0.993951	0.618281	-0.785359	-0.030658	0.779342	0.617661	-0.105459	0	0	0
57838	0	0	0	0	0	9.780227	-0.287370	-1.011230	0.005235	0.006284	0.003600	-0.879395	0.333252	0.452637	0.229669	-0.705782	-0.233626	-0.628127	-163.763563	-83.696412	22.070024	0.101751	0.041255	0.993954	0.618301	-0.785342	-0.030699	0.779327	0.617686	-0.105417	0	0	0
57839	0	0	0	0	0	9.748067	-0.282675	-1.037746	0.000264	0.002466	0.002361	-0.874756	0.337646	0.458252	0.229671	-0.705784	-0.233611	-0.628129	-163.751166	-83.696409	22.056467	0.101761	0.041231	0.993954	0.618284	-0.785354	-0.030722	0.779339	0.617672	-0.105411	0	0	0
57840	0	0	0	0	0	9.765322	-0.290876	-0.971044	0.000161	0.003920	0.001865	-0.872559	0.341064	0.453125	0.229673	-0.705784	-0.233595	-0.628135	-163.739169	-83.697036	22.043226	0.101760	0.041203	0.993955	0.618266	-0.785368	-0.030741	0.779354	0.617657	-0.105394	0	0	0
57841	0	0	0	0	0	9.727643	-0.301277	-1.016011	-0.002758	0.003039	0.004206	-0.870605	0.329590	0.461670	0.229672	-0.705791	-0.233562	-0.628139	-163.717464	-83.696847	22.018671	0.101781	0.041161	0.993955	0.618224	-0.785399	-0.030782	0.779384	0.617620	-0.105385	0	0	0
57842	0	0	0	0	0	9.748133	-0.283570	-1.036881	-0.001051	0.001551	0.004494	-0.875244	0.331055	0.462158	0.229675	-0.705802	-0.233536	-0.628135	-163.696519	-83.695747	21.995728	0.101815	0.041127	0.993953	0.618194	-0.785421	-0.030826	0.779403	0.617594	-0.105393	0	0	0
57843	0	0	0	0	0	9.769333	-0.319204	-1.046260	0.001845	0.005846	0.002589	-0.871826	0.325439	0.453125	0.229679	-0.705798	-0.233513	-0.628147	-163.678211	-83.697289	21.975750	0.101805	0.041082	0.993956	0.618170	-0.785439	-0.030852	0.779424	0.617575	-0.105357	0	0	0
57844	0	0	0	0	0	9.751281	-0.303423	-1.021380	0.000656	0.000062	0.004781	-0.871094	0.334229	0.455322	0.229687	-0.705812	-0.233493	-0.628136	-163.657035	-83.695323	21.953560	0.101852	0.041055	0.993952	0.618153	-0.785450	-0.030901	0.779431	0.617562	-0.105378	0	0	0
57845	0	0	0	0	0	9.745790	-0.319002	-1.039414	-0.001177	0.006420	0.004434	-0.874268	0.329346	0.449707	0.229690	-0.705808	-0.233457	-0.628152	-163.630036	-83.697025	21.923731	0.101846	0.040991	0.993955	0.618112	-0.785481	-0.030942	0.779464	0.617527	-0.105335	0	0	0
57846	0	0	0	0	0	9.754439	-0.323087	-1.005788	0.002815	0.002335	-0.002837	-0.880615	0.335693	0.461670	0.229685	-0.705804	-0.233468	-0.628155	-163.642225	-83.697537	21.936353	0.101829	0.041010	0.993956	0.618120	-0.785476	-0.030917	0.779461	0.617532	-0.105333	0	0	0
57847	0	0	0	0	0	9.758423	-0.350510	-1.081629	0.002236	0.003442	0.005009	-0.870117	0.334229	0.463135	0.229699	-0.705807	-0.233445	-0.628155	-163.614565	-83.697535	21.907996	0.101849	0.040960	0.993956	0.618107	-0.785484	-0.030968	0.779468	0.617526	-0.105319	0	0	0
57848	0	0	0	0	0	9.751387	-0.304455	-1.020053	0.003471	0.002397	0.001944	-0.870361	0.334473	0.463867	0.229711	-0.705807	-0.233441	-0.628152	-163.602491	-83.697309	21.896586	0.101861	0.040941	0.993956	0.618115	-0.785477	-0.030991	0.779460	0.617536	-0.105316	0	0	0
57849	0	0	0	0	0	9.745897	-0.319811	-1.038155	0.006678	0.002329	0.001528	-0.868896	0.335205	0.462402	0.229727	-0.705806	-0.233442	-0.628147	-163.590995	-83.696987	21.886506	0.101874	0.040925	0.993955	0.618133	-0.785461	-0.031014	0.779444	0.617556	-0.105315	0	0	0
57850	0	0	0	0	0	9.745916	-0.320031	-1.037907	0.005074	0.002363	0.001736	-0.874023	0.334961	0.452393	0.229743	-0.705805	-0.233443	-0.628142	-163.579091	-83.696774	21.876191	0.101884	0.040908	0.993955	0.618153	-0.785444	-0.031037	0.779427	0.617579	-0.105312	0	0	0
57851	0	0	0	0	0	9.730939	-0.323340	-0.998345	0.003862	-0.000006	0.004365	-0.877686	0.334229	0.458496	0.229759	-0.705816	-0.233432	-0.628128	-163.558110	-83.694849	21.855575	0.101930	0.040884	0.993951	0.618155	-0.785441	-0.031085	0.779419	0.617585	-0.105333	0	0	0
57852	0	0	0	0	0	9.766419	-0.302449	-1.058713	0.007810	0.002737	-0.002033	-0.875000	0.332520	0.453125	0.229774	-0.705805	-0.233455	-0.628125	-163.562841	-83.695453	21.863572	0.101915	0.040894	0.993952	0.618201	-0.785406	-0.031073	0.779385	0.617629	-0.105325	0	0	0
57853	0	0	0	0	0	9.745956	-0.320605	-1.037359	0.001868	0.002431	0.002152	-0.875977	0.337402	0.459229	0.229778	-0.705808	-0.233442	-0.628126	-163.550912	-83.695336	21.850893	0.101926	0.040872	0.993952	0.618189	-0.785414	-0.031096	0.779393	0.617620	-0.105321	0	0	0
57854	0	0	0	0	0	9.751474	-0.305503	-1.018914	0.006229	-0.000643	-0.002261	-0.861084	0.334473	0.463379	0.229782	-0.705810	-0.233465	-0.628113	-163.562642	-83.694120	21.865021	0.101935	0.040905	0.993950	0.618223	-0.785388	-0.031080	0.779365	0.617650	-0.105347	0	0	0
57855	0	0	0	0	0	9.771966	-0.287537	-1.039949	0.002155	0.001483	0.004077	-0.880615	0.334717	0.457520	0.229791	-0.705819	-0.233446	-0.628107	-163.541828	-83.692934	21.843303	0.101970	0.040874	0.993947	0.618208	-0.785398	-0.031124	0.779373	0.617640	-0.105356	0	0	0
57856	0	0	0	0	0	9.739795	-0.282844	-1.066719	0.005075	0.002363	0.001736	-0.878418	0.337402	0.454590	0.229808	-0.705818	-0.233447	-0.628102	-163.529933	-83.692720	21.832997	0.101980	0.040857	0.993947	0.618228	-0.785381	-0.031147	0.779355	0.617662	-0.105353	0	0	0
57857	0	0	0	0	0	9.733439	-0.290050	-0.993746	0.005156	0.004323	0.002668	-0.878662	0.332520	0.456299	0.229829	-0.705811	-0.233442	-0.628104	-163.510430	-83.693577	21.814859	0.101980	0.040820	0.993949	0.618245	-0.785367	-0.031179	0.779342	0.617683	-0.105328	0	0	0
57858	0	0	0	0	0	9.772042	-0.288372	-1.038998	0.003368	0.003851	0.001448	-0.873291	0.337402	0.458740	0.229840	-0.705806	-0.233438	-0.628107	-163.498753	-83.694228	21.803789	0.101977	0.040796	0.993950	0.618252	-0.785360	-0.031197	0.779336	0.617693	-0.105311	0	0	0
57859	0	0	0	0	0	9.719412	-0.301603	-1.044425	0.003265	0.005306	0.000951	-0.873779	0.325928	0.460693	0.229849	-0.705797	-0.233431	-0.628117	-163.487566	-83.695832	21.792654	0.101959	0.040766	0.993953	0.618253	-0.785359	-0.031210	0.779338	0.617696	-0.105278	0	0	0
57860	0	0	0	0	0	9.783789	-0.311919	-0.990208	0.007069	-0.000075	0.003949	-0.871338	0.332520	0.458252	0.229877	-0.705803	-0.233434	-0.628098	-163.467119	-83.693918	21.774893	0.102003	0.040746	0.993949	0.618287	-0.785331	-0.031257	0.779306	0.617734	-0.105299	0	0	0
57861	0	0	0	0	0	9.749210	-0.341603	-1.020339	0.005237	0.006283	0.003599	-0.882568	0.333984	0.450439	0.229896	-0.705794	-0.233418	-0.628108	-163.441279	-83.695583	21.749357	0.101994	0.040690	0.993952	0.618289	-0.785328	-0.031296	0.779305	0.617742	-0.105257	0	0	0
57862	0	0	0	0	0	9.748565	-0.288575	-1.031425	0.008488	-0.000615	0.002313	-0.873535	0.333984	0.458496	0.229923	-0.705798	-0.233432	-0.628088	-163.428963	-83.693639	21.740595	0.102031	0.040687	0.993949	0.618335	-0.785290	-0.031328	0.779263	0.617790	-0.105282	0	0	0
57863	0	0	0	0	0	9.775254	-0.308944	-1.022539	0.008076	0.005202	0.000327	-0.872314	0.331299	0.460938	0.229948	-0.705782	-0.233443	-0.628093	-163.418381	-83.695385	21.733018	0.102009	0.040662	0.993952	0.618376	-0.785257	-0.031339	0.779234	0.617833	-0.105248	0	0	0
57864	0	0	0	0	0	9.734534	-0.300176	-1.082236	0.008363	0.004254	0.002251	-0.882813	0.337158	0.450439	0.229980	-0.705771	-0.233451	-0.628090	-163.399239	-83.696123	21.717316	0.102008	0.040630	0.993954	0.618422	-0.785220	-0.031370	0.779198	0.617882	-0.105225	0	0	0
57865	0	0	0	0	0	9.775359	-0.309386	-1.021397	0.008054	0.008616	0.000761	-0.868164	0.336670	0.457031	0.230009	-0.705746	-0.233456	-0.628106	-163.381446	-83.699635	21.702368	0.101962	0.040580	0.993960	0.618461	-0.785189	-0.031386	0.779173	0.617925	-0.105157	0	0	0
57866	0	0	0	0	0	9.757340	-0.293498	-0.996160	0.008547	0.004760	0.003680	-0.872314	0.336426	0.457764	0.230047	-0.705735	-0.233459	-0.628104	-163.354328	-83.700416	21.678748	0.101966	0.040533	0.993962	0.618506	-0.785151	-0.031432	0.779136	0.617976	-0.105129	0	0	0
57867	0	0	0	0	0	9.730703	-0.273740	-1.004417	0.010070	0.002764	0.002541	-0.876709	0.331787	0.456299	0.230082	-0.705728	-0.233470	-0.628094	-163.334540	-83.700270	21.662990	0.101980	0.040506	0.993961	0.618559	-0.785108	-0.031469	0.779092	0.618033	-0.105120	0	0	0
57868	0	0	0	0	0	9.748813	-0.290342	-1.028583	-0.001074	0.004968	0.004927	-0.875732	0.325928	0.462402	0.230090	-0.705729	-0.233438	-0.628102	-163.306417	-83.700958	21.632813	0.101990	0.040448	0.993963	0.618528	-0.785130	-0.031517	0.779115	0.618009	-0.105094	0	0	0
57869	0	0	0	0	0	9.777939	-0.276628	-1.016010	0.000346	0.004427	0.003291	-0.878418	0.327148	0.456787	0.230089	-0.705730	-0.233410	-0.628111	-163.287915	-83.701696	21.611772	0.101993	0.040406	0.993964	0.618492	-0.785158	-0.031547	0.779144	0.617977	-0.105071	0	0	0
57870	0	0	0	0	0	9.722225	-0.271047	-1.036299	0.000714	0.005439	0.006147	-0.866211	0.336426	0.451416	0.230108	-0.705729	-0.233379	-0.628117	-163.251984	-83.702438	21.574771	0.102007	0.040335	0.993966	0.618474	-0.785169	-0.031609	0.779156	0.617966	-0.105039	0	0	0
57871	0	0	0	0	0	9.746486	-0.326030	-1.030667	0.002236	0.003444	0.005008	-0.872070	0.334717	0.447754	0.230123	-0.705732	-0.233356	-0.628117	-163.224265	-83.702388	21.546322	0.102028	0.040285	0.993966	0.618461	-0.785177	-0.031660	0.779164	0.617959	-0.105025	0	0	0
57872	0	0	0	0	0	9.770083	-0.327755	-1.036562	0.001103	0.003037	0.008569	-0.876709	0.328613	0.454102	0.230148	-0.705741	-0.233320	-0.628111	-163.179672	-83.701407	21.500830	0.102075	0.040210	0.993964	0.618444	-0.785188	-0.031747	0.779171	0.617951	-0.105016	0	0	0
57873	0	0	0	0	0	9.752030	-0.312327	-1.011498	0.002399	0.007365	0.006870	-0.877197	0.324707	0.453613	0.230175	-0.705732	-0.233288	-0.628123	-163.136655	-83.703286	21.457360	0.102076	0.040121	0.993967	0.618434	-0.785193	-0.031816	0.779179	0.617951	-0.104961	0	0	0
57874	0	0	0	0	0	9.749014	-0.293766	-1.025698	0.002032	0.006352	0.004014	-0.879395	0.336426	0.456543	0.230193	-0.705724	-0.233267	-0.628133	-163.109163	-83.704873	21.429608	0.102069	0.040061	0.993970	0.618428	-0.785195	-0.031859	0.779184	0.617951	-0.104919	0	0	0
57875	0	0	0	0	0	9.767143	-0.310480	-1.049666	-0.000889	0.005474	0.006354	-0.874756	0.331787	0.457764	0.230201	-0.705725	-0.233226	-0.628144	-163.074053	-83.705765	21.391699	0.102081	0.039988	0.993972	0.618387	-0.785226	-0.031918	0.779216	0.617917	-0.104885	0	0	0
57876	0	0	0	0	0	9.743601	-0.309871	-1.042903	0.000244	0.005881	0.002794	-0.873047	0.332520	0.460938	0.230208	-0.705719	-0.233205	-0.628156	-163.054339	-83.707295	21.370742	0.102071	0.039941	0.993975	0.618368	-0.785239	-0.031947	0.779232	0.617903	-0.104849	0	0	0
57877	0	0	0	0	0	9.738153	-0.325504	-1.060587	0.005607	0.007294	0.006456	-0.871826	0.331543	0.454102	0.230241	-0.705709	-0.233180	-0.628164	-163.011951	-83.709001	21.329008	0.102073	0.039856	0.993978	0.618374	-0.785232	-0.032016	0.779227	0.617918	-0.104797	0	0	0
57878	0	0	0	0	0	9.775877	-0.315869	-1.014427	0.001828	0.009260	0.003020	-0.872559	0.335693	0.451904	0.230259	-0.705691	-0.233159	-0.628186	-162.985038	-83.712342	21.301721	0.102038	0.039786	0.993985	0.618368	-0.785235	-0.032048	0.779237	0.617918	-0.104726	0	0	0
57879	0	0	0	0	0	9.752374	-0.315265	-1.007260	0.005403	0.010202	0.005462	-0.864258	0.336182	0.460693	0.230295	-0.705669	-0.233138	-0.628206	-162.942500	-83.715900	21.260437	0.102009	0.039690	0.993991	0.618382	-0.785221	-0.032108	0.779229	0.617942	-0.104643	0	0	0
57880	0	0	0	0	0	9.761994	-0.327961	-1.064050	0.005035	0.009190	0.002605	-0.868652	0.330811	0.453369	0.230323	-0.705647	-0.233129	-0.628224	-162.915853	-83.719268	21.235267	0.101972	0.039625	0.993998	0.618401	-0.785205	-0.032139	0.779219	0.617967	-0.104573	0	0	0
57881	0	0	0	0	0	9.723455	-0.330108	-1.017519	0.008243	0.009119	0.002191	-0.872559	0.333984	0.450928	0.230356	-0.705623	-0.233126	-0.628240	-162.889574	-83.722618	21.211549	0.101934	0.039561	0.994004	0.618435	-0.785177	-0.032170	0.779196	0.618007	-0.104502	0	0	0
57882	0	0	0	0	0	9.744071	-0.312378	-1.037757	0.008345	0.007665	0.002688	-0.868164	0.336670	0.448242	0.230393	-0.705602	-0.233129	-0.628249	-162.862904	-83.725134	21.188263	0.101909	0.039504	0.994009	0.618480	-0.785140	-0.032206	0.779164	0.618057	-0.104446	0	0	0
57883	0	0	0	0	0	9.776287	-0.317714	-1.009891	0.008244	0.009119	0.002191	-0.881348	0.333008	0.459473	0.230431	-0.705575	-0.233131	-0.628264	-162.835980	-83.728672	21.164766	0.101868	0.039440	0.994016	0.618526	-0.785103	-0.032237	0.779133	0.618109	-0.104372	0	0	0
57884	0	0	0	0	0	9.752765	-0.317072	-1.002897	0.007027	0.006752	0.004821	-0.871826	0.328857	0.453125	0.230470	-0.705561	-0.233123	-0.628269	-162.800803	-83.730326	21.132163	0.101864	0.039372	0.994019	0.618559	-0.785075	-0.032292	0.779108	0.618149	-0.104325	0	0	0
57885	0	0	0	0	0	9.731689	-0.282314	-0.992418	-0.001011	0.010344	0.006288	-0.873535	0.332031	0.450439	0.230482	-0.705548	-0.233075	-0.628296	-162.758376	-83.733807	21.086656	0.101839	0.039269	0.994026	0.618514	-0.785107	-0.032352	0.779146	0.618113	-0.104243	0	0	0
57886	0	0	0	0	0	9.755952	-0.337162	-0.986304	0.003351	0.007264	0.001881	-0.868408	0.341797	0.456543	0.230499	-0.705533	-0.233066	-0.628311	-162.739118	-83.736236	21.067949	0.101812	0.039221	0.994030	0.618521	-0.785101	-0.032374	0.779145	0.618124	-0.104192	0	0	0
57887	0	0	0	0	0	9.726933	-0.351542	-0.997702	0.005139	0.007735	0.003102	-0.879395	0.336426	0.450684	0.230526	-0.705516	-0.233055	-0.628324	-162.711444	-83.738764	21.041673	0.101790	0.039158	0.994035	0.618538	-0.785086	-0.032411	0.779134	0.618148	-0.104134	0	0	0
57888	0	0	0	0	0	9.774186	-0.354168	-1.009253	0.005506	0.008748	0.005959	-0.877441	0.346191	0.456787	0.230565	-0.705498	-0.233036	-0.628336	-162.668274	-83.741307	21.000153	0.101777	0.039069	0.994040	0.618558	-0.785068	-0.032477	0.779120	0.618177	-0.104068	0	0	0
57889	0	0	0	0	0	9.753119	-0.319376	-0.998709	0.005221	0.009695	0.004033	-0.872559	0.328125	0.451904	0.230600	-0.705475	-0.233023	-0.628354	-162.632306	-83.744801	20.966018	0.101743	0.038986	0.994046	0.618581	-0.785047	-0.032524	0.779106	0.618208	-0.103990	0	0	0
57890	0	0	0	0	0	9.744686	-0.315783	-1.030927	0.003333	0.010678	0.002314	-0.880371	0.335693	0.453369	0.230623	-0.705450	-0.233008	-0.628380	-162.605479	-83.749018	20.939687	0.101693	0.038913	0.994054	0.618587	-0.785041	-0.032551	0.779107	0.618220	-0.103905	0	0	0
57891	0	0	0	0	0	9.741739	-0.297133	-1.044863	-0.000909	0.008890	0.006785	-0.872803	0.333984	0.456055	0.230638	-0.705441	-0.232962	-0.628401	-162.562219	-83.751661	20.893764	0.101681	0.038816	0.994059	0.618548	-0.785070	-0.032615	0.779140	0.618190	-0.103836	0	0	0
57892	0	0	0	0	0	9.750345	-0.301536	-1.010680	0.001729	0.010714	0.002521	-0.880615	0.330078	0.450684	0.230655	-0.705418	-0.232941	-0.628429	-162.535148	-83.755859	20.866264	0.101632	0.038741	0.994067	0.618541	-0.785074	-0.032643	0.779152	0.618189	-0.103751	0	0	0
57893	0	0	0	0	0	9.758976	-0.305771	-0.976239	-0.003101	0.014235	0.003572	-0.875732	0.330566	0.448975	0.230658	-0.705391	-0.232893	-0.628475	-162.500731	-83.761951	20.827905	0.101559	0.038635	0.994079	0.618487	-0.785115	-0.032673	0.779204	0.618143	-0.103631	0	0	0
57894	0	0	0	0	0	9.723971	-0.281975	-1.016814	-0.012724	0.014450	0.004809	-0.873779	0.341064	0.456787	0.230636	-0.705375	-0.232814	-0.628530	-162.464504	-83.767792	20.782864	0.101495	0.038519	0.994090	0.618366	-0.785210	-0.032708	0.779309	0.618031	-0.103514	0	0	0
57895	0	0	0	0	0	9.741112	-0.290146	-0.949012	-0.011303	0.013907	0.003175	-0.878906	0.339844	0.454834	0.230611	-0.705358	-0.232744	-0.628585	-162.436289	-83.773719	20.746438	0.101423	0.038418	0.994101	0.618253	-0.785297	-0.032728	0.779408	0.617926	-0.103399	0	0	0
57896	0	0	0	0	0	9.771441	-0.284640	-1.026385	-0.024050	0.016154	0.005753	-0.872070	0.338379	0.454834	0.230554	-0.705351	-0.232624	-0.628658	-162.398969	-83.780322	20.693770	0.101351	0.038285	0.994114	0.618043	-0.785462	-0.032761	0.779584	0.617725	-0.103269	0	0	0
57897	0	0	0	0	0	9.779326	-0.384756	-1.074602	-0.021125	0.017030	0.003416	-0.877930	0.332031	0.457764	0.230500	-0.705336	-0.232520	-0.628733	-162.369555	-83.787846	20.650639	0.101258	0.038162	0.994128	0.617856	-0.785608	-0.032774	0.779744	0.617546	-0.103128	0	0	0
57898	0	0	0	0	0	9.774602	-0.453174	-1.079794	-0.021792	0.020379	-0.000932	-0.877686	0.330811	0.454590	0.230435	-0.705305	-0.232426	-0.628826	-162.357567	-83.797911	20.624757	0.101111	0.038055	0.994147	0.617669	-0.785756	-0.032743	0.779911	0.617365	-0.102954	0	0	0
57899	0	0	0	0	0	9.805831	-0.351264	-1.073329	-0.018336	0.026187	0.001451	-0.873047	0.331055	0.456543	0.230390	-0.705257	-0.232322	-0.628936	-162.323254	-83.810828	20.577395	0.100933	0.037893	0.994171	0.617494	-0.785894	-0.032737	0.780073	0.617199	-0.102721	0	0	0
57900	0	0	0	0	0	9.726276	-0.290558	-1.097042	-0.018517	0.025680	0.000023	-0.886475	0.333740	0.451904	0.230345	-0.705207	-0.232229	-0.629042	-162.295871	-83.823618	20.537916	0.100751	0.037745	0.994195	0.617332	-0.786022	-0.032718	0.780225	0.617045	-0.102494	0	0	0
57901	0	0	0	0	0	9.725219	-0.431039	-1.075211	-0.016338	0.027948	-0.007592	-0.875244	0.335449	0.450684	0.230282	-0.705139	-0.232163	-0.629166	-162.302677	-83.839116	20.533361	0.100502	0.037643	0.994224	0.617185	-0.786141	-0.032624	0.780373	0.616899	-0.102242	0	0	0
57902	0	0	0	0	0	9.810464	-0.323885	-1.152736	-0.017329	0.034872	-0.001734	-0.878906	0.325928	0.452637	0.230246	-0.705057	-0.232069	-0.629305	-162.268394	-83.857227	20.487627	0.100238	0.037453	0.994258	0.617034	-0.786261	-0.032590	0.780526	0.616758	-0.101923	0	0	0
57903	0	0	0	0	0	9.733930	-0.231523	-0.975334	-0.017045	0.033923	0.000191	-0.871582	0.333496	0.456299	0.230213	-0.704980	-0.231966	-0.629441	-162.226231	-83.874639	20.433460	0.099990	0.037252	0.994291	0.616874	-0.786387	-0.032572	0.780684	0.616609	-0.101611	0	0	0
57904	0	0	0	0	0	9.739656	-0.365138	-1.025426	-0.016365	0.034774	-0.006721	-0.876953	0.329590	0.454590	0.230165	-0.704891	-0.231893	-0.629585	-162.216493	-83.893563	20.412971	0.099696	0.037102	0.994326	0.616736	-0.786499	-0.032489	0.780831	0.616476	-0.101293	0	0	0
57905	0	0	0	0	0	9.772341	-0.271178	-1.108482	-0.018481	0.037874	0.002260	-0.874023	0.334229	0.454834	0.230136	-0.704808	-0.231773	-0.629734	-162.157506	-83.912623	20.340777	0.099432	0.036862	0.994361	0.616559	-0.786638	-0.032492	0.781005	0.616313	-0.100944	0	0	0
57906	0	0	0	0	0	9.738530	-0.303002	-0.938460	-0.022445	0.042750	-0.002176	-0.878906	0.328369	0.454834	0.230090	-0.704706	-0.231655	-0.629908	-162.114396	-83.935095	20.283227	0.099103	0.036626	0.994403	0.616368	-0.786789	-0.032449	0.781197	0.616134	-0.100549	0	0	0
57907	0	0	0	0	0	9.749113	-0.216343	-1.105689	-0.020014	0.043277	0.003833	-0.875488	0.326904	0.456543	0.230067	-0.704608	-0.231518	-0.630076	-162.038441	-83.956835	20.193114	0.098807	0.036340	0.994443	0.616178	-0.786937	-0.032465	0.781384	0.615962	-0.100147	0	0	0
57908	0	0	0	0	0	9.792912	-0.245010	-1.026229	-0.022576	0.043406	0.009022	-0.876709	0.337158	0.441650	0.230056	-0.704517	-0.231360	-0.630239	-161.935607	-83.977665	20.075436	0.098542	0.036013	0.994481	0.615975	-0.787093	-0.032533	0.781578	0.615782	-0.099745	0	0	0
57909	0	0	0	0	0	9.765334	-0.366212	-1.011792	-0.020185	0.042770	0.002403	-0.874512	0.336426	0.454102	0.230031	-0.704418	-0.231231	-0.630407	-161.866197	-83.999446	19.992386	0.098238	0.035741	0.994521	0.615793	-0.787236	-0.032536	0.781760	0.615615	-0.099346	0	0	0
57910	0	0	0	0	0	9.779568	-0.203490	-1.080396	-0.015926	0.052548	0.011450	-0.877197	0.335938	0.453369	0.230062	-0.704294	-0.231075	-0.630592	-161.729818	-84.024776	19.844819	0.097917	0.035339	0.994567	0.615640	-0.787352	-0.032635	0.781921	0.615491	-0.098851	0	0	0
57911	0	0	0	0	0	9.777411	-0.241791	-0.882117	-0.023840	0.051269	0.012955	-0.879150	0.331787	0.451416	0.230067	-0.704185	-0.230887	-0.630780	-161.590801	-84.049085	19.689642	0.097615	0.034931	0.994611	0.615418	-0.787521	-0.032741	0.782133	0.615297	-0.098371	0	0	0
57912	0	0	0	0	0	9.772792	-0.254613	-1.092464	-0.021166	0.049684	0.008263	-0.876221	0.336670	0.455811	0.230066	-0.704072	-0.230729	-0.630965	-161.476725	-84.073366	19.561493	0.097295	0.034572	0.994655	0.615227	-0.787668	-0.032803	0.782323	0.615130	-0.097906	0	0	0
57913	0	0	0	0	0	9.790865	-0.370558	-0.998143	-0.013881	0.058882	0.015483	-0.875000	0.331055	0.451660	0.230121	-0.703931	-0.230553	-0.631166	-161.303402	-84.101295	19.377327	0.096949	0.034098	0.994705	0.615077	-0.787779	-0.032944	0.782484	0.615014	-0.097347	0	0	0
57914	0	0	0	0	0	9.782197	-0.261103	-1.048426	-0.019997	0.054660	0.017771	-0.873291	0.335449	0.448242	0.230160	-0.703811	-0.230359	-0.631356	-161.127268	-84.126446	19.187476	0.096649	0.033633	0.994750	0.614885	-0.787921	-0.033101	0.782672	0.614857	-0.096832	0	0	0
57915	0	0	0	0	0	9.756886	-0.200236	-0.957134	-0.019922	0.060026	0.019145	-0.884766	0.330811	0.456055	0.230208	-0.703677	-0.230152	-0.631564	-160.932487	-84.154210	18.978420	0.096315	0.033123	0.994800	0.614686	-0.788069	-0.033273	0.782869	0.614695	-0.096263	0	0	0
57916	0	0	0	0	0	9.702523	-0.398003	-1.033580	-0.018669	0.058981	0.016085	-0.878906	0.335205	0.455322	0.230251	-0.703541	-0.229963	-0.631769	-160.753208	-84.181891	18.786192	0.095970	0.032645	0.994849	0.614507	-0.788203	-0.033416	0.783052	0.614549	-0.095705	0	0	0
57917	0	0	0	0	0	9.868806	-0.311433	-0.986096	-0.007094	0.063145	0.017989	-0.881592	0.337891	0.445313	0.230340	-0.703382	-0.229793	-0.631975	-160.548435	-84.211380	18.573885	0.095605	0.032126	0.994901	0.614402	-0.788278	-0.033587	0.783179	0.614480	-0.095102	0	0	0
57918	0	0	0	0	0	9.745429	-0.269491	-0.979383	-0.018254	0.072172	0.021195	-0.874023	0.334229	0.450684	0.230416	-0.703209	-0.229572	-0.632220	-160.312606	-84.245060	18.325079	0.095189	0.031527	0.994960	0.614221	-0.788411	-0.033781	0.783372	0.614341	-0.094412	0	0	0
57919	0	0	0	0	0	9.725147	-0.384981	-1.035224	-0.023219	0.068363	0.019919	-0.888428	0.332031	0.447510	0.230465	-0.703052	-0.229343	-0.632460	-160.090679	-84.276876	18.087180	0.094794	0.030960	0.995015	0.614000	-0.788575	-0.033958	0.783593	0.614158	-0.093761	0	0	0
57920	0	0	0	0	0	9.841685	-0.330910	-0.978169	-0.011736	0.073976	0.021341	-0.876709	0.338623	0.449219	0.230567	-0.702866	-0.229140	-0.632703	-159.841186	-84.311294	17.828422	0.094363	0.030348	0.995075	0.613870	-0.788668	-0.034160	0.783747	0.614070	-0.093051	0	0	0
57921	0	0	0	0	0	9.708463	-0.425830	-0.985494	-0.012362	0.077330	0.016996	-0.882324	0.333252	0.443848	0.230654	-0.702665	-0.228944	-0.632965	-159.605869	-84.348345	17.583133	0.093879	0.029750	0.995139	0.613734	-0.788767	-0.034318	0.783912	0.613972	-0.092307	0	0	0
57922	0	0	0	0	0	9.821602	-0.341064	-1.048197	-0.010664	0.079245	0.017734	-0.886963	0.338135	0.447266	0.230754	-0.702457	-0.228751	-0.633230	-159.358353	-84.386096	17.327012	0.093385	0.029135	0.995204	0.613616	-0.788851	-0.034485	0.784063	0.613894	-0.091544	0	0	0
57923	0	0	0	0	0	9.748793	-0.278227	-0.942778	-0.003988	0.084963	0.019758	-0.880127	0.333740	0.449951	0.230889	-0.702224	-0.228564	-0.633506	-159.080515	-84.426508	17.044020	0.092857	0.028467	0.995272	0.613546	-0.788898	-0.034678	0.784181	0.613865	-0.090720	0	0	0
57924	0	0	0	0	0	9.731255	-0.359371	-0.993678	-0.007533	0.084027	0.017286	-0.881104	0.338379	0.442627	0.231004	-0.701996	-0.228377	-0.633784	-158.816275	-84.466673	16.772933	0.092322	0.027826	0.995340	0.613453	-0.788962	-0.034844	0.784316	0.613811	-0.089909	0	0	0
57925	0	0	0	0	0	9.813598	-0.334407	-0.965688	-0.003887	0.090318	0.021135	-0.884521	0.332764	0.441162	0.231149	-0.701749	-0.228178	-0.634077	-158.510919	-84.509277	16.462194	0.091762	0.027115	0.995412	0.613379	-0.789010	-0.035052	0.784440	0.613781	-0.089033	0	0	0
57926	0	0	0	0	0	9.735585	-0.340246	-0.866823	-0.004054	0.093220	0.020145	-0.884521	0.333008	0.450928	0.231295	-0.701491	-0.227981	-0.634380	-158.199955	-84.553459	16.146211	0.091173	0.026395	0.995485	0.613312	-0.789054	-0.035249	0.784561	0.613756	-0.088129	0	0	0
57927	0	0	0	0	0	9.823065	-0.331195	-1.019932	-0.005558	0.095206	0.021273	-0.883057	0.333496	0.443604	0.231437	-0.701230	-0.227768	-0.634693	-157.874868	-84.598354	15.814266	0.090574	0.025654	0.995559	0.613218	-0.789117	-0.035455	0.784703	0.613707	-0.087205	0	0	0
57928	0	0	0	0	0	9.808002	-0.294443	-0.876510	-0.000131	0.101957	0.026366	-0.888184	0.333252	0.446289	0.231627	-0.700947	-0.227552	-0.635014	-157.495646	-84.645459	15.432029	0.089954	0.024832	0.995636	0.613176	-0.789138	-0.035718	0.784808	0.613713	-0.086212	0	0	0
57929	0	0	0	0	0	9.756641	-0.405134	-0.957111	-0.000631	0.100446	0.022072	-0.878174	0.334473	0.446289	0.231793	-0.700665	-0.227346	-0.635338	-157.139029	-84.692542	15.071280	0.089318	0.024052	0.995713	0.613121	-0.789171	-0.035936	0.784924	0.613702	-0.085234	0	0	0
57930	0	0	0	0	0	9.857422	-0.343583	-0.962370	0.007917	0.108571	0.026294	-0.884033	0.335449	0.442139	0.232019	-0.700350	-0.227148	-0.635674	-156.725951	-84.742675	14.659731	0.088646	0.023189	0.995793	0.613142	-0.789142	-0.036205	0.784983	0.613772	-0.084173	0	0	0
57931	0	0	0	0	0	9.770984	-0.185780	-0.928843	0.006848	0.113513	0.031217	-0.881592	0.340576	0.442871	0.232256	-0.700029	-0.226918	-0.636023	-156.265401	-84.793940	14.198994	0.087966	0.022257	0.995875	0.613138	-0.789131	-0.036522	0.785063	0.613821	-0.083063	0	0	0
57932	0	0	0	0	0	9.761784	-0.272438	-0.943454	-0.001151	0.117103	0.032601	-0.890381	0.329834	0.438965	0.232479	-0.699704	-0.226658	-0.636391	-155.782304	-84.846465	13.711990	0.087265	0.021292	0.995958	0.613083	-0.789159	-0.036847	0.785184	0.613820	-0.081920	0	0	0
57933	0	0	0	0	0	9.807730	-0.312449	-0.946678	0.013997	0.122160	0.037075	-0.889893	0.342041	0.446289	0.232770	-0.699352	-0.226421	-0.636756	-155.241674	-84.900209	13.175148	0.086551	0.020261	0.996041	0.613132	-0.789103	-0.037227	0.785225	0.613927	-0.080720	0	0	0
57934	0	0	0	0	0	9.792697	-0.266009	-0.906603	0.014538	0.127061	0.041808	-0.882813	0.339111	0.432373	0.233089	-0.698988	-0.226168	-0.637130	-154.647149	-84.954831	12.585384	0.085828	0.019162	0.996126	0.613193	-0.789035	-0.037656	0.785257	0.614049	-0.079471	0	0	0
57935	0	0	0	0	0	9.832785	-0.119689	-0.866515	0.018458	0.125568	0.046720	-0.880615	0.333496	0.436035	0.233433	-0.698629	-0.225909	-0.637488	-154.012544	-85.006868	11.957296	0.085148	0.018032	0.996205	0.613275	-0.788949	-0.038137	0.785267	0.614195	-0.078236	0	0	0
57936	0	0	0	0	0	9.786345	-0.122456	-0.842626	0.020947	0.134837	0.054571	-0.890137	0.342529	0.438477	0.233823	-0.698246	-0.225622	-0.637866	-153.289479	-85.061046	11.242290	0.084442	0.016785	0.996287	0.613375	-0.788843	-0.038698	0.785264	0.614366	-0.076907	0	0	0
57937	0	0	0	0	0	9.801031	-0.159772	-0.872069	0.014223	0.133671	0.065565	-0.885498	0.344482	0.431152	0.234218	-0.697889	-0.225273	-0.638236	-152.493391	-85.110914	10.449389	0.083814	0.015457	0.996362	0.613404	-0.788788	-0.039362	0.785310	0.614471	-0.075593	0	0	0
57938	0	0	0	0	0	9.793966	0.039505	-0.831300	0.024222	0.137514	0.080893	-0.884766	0.333496	0.433594	0.234706	-0.697522	-0.224901	-0.638588	-151.571081	-85.157604	9.536409	0.083249	0.013985	0.996431	0.613509	-0.788665	-0.040187	0.785288	0.614664	-0.074235	0	0	0
57939	0	0	0	0	0	9.757205	-0.043643	-0.747178	0.009979	0.141467	0.097519	-0.889648	0.337891	0.437744	0.235199	-0.697179	-0.224418	-0.638952	-150.527748	-85.200357	8.493253	0.082754	0.012358	0.996493	0.613481	-0.788636	-0.041167	0.785362	0.614736	-0.072844	0	0	0
57940	0	0	0	0	0	9.819052	0.114488	-0.726116	0.012262	0.136289	0.115309	-0.886963	0.335449	0.435303	0.235754	-0.696868	-0.223890	-0.639272	-149.377024	-85.233725	7.344295	0.082410	0.010622	0.996542	0.613464	-0.788587	-0.042326	0.785411	0.614831	-0.071503	0	0	0
57941	0	0	0	0	0	9.803269	0.129945	-0.793669	0.003999	0.155607	0.129094	-0.890137	0.340576	0.429443	0.236334	-0.696523	-0.223255	-0.639655	-148.066422	-85.270375	6.028566	0.081998	0.008660	0.996595	0.613350	-0.788607	-0.043613	0.785544	0.614837	-0.069975	0	0	0
57942	0	0	0	0	0	9.789055	0.220151	-0.762742	0.002082	0.142338	0.151834	-0.887451	0.337158	0.426758	0.236977	-0.696245	-0.222559	-0.639963	-146.652803	-85.291007	4.610072	0.081829	0.006598	0.996625	0.613224	-0.788619	-0.045129	0.785659	0.614847	-0.068578	0	0	0
57943	0	0	0	0	0	9.860741	0.093670	-0.741484	-0.006081	0.156797	0.165664	-0.885498	0.341797	0.431885	0.237644	-0.695945	-0.221766	-0.640316	-145.097228	-85.311151	3.043403	0.081629	0.004340	0.996653	0.613009	-0.788690	-0.046773	0.785848	0.614775	-0.067041	0	0	0
57944	0	0	0	0	0	9.811855	-0.103880	-0.791302	0.003997	0.155723	0.181091	-0.885010	0.353516	0.425537	0.238401	-0.695652	-0.220958	-0.640633	-143.439354	-85.321894	1.381009	0.081534	0.001966	0.996669	0.612875	-0.788685	-0.048582	0.785962	0.614794	-0.065509	0	0	0
57945	0	0	0	0	0	9.863411	-0.091258	-0.782323	0.012548	0.164894	0.198015	-0.892822	0.339600	0.435303	0.239247	-0.695339	-0.220103	-0.640952	-141.638450	-85.326729	-0.420735	0.081471	-0.000598	0.996676	0.612784	-0.788631	-0.050564	0.786040	0.614866	-0.063884	0	0	0
57946	0	0	0	0	0	9.850683	-0.080346	-0.723400	0.013299	0.169940	0.217302	-0.892334	0.354004	0.427734	0.240167	-0.695027	-0.219181	-0.641262	-139.708079	-85.322091	-2.351168	0.081486	-0.003346	0.996669	0.612694	-0.788559	-0.052740	0.786108	0.614951	-0.062206	0	0	0
57947	0	0	0	0	0	9.837872	-0.071298	-0.664339	0.012557	0.168721	0.237318	-0.894043	0.354980	0.427246	0.241135	-0.694744	-0.218180	-0.641546	-137.689884	-85.303953	-4.371960	0.081632	-0.006241	0.996643	0.612557	-0.788503	-0.055110	0.786200	0.615000	-0.060544	0	0	0
57948	0	0	0	0	0	9.845017	-0.027337	-0.640280	0.021493	0.170581	0.256749	-0.887451	0.356689	0.430176	0.242210	-0.694460	-0.217146	-0.641800	-135.575826	-85.272982	-6.482090	0.081882	-0.009303	0.996599	0.612499	-0.788364	-0.057683	0.786219	0.615139	-0.058854	0	0	0
57949	0	0	0	0	0	9.816158	0.100937	-0.580269	0.015260	0.165755	0.285161	-0.888184	0.358154	0.421143	0.243341	-0.694232	-0.215991	-0.642009	-133.388020	-85.221890	-8.671216	0.082345	-0.012558	0.996525	0.612350	-0.788266	-0.060534	0.786287	0.615206	-0.057220	0	0	0
57950	0	0	0	0	0	9.854389	0.206235	-0.554577	0.009428	0.160470	0.316931	-0.891602	0.363281	0.425293	0.244555	-0.694056	-0.214720	-0.642164	-131.135786	-85.148376	-10.927267	0.083042	-0.016032	0.996417	0.612144	-0.788176	-0.063698	0.786374	0.615241	-0.055638	0	0	0
57951	0	0	0	0	0	9.866468	0.252451	-0.637479	-0.010221	0.154306	0.355489	-0.876709	0.363525	0.415527	0.245810	-0.693966	-0.213254	-0.642270	-128.838586	-85.048197	-13.241081	0.084023	-0.019771	0.996268	0.611735	-0.788200	-0.067234	0.786588	0.615101	-0.054132	0	0	0
57952	0	0	0	0	0	9.838310	0.293903	-0.677336	0.018237	0.150803	0.402142	-0.883545	0.371826	0.421387	0.247316	-0.693896	-0.211726	-0.642273	-126.456932	-84.917635	-15.622665	0.085315	-0.023857	0.996068	0.611521	-0.788014	-0.071251	0.786615	0.615195	-0.052640	0	0	0
57953	0	0	0	0	0	9.830205	0.505490	-0.574868	0.048136	0.148104	0.446724	-0.887451	0.372803	0.413818	0.249060	-0.693845	-0.210138	-0.642177	-124.040519	-84.756615	-18.023230	0.086902	-0.028275	0.995815	0.611487	-0.787622	-0.075727	0.786468	0.615509	-0.051156	0	0	0
57954	0	0	0	0	0	9.836417	0.818510	-0.337627	0.063222	0.144624	0.503055	-0.882568	0.377686	0.421631	0.251037	-0.693838	-0.208409	-0.641978	-121.600391	-84.558467	-20.438880	0.088860	-0.033115	0.995493	0.611525	-0.787092	-0.080769	0.786220	0.615946	-0.049690	0	0	0
57955	0	0	0	0	0	9.913810	1.061885	-0.229170	0.042694	0.130549	0.560718	-0.876709	0.378174	0.413086	0.253104	-0.693959	-0.206426	-0.641676	-119.255919	-84.318573	-22.772125	0.091281	-0.038319	0.995088	0.611324	-0.786653	-0.086370	0.786098	0.616205	-0.048381	0	0	0
57956	0	0	0	0	0	9.985369	0.862702	-0.442363	0.030474	0.126133	0.604326	-0.876953	0.385254	0.411865	0.255268	-0.694146	-0.204261	-0.641309	-117.021328	-84.046558	-25.001991	0.094001	-0.043837	0.994607	0.610986	-0.786231	-0.092398	0.786040	0.616376	-0.047122	0	0	0
57957	0	0	0	0	0	10.143720	0.434159	-0.471598	0.014302	0.113277	0.656214	-0.882813	0.385254	0.410645	0.257520	-0.694443	-0.201874	-0.640843	-114.941900	-83.736423	-27.087375	0.097135	-0.049680	0.994031	0.610440	-0.785861	-0.098927	0.786084	0.616405	-0.046008	0	0	0
57958	0	0	0	0	0	10.210259	-0.057041	-0.527501	0.019698	0.116262	0.708221	-0.873291	0.387695	0.410645	0.259965	-0.694765	-0.199322	-0.640305	-112.941703	-83.391896	-29.090155	0.100561	-0.055949	0.993356	0.609877	-0.785378	-0.105975	0.786090	0.616482	-0.044857	0	0	0
57959	0	0	0	0	0	10.238092	-0.469355	-0.671255	0.078463	0.127563	0.741294	-0.874756	0.398682	0.409668	0.262714	-0.695001	-0.196819	-0.639701	-111.005827	-83.025209	-30.997427	0.104091	-0.062538	0.992600	0.609695	-0.784488	-0.113363	0.785772	0.616983	-0.043529	0	0	0
57960	0	0	0	0	0	10.379951	-0.666541	-0.734929	0.138377	0.127829	0.771533	-0.876709	0.401367	0.410645	0.265777	-0.695175	-0.194406	-0.638985	-109.182508	-82.634612	-32.756466	0.107810	-0.069363	0.991749	0.609947	-0.783138	-0.121079	0.785075	0.617967	-0.042123	0	0	0
57961	0	0	0	0	0	10.547797	-0.795905	-0.704058	0.186790	0.131953	0.798553	-0.872070	0.413330	0.400391	0.269080	-0.695288	-0.192037	-0.638194	-107.465334	-82.224030	-34.383931	0.111659	-0.076409	0.990805	0.610494	-0.781435	-0.129063	0.784111	0.619291	-0.040607	0	0	0
57962	0	0	0	0	0	10.613238	-0.931831	-0.672789	0.239494	0.116130	0.825467	-0.867188	0.421875	0.416016	0.272647	-0.695391	-0.189769	-0.637246	-105.916217	-81.789575	-35.810940	0.115811	-0.083559	0.989750	0.611414	-0.779303	-0.137334	0.782791	0.621052	-0.039163	0	0	0
57963	0	0	0	0	0	10.937390	-0.791110	-0.561154	0.305703	0.115091	0.850497	-0.871094	0.423340	0.405029	0.276504	-0.695421	-0.187615	-0.636188	-104.462683	-81.336556	-37.106329	0.120130	-0.090875	0.988590	0.612760	-0.776692	-0.145857	0.781085	0.623291	-0.037620	0	0	0
57964	0	0	0	0	0	11.555463	-0.509543	-0.374234	0.345989	0.106920	0.903987	-0.864502	0.427246	0.403564	0.280671	-0.695453	-0.185417	-0.634972	-103.106148	-80.847657	-38.280031	0.124861	-0.098539	0.987269	0.614335	-0.773688	-0.154917	0.779104	0.625857	-0.036068	0	0	0
57965	0	0	0	0	0	11.769681	-0.019106	-0.425818	0.363587	0.116083	0.962417	-0.858154	0.438965	0.398438	0.285068	-0.695470	-0.183047	-0.633681	-101.799431	-80.323985	-39.396985	0.129884	-0.106677	0.985774	0.615891	-0.770460	-0.164525	0.777051	0.628499	-0.034369	0	0	0
57966	0	0	0	0	0	11.661971	0.290075	-0.199918	0.391626	0.112993	1.015784	-0.861328	0.453613	0.396484	0.289738	-0.695483	-0.180587	-0.632252	-100.577810	-79.765199	-40.410731	0.135290	-0.115185	0.984088	0.617566	-0.766880	-0.174663	0.774796	0.631369	-0.032617	0	0	0
57967	0	0	0	0	0	11.479645	0.449606	-0.124657	0.399418	0.083520	1.074581	-0.845459	0.460449	0.393311	0.294575	-0.695611	-0.177979	-0.630614	-99.526115	-79.167510	-41.250376	0.141299	-0.123917	0.982181	0.619135	-0.763098	-0.185347	0.772468	0.634292	-0.031103	0	0	0
57968	0	0	0	0	0	11.336941	0.236000	-0.811474	0.407933	0.017388	1.131759	-0.845459	0.466797	0.392578	0.299564	-0.695960	-0.175296	-0.628627	-98.728040	-78.528498	-41.826858	0.148198	-0.132630	0.980024	0.620625	-0.759066	-0.196577	0.769975	0.637360	-0.030179	0	0	0
57969	0	0	0	0	0	12.063200	0.013314	-0.092019	0.551317	0.004799	1.188656	-0.837891	0.479248	0.396240	0.305198	-0.696158	-0.172872	-0.626365	-97.934808	-77.855145	-42.317084	0.155564	-0.141637	0.977619	0.623023	-0.753939	-0.208370	0.766578	0.641494	-0.029043	0	0	0
57970	0	0	0	0	0	12.346467	-0.173598	-0.299053	0.596966	-0.003219	1.266559	-0.822510	0.495117	0.389893	0.311223	-0.696346	-0.170329	-0.623884	-97.177441	-77.135204	-42.743784	0.163514	-0.151118	0.974898	0.625550	-0.748256	-0.220906	0.762857	0.645969	-0.027819	0	0	0
57971	0	0	0	0	0	12.485584	0.411348	-0.273445	0.667679	0.001730	1.346496	-0.828613	0.503174	0.385498	0.317722	-0.696441	-0.167707	-0.621206	-96.410083	-76.369339	-43.141729	0.171954	-0.161147	0.971835	0.628338	-0.741854	-0.234189	0.758699	0.650910	-0.026310	0	0	0
57972	0	0	0	0	0	11.961844	0.703958	-0.478835	0.633688	-0.002049	1.394681	-0.816895	0.518799	0.380615	0.324241	-0.696600	-0.164812	-0.618428	-95.719871	-75.574312	-43.480207	0.180767	-0.171423	0.968472	0.630656	-0.735409	-0.247884	0.754716	0.655582	-0.024829	0	0	0
57973	0	0	0	0	0	11.859859	0.390055	-0.586401	0.592006	-0.017575	1.430430	-0.815918	0.530029	0.383057	0.330684	-0.696864	-0.161675	-0.615540	-95.132012	-74.757676	-43.740067	0.189942	-0.181767	0.964823	0.632429	-0.729019	-0.261848	0.750970	0.659918	-0.023517	0	0	0
57974	0	0	0	0	0	12.106935	-0.099670	-0.868010	0.592093	-0.014950	1.455531	-0.807617	0.535645	0.373047	0.337195	-0.697097	-0.158441	-0.612578	-94.577039	-73.925730	-43.965408	0.199289	-0.192219	0.960904	0.634015	-0.722391	-0.276000	0.747201	0.664231	-0.022095	0	0	0
57975	0	0	0	0	0	11.929251	-0.332110	-0.881889	0.604736	-0.010310	1.450128	-0.794434	0.554688	0.372070	0.343706	-0.697248	-0.155241	-0.609599	-94.045186	-73.097072	-44.161639	0.208578	-0.202562	0.956799	0.635529	-0.715533	-0.290027	0.743369	0.668567	-0.020511	0	0	0
57976	0	0	0	0	0	11.446136	-0.516059	-1.196330	0.561070	-0.023705	1.426630	-0.782471	0.563721	0.362305	0.349973	-0.697454	-0.152010	-0.606605	-93.597596	-72.280353	-44.295055	0.217846	-0.212551	0.952557	0.636631	-0.708823	-0.303760	0.739759	0.672601	-0.019098	0	0	0
57977	0	0	0	0	0	11.031078	-0.775482	-1.232278	0.523481	-0.047645	1.389704	-0.777588	0.585205	0.361084	0.355948	-0.697732	-0.148822	-0.603592	-93.241179	-71.484251	-44.357312	0.227057	-0.222020	0.948236	0.637370	-0.702306	-0.317057	0.736345	0.676368	-0.017955	0	0	0
57978	0	0	0	0	0	10.531380	-1.025592	-1.258281	0.461668	-0.079239	1.336112	-0.766846	0.587402	0.363770	0.361515	-0.698137	-0.145687	-0.600573	-92.992342	-70.717163	-44.342069	0.236175	-0.230812	0.943900	0.637651	-0.696165	-0.329781	0.733227	0.679765	-0.017239	0	0	0
57979	0	0	0	0	0	9.797308	-1.315285	-1.258718	0.327420	-0.142022	1.280703	-0.769043	0.585693	0.357422	0.366372	-0.698901	-0.142445	-0.597510	-92.931271	-69.980560	-44.210596	0.245382	-0.238712	0.939577	0.636932	-0.690962	-0.341891	0.730825	0.682340	-0.017507	0	0	0
57980	0	0	0	0	0	9.302105	-1.229436	-1.273320	0.161114	-0.228260	1.201203	-0.761230	0.595459	0.360352	0.370346	-0.700141	-0.139141	-0.594379	-93.097839	-69.286179	-43.935803	0.254706	-0.245416	0.935359	0.635088	-0.686968	-0.353184	0.729238	0.683993	-0.019114	0	0	0
57981	0	0	0	0	0	8.704176	-1.124474	-1.719645	-0.135519	-0.325776	1.100628	-0.750732	0.604248	0.371094	0.372886	-0.702127	-0.135474	-0.591287	-93.569704	-68.646241	-43.516888	0.264053	-0.250725	0.931350	0.631206	-0.685205	-0.363419	0.729284	0.683835	-0.022671	0	0	0
57982	0	0	0	0	0	8.220275	-1.693939	-2.268712	-0.342137	-0.428036	0.930887	-0.744629	0.610352	0.377686	0.374133	-0.704661	-0.131987	-0.588265	-94.294913	-68.097079	-42.948995	0.273047	-0.254166	0.927817	0.626192	-0.685207	-0.371988	0.730294	0.682562	-0.027937	0	0	0
57983	0	0	0	0	0	8.178703	-2.246020	-1.862130	-0.292905	-0.483835	0.703627	-0.736084	0.610107	0.379395	0.374823	-0.707103	-0.129537	-0.585434	-95.066658	-67.673122	-42.300926	0.280974	-0.255675	0.925032	0.622061	-0.685456	-0.378406	0.730817	0.681748	-0.033550	0	0	0
57984	0	0	0	0	0	8.244192	-1.749475	-0.780233	-0.154655	-0.457345	0.502573	-0.727783	0.619629	0.385498	0.375440	-0.709064	-0.128161	-0.582965	-95.724409	-67.361535	-41.686339	0.287453	-0.255989	0.922952	0.619486	-0.685239	-0.382996	0.730485	0.681849	-0.038393	0	0	0
57985	0	0	0	0	0	8.021758	-0.139434	-0.522838	-0.323899	-0.467923	0.319212	-0.723389	0.612061	0.388428	0.374896	-0.711250	-0.126950	-0.580913	-96.504364	-67.151579	-41.045609	0.292847	-0.254977	0.921535	0.616151	-0.686673	-0.385795	0.731163	0.680784	-0.043986	0	0	0
57986	0	0	0	0	0	7.520969	1.541679	-0.953786	-0.664431	-0.468912	0.108488	-0.718750	0.623535	0.388916	0.372539	-0.713931	-0.125509	-0.579452	-97.502646	-67.056825	-40.376572	0.296965	-0.252527	0.920892	0.610947	-0.690924	-0.386481	0.733864	0.677387	-0.050899	0	0	0
57987	0	0	0	0	0	6.767692	2.047629	-0.561683	-0.938533	-0.500922	-0.123054	-0.723389	0.605713	0.403320	0.368488	-0.717056	-0.124149	-0.578476	-98.740592	-67.086548	-39.619913	0.299906	-0.248279	0.921094	0.604367	-0.697607	-0.384819	0.738104	0.672088	-0.059165	0	0	0
57988	0	0	0	0	0	6.759738	1.248771	-0.887033	-1.247202	-0.566801	-0.370799	-0.715332	0.611328	0.418457	0.362574	-0.720755	-0.122909	-0.577880	-100.303342	-67.242002	-38.701002	0.301897	-0.241874	0.922147	0.596224	-0.706866	-0.380602	0.743892	0.664708	-0.069190	0	0	0
57989	0	0	0	0	0	7.158741	-0.031783	-1.889859	-1.379329	-0.555922	-0.633173	-0.727051	0.599121	0.421631	0.355394	-0.724463	-0.122196	-0.577855	-102.017713	-67.536765	-37.703949	0.302303	-0.233680	0.924125	0.587786	-0.717526	-0.373716	0.750414	0.656163	-0.079557	0	0	0
57990	0	0	0	0	0	7.425808	-0.952503	-1.434251	-1.198138	-0.496118	-0.890337	-0.724609	0.577881	0.439941	0.348159	-0.727469	-0.122834	-0.578347	-103.663064	-67.970556	-36.669349	0.300852	-0.223998	0.926991	0.581430	-0.727394	-0.364469	0.755928	0.648631	-0.088599	0	0	0
57991	0	0	0	0	0	7.461007	-1.235285	-0.883758	-1.005240	-0.420984	-1.143107	-0.733154	0.575928	0.445557	0.340901	-0.729725	-0.124801	-0.579407	-105.240010	-68.545055	-35.595680	0.297423	-0.212900	0.930705	0.577182	-0.736423	-0.352907	0.760527	0.642149	-0.096147	0	0	0
57992	0	0	0	0	0	7.480402	-1.088053	-0.560133	-0.804180	-0.335981	-1.398574	-0.744385	0.558350	0.439941	0.333685	-0.731182	-0.128139	-0.581041	-106.757158	-69.261834	-34.464791	0.291945	-0.200384	0.935208	0.575155	-0.744469	-0.339061	0.764176	0.636876	-0.102092	0	0	0
57993	0	0	0	0	0	7.648467	-0.793688	-0.074612	-0.629130	-0.252173	-1.639466	-0.742188	0.549072	0.453857	0.326422	-0.731897	-0.132709	-0.583235	-108.259157	-70.114623	-33.251244	0.284450	-0.186502	0.940375	0.575020	-0.751674	-0.323013	0.767098	0.632616	-0.106571	0	0	0
57994	0	0	0	0	0	7.929061	-0.421982	0.280392	-0.549508	-0.159289	-1.859265	-0.751221	0.526855	0.456543	0.318859	-0.732000	-0.138160	-0.586017	-109.810302	-71.091406	-31.941951	0.274992	-0.171447	0.946037	0.575981	-0.758481	-0.304881	0.769822	0.628739	-0.109826	0	0	0
57995	0	0	0	0	0	8.153290	-0.292453	0.503814	-0.543188	-0.060873	-2.054673	-0.770020	0.522705	0.467285	0.310764	-0.731597	-0.144166	-0.589413	-111.476518	-72.181182	-30.518008	0.263617	-0.155394	0.952029	0.577280	-0.765283	-0.284761	0.772822	0.624655	-0.112036	0	0	0
57996	0	0	0	0	0	8.271951	-0.348406	0.777236	-0.587389	0.024164	-2.235488	-0.781250	0.500000	0.455322	0.302016	-0.730788	-0.150561	-0.593352	-113.352017	-73.370039	-28.908231	0.250529	-0.138346	0.958173	0.578460	-0.772236	-0.262747	0.776286	0.620090	-0.113440	0	0	0
57997	0	0	0	0	0	8.382104	-0.446944	0.778988	-0.656550	0.090643	-2.396894	-0.789063	0.483398	0.462891	0.292525	-0.729662	-0.157213	-0.597752	-115.553772	-74.642113	-27.012645	0.235954	-0.120290	0.964290	0.579139	-0.779426	-0.238940	0.780335	0.614838	-0.114244	0	0	0
57998	0	0	0	0	0	8.611392	-0.453037	0.644961	-0.738968	0.160969	-2.550556	-0.798096	0.455811	0.461670	0.282298	-0.728202	-0.164056	-0.602591	-118.189104	-75.986934	-24.727518	0.219940	-0.101289	0.970241	0.579152	-0.786787	-0.213423	0.784990	0.608857	-0.114384	0	0	0
57999	0	0	0	0	0	9.010930	-0.298332	0.535913	-0.799442	0.220051	-2.674931	-0.812012	0.436035	0.470947	0.271457	-0.726413	-0.171051	-0.607764	-121.411519	-77.380123	-21.890117	0.202729	-0.081456	0.975841	0.578470	-0.794106	-0.186462	0.790109	0.602297	-0.113869	0	0	0
58000	0	0	0	0	0	9.426180	-0.260317	0.602589	-0.863647	0.290084	-2.773222	-0.821045	0.416016	0.470703	0.260103	-0.724264	-0.178082	-0.613249	-125.402641	-78.797917	-18.318541	0.184425	-0.061059	0.980948	0.576973	-0.801266	-0.158350	0.795669	0.595184	-0.112544	0	0	0
58001	0	0	0	0	0	9.846755	-0.243959	0.522673	-0.951401	0.352976	-2.838216	-0.840332	0.382813	0.470703	0.248216	-0.721821	-0.184955	-0.618995	-130.495260	-80.205726	-13.697092	0.165273	-0.040280	0.985425	0.574297	-0.808361	-0.129363	0.801790	0.587307	-0.110468	0	0	0
58002	0	0	0	0	0	10.150818	-0.319287	0.331122	-1.032264	0.414742	-2.881999	-0.854004	0.361328	0.466064	0.235916	-0.719077	-0.191619	-0.624943	-137.153700	-81.562565	-7.554388	0.145456	-0.019290	0.989177	0.570446	-0.815252	-0.099781	0.808353	0.578786	-0.107579	0	0	0
58003	0	0	0	0	0	10.337817	-0.538381	0.089946	-1.073376	0.464968	-2.896442	-0.859863	0.338135	0.465332	0.223400	-0.716037	-0.198100	-0.630983	-146.058788	-82.804987	0.809929	0.125234	0.001770	0.992126	0.565617	-0.821698	-0.069931	0.815104	0.569921	-0.103906	0	0	0
58004	0	0	0	0	0	10.383873	-0.843482	-0.276918	-1.073403	0.494867	-2.902877	-0.877441	0.313232	0.474854	0.210853	-0.712722	-0.204523	-0.636977	-158.117240	-83.838146	12.329241	0.104862	0.022920	0.994223	0.560153	-0.827423	-0.040006	0.821725	0.561112	-0.099604	0	0	0
58005	0	0	0	0	0	10.404667	-1.129861	-0.669823	-0.992415	0.535974	-2.899919	-0.879395	0.279053	0.472168	0.198585	-0.709018	-0.211103	-0.642879	-173.858160	-84.543677	27.576625	0.084284	0.044019	0.995469	0.554683	-0.832000	-0.010173	0.827782	0.553027	-0.094541	0	0	0
58006	0	0	0	0	0	10.408273	-1.129829	-0.946209	-0.861809	0.561995	-2.893586	-0.893066	0.259521	0.461914	0.186789	-0.704939	-0.218001	-0.648573	167.675345	-84.777456	45.625037	0.063658	0.065062	0.995849	0.549648	-0.835170	0.019429	0.832967	0.546129	-0.088927	0	0	0
58007	0	0	0	0	0	10.625571	-0.909847	-1.082835	-0.706902	0.598152	-2.886359	-0.898438	0.225098	0.451172	0.175551	-0.700440	-0.225295	-0.654070	149.475357	-84.487511	63.495245	0.042870	0.085966	0.995375	0.545257	-0.836848	0.048791	0.837172	0.540644	-0.082749	0	0	0
58008	0	0	0	0	0	10.825983	-0.490870	-1.007865	-0.548749	0.629931	-2.871066	-0.908691	0.206055	0.452881	0.164921	-0.695559	-0.232971	-0.659335	134.392726	-83.750375	78.339141	0.022003	0.106614	0.994057	0.541567	-0.837051	0.077787	0.840370	0.536637	-0.076156	0	0	0
58009	0	0	0	0	0	11.073175	-0.032234	-1.078607	-0.399454	0.630224	-2.828503	-0.917480	0.180420	0.452148	0.154910	-0.690448	-0.240946	-0.664252	123.223412	-82.707794	89.354310	0.001430	0.126922	0.991912	0.538519	-0.835896	0.106182	0.842612	0.534012	-0.069545	0	0	0
58010	0	0	0	0	0	11.256975	0.189543	-1.267003	-0.215783	0.656027	-2.762424	-0.921387	0.150879	0.443115	0.145756	-0.685047	-0.249226	-0.668843	115.164584	-81.506043	97.363432	-0.018930	0.146487	0.989031	0.536440	-0.833283	0.133686	0.843726	0.533086	-0.062807	0	0	0
58011	0	0	0	0	0	10.968989	0.192396	-0.979776	-0.049501	0.672756	-2.687762	-0.929443	0.140381	0.442139	0.137409	-0.679425	-0.257751	-0.673101	109.294830	-80.223523	103.278187	-0.039001	0.165265	0.985478	0.535226	-0.829366	0.160267	0.843808	0.533704	-0.056109	0	0	0
58012	0	0	0	0	0	10.563058	0.128566	-0.838740	0.002837	0.614713	-2.597862	-0.932617	0.109863	0.433594	0.129446	-0.673955	-0.266134	-0.676905	105.085414	-78.904504	107.558426	-0.058056	0.183479	0.981308	0.533971	-0.824833	0.185813	0.843508	0.534777	-0.050085	0	0	0
58013	0	0	0	0	0	10.283223	0.168099	-0.750544	0.084336	0.540885	-2.501512	-0.942139	0.094238	0.432129	0.121962	-0.668691	-0.274478	-0.680176	102.071869	-77.582605	110.684860	-0.075955	0.201170	0.976607	0.532993	-0.819574	0.210277	0.842704	0.536496	-0.044971	0	0	0
58014	0	0	0	0	0	10.039684	0.565174	-0.581926	0.117142	0.478545	-2.403125	-0.944824	0.074219	0.426514	0.114819	-0.663653	-0.282591	-0.683025	99.854903	-76.282632	113.028201	-0.092763	0.218236	0.971477	0.531934	-0.813918	0.233634	0.841690	0.538434	-0.040586	0	0	0
58015	0	0	0	0	0	9.863962	1.106441	-0.182737	0.071351	0.412078	-2.293373	-0.945557	0.042725	0.418945	0.107788	-0.658924	-0.290190	-0.685559	98.181300	-75.020862	114.797146	-0.108403	0.234636	0.966020	0.530217	-0.808342	0.255837	0.840903	0.539934	-0.036781	0	0	0
58016	0	0	0	0	0	10.030614	1.309520	-0.103420	-0.025366	0.358833	-2.171869	-0.950439	0.037354	0.421631	0.100765	-0.654525	-0.297041	-0.687903	96.855165	-73.813971	116.157404	-0.122887	0.250208	0.960362	0.527474	-0.803227	0.276764	0.840637	0.540576	-0.033272	0	0	0
58017	0	0	0	0	0	10.030110	1.287425	0.125213	-0.061043	0.356615	-2.027263	-0.949463	0.022949	0.413574	0.094106	-0.650288	-0.303270	-0.690143	95.724705	-72.680958	117.300661	-0.136539	0.264533	0.954662	0.524319	-0.798342	0.296207	0.840504	0.540992	-0.029694	0	0	0
58018	0	0	0	0	0	9.983251	1.212976	0.287882	-0.098059	0.326747	-1.876736	-0.947021	0.001465	0.408936	0.087793	-0.646340	-0.308859	-0.692202	94.786110	-71.627334	118.226306	-0.149074	0.277715	0.949026	0.520797	-0.793797	0.314097	0.840564	0.541073	-0.026299	0	0	0
58019	0	0	0	0	0	9.850405	1.293782	0.117133	0.028914	0.317740	-1.768212	-0.955078	-0.018555	0.409424	0.082246	-0.642474	-0.314524	-0.693929	94.045055	-70.630528	119.026640	-0.160926	0.290000	0.943400	0.518293	-0.788621	0.330832	0.839926	0.542197	-0.023395	0	0	0
58020	0	0	0	0	0	9.674479	1.444152	0.715402	0.103786	0.300718	-1.682073	-0.944580	-0.032227	0.404297	0.077204	-0.638728	-0.320145	-0.695395	93.455629	-69.680153	119.715130	-0.172133	0.301596	0.937769	0.516345	-0.783094	0.346629	0.838903	0.543878	-0.020931	0	0	0
58021	0	0	0	0	0	9.719868	1.818277	0.718316	0.013846	0.289723	-1.585515	-0.948242	-0.041260	0.401855	0.072188	-0.635160	-0.325135	-0.696885	92.895208	-68.781644	120.322376	-0.182722	0.312412	0.932208	0.513638	-0.778153	0.361461	0.838325	0.544864	-0.018281	0	0	0
58022	0	0	0	0	0	9.633012	2.113532	0.759875	-0.061087	0.286612	-1.503329	-0.952393	-0.056396	0.405029	0.067210	-0.631729	-0.329575	-0.698413	92.349371	-67.928795	120.870589	-0.192802	0.322524	0.926718	0.510285	-0.773726	0.375443	0.838115	0.545276	-0.015403	0	0	0
58023	0	0	0	0	0	9.279448	1.950597	0.396381	-0.121705	0.261498	-1.401249	-0.940674	-0.070068	0.400635	0.062354	-0.628534	-0.333481	-0.699891	91.847658	-67.131369	121.337569	-0.202113	0.331927	0.921398	0.506490	-0.769805	0.388418	0.838223	0.545183	-0.012530	0	0	0
58024	0	0	0	0	0	9.103667	1.709147	-0.088333	-0.021397	0.245746	-1.311743	-0.952393	-0.072510	0.396973	0.058095	-0.625489	-0.337436	-0.701089	91.458817	-66.384276	121.746027	-0.210778	0.340666	0.916253	0.503584	-0.765523	0.400471	0.837840	0.545821	-0.010199	0	0	0
58025	0	0	0	0	0	9.091275	1.792529	0.371197	0.095439	0.207419	-1.209573	-0.952881	-0.081299	0.390869	0.054495	-0.622684	-0.341488	-0.701913	91.210774	-65.693663	122.076848	-0.218591	0.348777	0.911358	0.501779	-0.760833	0.411523	0.836921	0.547255	-0.008698	0	0	0
58026	0	0	0	0	0	9.132485	2.008255	0.259880	0.172693	0.182273	-1.100477	-0.952637	-0.098633	0.387695	0.051471	-0.620117	-0.345457	-0.702471	91.056098	-65.065445	122.354441	-0.225612	0.356134	0.906790	0.500761	-0.756020	0.421511	0.835666	0.549183	-0.007770	0	0	0
58027	0	0	0	0	0	9.237123	2.088827	0.330571	0.200750	0.161779	-0.976855	-0.949707	-0.097900	0.392090	0.048936	-0.617803	-0.349147	-0.702867	90.954197	-64.507001	122.594055	-0.231850	0.362616	0.902638	0.500199	-0.751404	0.430341	0.834294	0.551273	-0.007168	0	0	0
58028	0	0	0	0	0	9.149395	1.679738	0.161319	0.323928	0.155491	-0.838385	-0.948242	-0.101807	0.394043	0.047252	-0.615716	-0.352825	-0.702976	90.939806	-64.028304	122.814655	-0.237323	0.368046	0.899010	0.500914	-0.746563	0.437868	0.832324	0.554243	-0.007183	0	0	0
58029	0	0	0	0	0	9.078236	2.067778	0.567757	0.411975	0.130580	-0.686253	-0.949707	-0.114990	0.387695	0.046333	-0.613945	-0.356353	-0.702806	91.010661	-63.636022	122.998494	-0.241849	0.372436	0.895991	0.502689	-0.741731	0.444003	0.829947	0.557787	-0.007833	0	0	0
58030	0	0	0	0	0	8.864662	2.758033	0.905706	0.337061	0.113827	-0.513671	-0.943848	-0.104736	0.386719	0.045756	-0.612557	-0.359078	-0.702668	91.063598	-63.343061	123.153739	-0.245360	0.375610	0.893709	0.504214	-0.737938	0.448570	0.827989	0.560682	-0.008328	0	0	0
58031	0	0	0	0	0	9.005611	3.084960	1.183599	0.076162	0.058263	-0.306772	-0.945068	-0.114258	0.389160	0.045011	-0.611785	-0.360273	-0.702778	91.035193	-63.167556	123.234201	-0.247386	0.377553	0.892330	0.504085	-0.736355	0.451309	0.827465	0.561458	-0.008155	0	0	0
58032	0	0	0	0	0	9.105082	2.942947	0.867658	-0.190716	0.036421	-0.077797	-0.942139	-0.114990	0.385986	0.044210	-0.611568	-0.359824	-0.703247	90.884423	-63.123462	123.279299	-0.248060	0.377933	0.891983	0.502295	-0.737144	0.452016	0.828351	0.560166	-0.006978	0	0	0
58033	0	0	0	0	0	8.995969	2.437323	0.395727	-0.456565	0.017470	0.174777	-0.949707	-0.121826	0.387695	0.043455	-0.611922	-0.357680	-0.704080	90.606150	-63.223373	123.297659	-0.247327	0.376553	0.892770	0.498935	-0.740354	0.450488	0.830598	0.556852	-0.004766	0	0	0
58034	0	0	0	0	0	8.930058	1.942968	0.236955	-0.594965	-0.004802	0.452160	-0.946777	-0.112549	0.381348	0.043208	-0.612881	-0.354192	-0.705023	90.275922	-63.482547	123.284317	-0.245020	0.373230	0.894798	0.495080	-0.745362	0.446465	0.833583	0.552390	-0.002150	0	0	0
58035	0	0	0	0	0	8.744240	0.849263	-0.211461	-0.639967	-0.026927	0.743117	-0.943115	-0.110840	0.379150	0.043813	-0.614425	-0.349660	-0.705904	89.942654	-63.907998	123.246701	-0.241126	0.367824	0.898089	0.491536	-0.751636	0.439814	0.836810	0.547493	0.000440	0	0	0
58036	0	0	0	0	0	8.603866	-0.683991	-0.560611	-0.498928	-0.095651	1.030877	-0.947754	-0.102539	0.388184	0.045741	-0.616672	-0.344740	-0.706242	89.768387	-64.498931	123.121347	-0.235247	0.360574	0.902577	0.489791	-0.758125	0.430524	0.839502	0.543354	0.001740	0	0	0
58037	0	0	0	0	0	8.747822	-1.855630	-0.721080	-0.242426	-0.169429	1.324727	-0.949463	-0.094238	0.385742	0.049374	-0.619598	-0.339829	-0.705817	89.831546	-65.258065	122.897765	-0.227322	0.351417	0.908202	0.490812	-0.764157	0.418530	0.841088	0.540897	0.001231	0	0	0
58038	0	0	0	0	0	8.865925	-2.390621	-1.127873	0.025374	-0.238722	1.619831	-0.957031	-0.084473	0.387939	0.054752	-0.623174	-0.334940	-0.704608	90.150490	-66.186330	122.562452	-0.217313	0.340294	0.914863	0.494608	-0.769635	0.403762	0.841509	0.540242	-0.001061	0	0	0
58039	0	0	0	0	0	8.888412	-1.965790	-1.000879	0.104620	-0.294435	1.923293	-0.950684	-0.062256	0.385986	0.061353	-0.627378	-0.329378	-0.702953	90.621024	-67.287023	122.115000	-0.205267	0.327033	0.922451	0.499545	-0.775492	0.386092	0.841618	0.540057	-0.004185	0	0	0
58040	0	0	0	0	0	9.374325	-0.711994	-2.777447	-0.198845	-0.398071	2.314532	-0.955078	-0.049072	0.391602	0.068194	-0.632614	-0.321510	-0.701270	91.121687	-68.609677	121.450575	-0.190297	0.311139	0.931117	0.502429	-0.783961	0.364650	0.843417	0.537213	-0.007140	0	0	0
58041	0	0	0	0	0	9.910969	7.438799	-6.863841	-0.536896	-0.582121	2.397905	-0.952637	-0.029541	0.399902	0.073958	-0.638647	-0.312213	-0.699416	91.789794	-69.974668	120.406955	-0.173320	0.295334	0.939541	0.502243	-0.794106	0.342269	0.847179	0.531200	-0.010695	0	0	0
58042	0	0	0	0	0	11.685499	16.818236	4.364598	-0.381053	-0.409477	1.994393	-0.958008	-0.008545	0.401611	0.079063	-0.643308	-0.304639	-0.697925	92.354304	-71.108269	119.575390	-0.159808	0.281594	0.946132	0.502313	-0.801888	0.323508	0.849790	0.526954	-0.013301	0	0	0
58043	0	0	0	0	0	12.902639	1.915604	-4.698653	-2.537819	-1.038860	1.837533	-0.948486	-0.009766	0.413574	0.075713	-0.650652	-0.290241	-0.697624	92.835124	-72.132977	117.535988	-0.141839	0.272054	0.951771	0.483330	-0.820056	0.306433	0.863872	0.503484	-0.015175	0	0	0
58044	0	0	0	0	0	18.782436	-2.047308	-3.539200	-0.105200	-0.853178	1.780167	-0.943848	0.004395	0.419922	0.080328	-0.656228	-0.284384	-0.694290	94.546685	-73.119544	115.678211	-0.125825	0.261699	0.956913	0.484784	-0.825346	0.289462	0.865536	0.500317	-0.023018	0	0	0
58045	0	0	0	0	0	16.692101	-0.425136	1.704573	1.104448	-0.840188	1.763928	-0.942139	0.022949	0.424316	0.088868	-0.661174	-0.282746	-0.689207	97.159087	-74.075771	113.613909	-0.109903	0.251392	0.961625	0.496386	-0.824314	0.272227	0.861117	0.507256	-0.034193	0	0	0
58046	0	0	0	0	0	13.909005	8.454431	10.122673	0.531089	-1.016651	1.815733	-0.937500	0.033447	0.428467	0.095429	-0.666979	-0.279002	-0.684245	100.115250	-75.017054	110.861399	-0.092065	0.241583	0.966003	0.502770	-0.826102	0.254513	0.859503	0.509109	-0.045406	0	0	0
58047	0	0	0	0	0	14.223425	6.500489	7.144645	-0.572256	-0.945965	2.034764	-0.930420	0.055664	0.438721	0.099147	-0.673288	-0.270687	-0.680869	102.745116	-76.052415	107.805987	-0.073707	0.229488	0.970517	0.499513	-0.833797	0.235095	0.863165	0.502114	-0.053176	0	0	0
58048	0	0	0	0	0	14.154488	3.911565	6.196162	-0.649052	-0.724118	2.047253	-0.929688	0.061035	0.448975	0.102936	-0.678811	-0.261920	-0.678246	105.252008	-77.090387	104.845142	-0.057240	0.215957	0.974724	0.495220	-0.841604	0.215545	0.866880	0.495040	-0.058772	0	0	0
58049	0	0	0	0	0	11.422879	0.775614	4.179847	-1.414229	-0.605226	1.937070	-0.922852	0.082520	0.446777	0.103895	-0.684081	-0.250836	-0.676993	107.369378	-78.058133	101.846208	-0.042477	0.202512	0.978358	0.483857	-0.852574	0.197484	0.874116	0.481774	-0.061772	0	0	0
58050	0	0	0	0	0	7.802932	-3.238573	-3.762668	-1.611305	-0.389114	1.768783	-0.922852	0.084473	0.455322	0.103866	-0.688412	-0.239509	-0.676710	109.049750	-78.951127	99.188117	-0.030601	0.189187	0.981464	0.470335	-0.863695	0.181151	0.881957	0.467161	-0.062551	0	0	0
58051	0	0	0	0	0	6.073137	-4.638138	-5.379449	-0.680712	-0.284525	1.511372	-0.918213	0.088867	0.452881	0.106284	-0.691519	-0.232138	-0.675735	111.051077	-79.708548	96.753726	-0.021010	0.177416	0.983912	0.464695	-0.869631	0.166732	0.885221	0.460722	-0.064173	0	0	0
58052	0	0	0	0	0	5.685001	-3.580039	-5.207510	-0.349134	-0.374745	1.311424	-0.917969	0.102051	0.458984	0.109061	-0.694484	-0.226610	-0.674125	113.606526	-80.321869	93.954633	-0.011594	0.167713	0.985768	0.461796	-0.873507	0.154045	0.886911	0.457009	-0.067321	0	0	0
58053	0	0	0	0	0	5.432522	-3.406960	-7.809414	-0.058630	-0.521779	1.141749	-0.921631	0.109131	0.460938	0.112103	-0.697562	-0.222721	-0.671741	116.879292	-80.785914	90.601650	-0.001681	0.160115	0.987097	0.461333	-0.875656	0.142824	0.887226	0.455620	-0.072394	0	0	0
58054	0	0	0	0	0	5.331337	-3.160472	-7.701886	0.506688	-0.633684	0.960769	-0.907715	0.120117	0.462158	0.116380	-0.700471	-0.221416	-0.668409	120.836241	-81.092492	86.887451	0.008407	0.154611	0.987940	0.465770	-0.874861	0.132951	0.884866	0.459035	-0.079369	0	0	0
58055	0	0	0	0	0	5.578622	-2.276318	-5.317720	0.832040	-0.712178	0.794741	-0.910156	0.124023	0.480225	0.121151	-0.703238	-0.221816	-0.664512	125.118601	-81.251983	83.035088	0.018443	0.150967	0.988367	0.472992	-0.872240	0.124403	0.880874	0.465195	-0.087492	0	0	0
58056	0	0	0	0	0	6.582060	-1.129197	-3.551237	0.871782	-0.724536	0.742097	-0.908447	0.135986	0.481201	0.125866	-0.705933	-0.222531	-0.660527	129.464120	-81.338150	79.143007	0.028367	0.147907	0.988594	0.480460	-0.869276	0.116269	0.876558	0.471681	-0.095722	0	0	0
58057	0	0	0	0	0	7.713956	-0.230728	-1.817953	0.805754	-0.654545	0.763070	-0.895996	0.152344	0.488770	0.130489	-0.708431	-0.222898	-0.656822	133.694811	-81.415665	75.329466	0.037803	0.144399	0.988797	0.487232	-0.866578	0.107923	0.872454	0.477693	-0.103115	0	0	0
58058	0	0	0	0	0	8.127837	0.226782	-0.095998	0.501794	-0.604940	0.795445	-0.889648	0.160645	0.490479	0.134193	-0.710974	-0.222113	-0.653585	137.768295	-81.484850	71.499701	0.046984	0.140419	0.988977	0.491246	-0.865316	0.099523	0.869753	0.481155	-0.109637	0	0	0
58059	0	0	0	0	0	8.923893	0.225844	1.137211	0.170279	-0.576788	0.823876	-0.895020	0.166992	0.478516	0.136839	-0.713659	-0.220117	-0.650780	141.715638	-81.536947	67.605988	0.056069	0.136073	0.989111	0.492282	-0.865647	0.091182	0.868628	0.481809	-0.115522	0	0	0
58060	0	0	0	0	0	10.914027	1.925750	1.263302	-0.144892	-0.539872	0.874942	-0.895996	0.172852	0.499268	0.138564	-0.716477	-0.216884	-0.648400	145.594865	-81.584009	63.599128	0.065078	0.131095	0.989232	0.490474	-0.867523	0.082699	0.869023	0.479810	-0.120755	0	0	0
58061	0	0	0	0	0	17.452750	5.108092	0.277040	-0.133266	-0.481495	0.983393	-0.889160	0.175293	0.492676	0.140742	-0.719194	-0.213253	-0.646123	149.755598	-81.651379	59.315149	0.074096	0.124867	0.989403	0.488613	-0.869430	0.073134	0.869349	0.478016	-0.125432	0	0	0
58062	0	0	0	0	0	21.542399	7.936945	0.430051	-0.079335	-0.148669	1.038170	-0.882324	0.188965	0.496094	0.143641	-0.720836	-0.209358	-0.644928	153.606923	-81.857666	55.376427	0.080473	0.116550	0.989919	0.487102	-0.871073	0.062960	0.869630	0.477125	-0.126870	0	0	0
58063	0	0	0	0	0	11.043146	5.572494	4.461089	-0.535415	-0.214442	0.892311	-0.880615	0.190674	0.502930	0.144352	-0.722843	-0.204561	-0.644062	156.930750	-81.959082	51.708096	0.086679	0.109787	0.990168	0.481674	-0.874635	0.054811	0.872053	0.472188	-0.128694	0	0	0
58064	0	0	0	0	0	4.338603	-1.692076	-4.950963	-1.000936	-0.507341	0.829199	-0.876953	0.186035	0.502197	0.142873	-0.726038	-0.198695	-0.642632	160.219267	-81.860874	47.806016	0.095089	0.104891	0.989927	0.472151	-0.880215	0.047913	0.876374	0.462839	-0.133223	0	0	0
58065	0	0	0	0	0	7.157310	-2.602716	-1.232565	0.040730	-0.514974	0.777194	-0.874268	0.195557	0.510986	0.144995	-0.728436	-0.196364	-0.640155	163.810684	-81.716667	44.199603	0.103285	0.100439	0.989568	0.471715	-0.880836	0.040168	0.875681	0.462646	-0.138355	0	0	0
58066	0	0	0	0	0	9.705760	-0.285582	-0.004368	-0.040903	-0.493272	0.822355	-0.870605	0.209229	0.515869	0.146983	-0.730852	-0.193587	-0.637789	167.372667	-81.558935	40.574409	0.111498	0.095479	0.989167	0.470455	-0.881841	0.032090	0.875352	0.461780	-0.143242	0	0	0
58067	0	0	0	0	0	9.248909	1.731418	-1.164314	-0.288604	-0.498669	0.850413	-0.855469	0.204834	0.524414	0.148145	-0.733476	-0.189916	-0.635609	170.756936	-81.369748	36.983698	0.119867	0.090273	0.988677	0.466923	-0.883970	0.024103	0.876137	0.458747	-0.148109	0	0	0
58068	0	0	0	0	0	8.340028	1.777733	-3.500051	-0.449376	-0.522693	0.820529	-0.860107	0.214600	0.532227	0.148597	-0.736247	-0.185857	-0.633496	173.789908	-81.134889	33.653276	0.128281	0.085402	0.988054	0.461944	-0.886752	0.016671	0.877583	0.454288	-0.153204	0	0	0
58069	0	0	0	0	0	8.554266	1.200057	-3.622286	-0.547272	-0.551477	0.762353	-0.861816	0.210938	0.529297	0.148471	-0.739106	-0.181717	-0.631394	176.392915	-80.856298	30.698761	0.136642	0.081128	0.987293	0.456103	-0.889871	0.009998	0.879374	0.448941	-0.158596	0	0	0
58070	0	0	0	0	0	9.988073	0.178784	-3.709093	-0.494814	-0.508617	0.767347	-0.848877	0.212402	0.534424	0.148592	-0.741774	-0.177688	-0.629379	178.871463	-80.581985	27.898811	0.144618	0.076567	0.986521	0.450649	-0.892695	0.003223	0.880909	0.444109	-0.163604	0	0	0
58071	0	0	0	0	0	11.754798	-0.834926	-1.953506	-0.264827	-0.452181	0.844913	-0.845703	0.218994	0.537109	0.149853	-0.744144	-0.174047	-0.627297	-178.409882	-80.319764	24.986547	0.152412	0.071027	0.985762	0.447037	-0.894503	-0.004666	0.881436	0.441383	-0.168085	0	0	0
58072	0	0	0	0	0	10.430873	0.247186	-2.507352	-0.184131	-0.363414	0.910578	-0.842529	0.228516	0.541992	0.151697	-0.746213	-0.170345	-0.625409	-175.562508	-80.083079	21.988703	0.159692	0.064483	0.985059	0.443973	-0.895941	-0.013325	0.881695	0.439467	-0.171704	0	0	0
58073	0	0	0	0	0	9.170926	1.379399	-1.976865	-0.267706	-0.399447	0.937250	-0.840332	0.220459	0.541260	0.153275	-0.748461	-0.166305	-0.623422	-172.835991	-79.799912	19.062351	0.167376	0.057836	0.984195	0.440056	-0.897699	-0.022084	0.882234	0.436797	-0.175704	0	0	0
58074	0	0	0	0	0	9.460695	1.100675	-1.772265	-0.308414	-0.414348	0.958389	-0.835449	0.231689	0.546631	0.154752	-0.750784	-0.162066	-0.621378	-170.233677	-79.482921	16.236029	0.175249	0.051034	0.983201	0.435672	-0.899573	-0.030962	0.882880	0.433779	-0.179883	0	0	0
58075	0	0	0	0	0	9.270610	0.133152	-0.672210	-0.363023	-0.398556	0.996947	-0.829834	0.240479	0.557861	0.156148	-0.753107	-0.157494	-0.619389	-167.704158	-79.148292	13.448491	0.183105	0.043786	0.982118	0.430652	-0.901627	-0.040093	0.883748	0.430293	-0.183949	0	0	0
58076	0	0	0	0	0	8.954917	-1.235206	-1.668782	-0.403575	-0.419509	1.026016	-0.829834	0.242188	0.555664	0.157464	-0.755525	-0.152699	-0.617309	-165.294435	-78.775995	10.756504	0.191225	0.036328	0.980874	0.425144	-0.903776	-0.049411	0.884695	0.426461	-0.188269	0	0	0
58077	0	0	0	0	0	9.230314	-0.953717	-1.054536	-0.253082	-0.412946	1.015741	-0.824219	0.252441	0.554688	0.159313	-0.757770	-0.148395	-0.615128	-162.990468	-78.388226	8.256357	0.199193	0.028904	0.979534	0.420895	-0.905197	-0.058880	0.884969	0.424009	-0.192474	0	0	0
58078	0	0	0	0	0	9.425455	-0.735237	-1.417722	-0.264632	-0.426869	1.030355	-0.827393	0.258301	0.560059	0.161150	-0.760055	-0.144009	-0.612869	-160.825889	-77.971105	5.888713	0.207305	0.021382	0.978043	0.416438	-0.906584	-0.068449	0.885214	0.421484	-0.196844	0	0	0
58079	0	0	0	0	0	9.100721	-0.530556	-1.140951	-0.228305	-0.428816	1.038457	-0.821777	0.268311	0.563477	0.163142	-0.762296	-0.139699	-0.610552	-158.778111	-77.533995	3.657801	0.215421	0.013771	0.976424	0.412198	-0.907738	-0.078137	0.885261	0.419312	-0.201222	0	0	0
58080	0	0	0	0	0	9.176613	-0.098818	-1.531044	-0.275494	-0.442120	1.057936	-0.810303	0.257568	0.568604	0.165001	-0.764605	-0.135178	-0.608179	-156.871778	-77.069354	1.540600	0.223691	0.006016	0.974642	0.407416	-0.909003	-0.087895	0.885424	0.416746	-0.205787	0	0	0
58081	0	0	0	0	0	9.035040	-0.426596	-1.953032	-0.310590	-0.445416	1.057217	-0.804443	0.275146	0.573730	0.166711	-0.766924	-0.130549	-0.605798	-155.131894	-76.588811	-0.430841	0.231931	-0.001744	0.972731	0.402229	-0.910329	-0.097537	0.885675	0.413883	-0.210432	0	0	0
58082	0	0	0	0	0	9.042578	-0.731524	-2.306492	-0.286685	-0.460904	1.057642	-0.798584	0.280518	0.573975	0.168503	-0.769245	-0.126001	-0.603318	-153.522750	-76.087032	-2.257157	0.240261	-0.009470	0.970662	0.397173	-0.911461	-0.107202	0.885736	0.411277	-0.215228	0	0	0
58083	0	0	0	0	0	8.947983	-0.196467	-1.945866	-0.282516	-0.468875	1.071288	-0.791016	0.284424	0.586426	0.170337	-0.771566	-0.121414	-0.600774	-152.013740	-75.566296	-3.982241	0.248658	-0.017310	0.968437	0.392025	-0.912488	-0.116968	0.885712	0.408736	-0.220111	0	0	0
58084	0	0	0	0	0	8.771815	0.003504	-2.282345	-0.380721	-0.493132	1.065665	-0.777100	0.289795	0.591309	0.171757	-0.774012	-0.116571	-0.598177	-150.708883	-75.024473	-5.558090	0.257192	-0.025028	0.966036	0.385937	-0.913821	-0.126425	0.885949	0.405344	-0.225368	0	0	0
58085	0	0	0	0	0	9.124488	-0.540829	-3.206593	-0.471702	-0.483003	1.078673	-0.783936	0.294189	0.591553	0.172859	-0.776483	-0.111389	-0.595639	-149.523050	-74.475653	-7.069298	0.265613	-0.032939	0.963517	0.378907	-0.915424	-0.135749	0.886498	0.401140	-0.230668	0	0	0
58086	0	0	0	0	0	9.380247	-0.192232	-2.760878	-0.448235	-0.476022	1.083685	-0.781494	0.304932	0.591797	0.174069	-0.778885	-0.106251	-0.593085	-148.399980	-73.920641	-8.504676	0.273923	-0.040961	0.960879	0.371989	-0.916822	-0.145128	0.886899	0.397190	-0.235901	0	0	0
58087	0	0	0	0	0	9.019400	-0.385574	-2.513583	-0.522708	-0.476202	1.107298	-0.773682	0.298096	0.598877	0.175047	-0.781331	-0.100793	-0.590526	-147.367108	-73.351343	-9.895109	0.282240	-0.049234	0.958080	0.364245	-0.918399	-0.154497	0.887506	0.392581	-0.241276	0	0	0
58088	0	0	0	0	0	8.816201	-1.426040	-2.878591	-0.530421	-0.485687	1.123764	-0.761230	0.312012	0.602051	0.176035	-0.783787	-0.095254	-0.587891	-146.402768	-72.765353	-11.222197	0.290621	-0.057661	0.955099	0.356297	-0.919877	-0.163950	0.888027	0.387946	-0.246791	0	0	0
58089	0	0	0	0	0	9.117734	-2.280765	-2.570477	-0.507245	-0.472303	1.140257	-0.762939	0.306152	0.599121	0.177156	-0.786155	-0.089700	-0.585260	-145.463637	-72.174341	-12.513810	0.298849	-0.066329	0.951992	0.348401	-0.921139	-0.173549	0.888429	0.383540	-0.252173	0	0	0
58090	0	0	0	0	0	9.340476	-2.517377	-2.462183	-0.380262	-0.434320	1.154767	-0.757080	0.319580	0.614014	0.178833	-0.788273	-0.084425	-0.582681	-144.465460	-71.589624	-13.794611	0.306712	-0.075305	0.948819	0.341506	-0.921782	-0.183553	0.888427	0.380325	-0.257004	0	0	0
58091	0	0	0	0	0	8.836165	-2.034791	-2.564112	-0.334025	-0.441045	1.163611	-0.746826	0.323486	0.617920	0.180703	-0.790340	-0.079250	-0.580025	-143.506776	-70.992358	-15.010859	0.314581	-0.084355	0.945475	0.334894	-0.922132	-0.193699	0.888192	0.377568	-0.261834	0	0	0
58092	0	0	0	0	0	8.505556	-1.991298	-2.598130	-0.287890	-0.452177	1.158846	-0.749268	0.327881	0.621338	0.182735	-0.792362	-0.074237	-0.577286	-142.604760	-70.385124	-16.142756	0.322460	-0.093334	0.941970	0.328626	-0.922194	-0.203872	0.887707	0.375296	-0.266699	0	0	0
58093	0	0	0	0	0	8.783881	-1.829330	-2.176562	-0.302532	-0.473098	1.155321	-0.738525	0.328369	0.623047	0.184677	-0.794425	-0.069209	-0.574451	-141.797034	-69.764409	-17.188410	0.330433	-0.102213	0.938278	0.322138	-0.922209	-0.213910	0.887153	0.372938	-0.271802	0	0	0
58094	0	0	0	0	0	9.060217	-1.680862	-1.839135	-0.362329	-0.491505	1.169849	-0.732666	0.333496	0.635498	0.186415	-0.796567	-0.063968	-0.571523	-141.078096	-69.125303	-18.179280	0.338539	-0.111170	0.934362	0.314991	-0.922315	-0.223865	0.886663	0.370103	-0.277222	0	0	0
58095	0	0	0	0	0	8.708912	-2.496709	-1.960255	-0.505056	-0.582395	1.188540	-0.723633	0.341064	0.633545	0.187593	-0.799070	-0.058323	-0.568237	-140.554524	-68.435636	-19.053741	0.347409	-0.119987	0.930005	0.306403	-0.922815	-0.233518	0.886242	0.366082	-0.283830	0	0	0
58096	0	0	0	0	0	8.846104	-3.360806	-2.673834	-0.465418	-0.595679	1.177189	-0.712891	0.351807	0.639893	0.188891	-0.801531	-0.052849	-0.564867	-140.075518	-67.741225	-19.858822	0.356265	-0.128676	0.925483	0.298117	-0.923054	-0.243099	0.885552	0.362510	-0.290491	0	0	0
58097	0	0	0	0	0	8.602500	-3.363807	-2.314576	-0.354143	-0.623980	1.163459	-0.711182	0.348389	0.633301	0.190574	-0.803925	-0.047765	-0.561342	-139.611994	-67.037341	-20.582962	0.365227	-0.137156	0.920759	0.290754	-0.922800	-0.252790	0.884348	0.360040	-0.297153	0	0	0
58098	0	0	0	0	0	8.555411	-3.430953	-3.387755	-0.312991	-0.635443	1.127054	-0.692871	0.352051	0.649170	0.192315	-0.806266	-0.042956	-0.557768	-139.205951	-66.339661	-21.221733	0.374099	-0.145267	0.915941	0.283801	-0.922340	-0.262195	0.882897	0.358032	-0.303820	0	0	0
58099	0	0	0	0	0	8.305689	-3.468082	-4.291613	-0.249799	-0.563912	1.090138	-0.691162	0.354736	0.656982	0.194208	-0.808305	-0.038396	-0.554484	-138.769592	-65.685238	-21.858359	0.382147	-0.153300	0.911297	0.277441	-0.921618	-0.271379	0.881470	0.356538	-0.309662	0	0	0
58100	0	0	0	0	0	8.617116	-2.984277	-2.329912	-0.120584	-0.595545	1.062667	-0.680420	0.364014	0.657471	0.196540	-0.810270	-0.034339	-0.551049	-138.338989	-65.025423	-22.409510	0.390331	-0.160959	0.906495	0.272254	-0.920386	-0.280656	0.879499	0.356346	-0.315434	0	0	0
58101	0	0	0	0	0	8.604832	-2.762927	-2.972262	-0.240765	-0.580292	1.034629	-0.675537	0.370361	0.668945	0.198296	-0.812276	-0.030043	-0.547707	-138.014534	-64.381623	-22.923526	0.398228	-0.168411	0.901694	0.266022	-0.919552	-0.289234	0.877865	0.355052	-0.321391	0	0	0
58102	0	0	0	0	0	8.752397	-3.363041	-3.560080	-0.347635	-0.574075	1.024255	-0.675049	0.374023	0.672119	0.199591	-0.814340	-0.025494	-0.544393	-137.774721	-63.743090	-23.413091	0.405972	-0.175790	0.896819	0.258834	-0.919027	-0.297312	0.876466	0.352828	-0.327598	0	0	0
58103	0	0	0	0	0	8.529860	-2.938757	-3.360702	-0.358211	-0.544876	1.011964	-0.659180	0.367676	0.666016	0.200798	-0.816302	-0.020931	-0.541195	-137.546491	-63.121087	-23.900351	0.413339	-0.183170	0.891964	0.251514	-0.918484	-0.305168	0.875152	0.350479	-0.333576	0	0	0
58104	0	0	0	0	0	8.476335	-2.971473	-3.606552	-0.448344	-0.567997	1.004059	-0.652344	0.378174	0.675293	0.201613	-0.818387	-0.016185	-0.537897	-137.408937	-62.491401	-24.345220	0.420810	-0.190403	0.886942	0.243385	-0.918180	-0.312584	0.873889	0.347407	-0.340039	0	0	0
58105	0	0	0	0	0	8.629094	-3.502359	-4.332896	-0.457461	-0.543658	0.981151	-0.654541	0.374756	0.677734	0.202316	-0.820382	-0.011476	-0.534705	-137.290381	-61.880706	-24.778287	0.427918	-0.197529	0.881968	0.235189	-0.917873	-0.319681	0.872681	0.344226	-0.346318	0	0	0
58106	0	0	0	0	0	8.561150	-3.976523	-3.924710	-0.424121	-0.537673	0.961964	-0.642090	0.376953	0.687988	0.203106	-0.822298	-0.006935	-0.531532	-137.174853	-61.279290	-25.187383	0.434851	-0.204508	0.876973	0.227320	-0.917400	-0.326654	0.871338	0.341399	-0.352444	0	0	0
58107	0	0	0	0	0	8.666955	-4.501084	-4.042984	-0.347396	-0.517210	0.942604	-0.637939	0.379150	0.691162	0.204144	-0.824052	-0.002649	-0.528446	-137.027293	-60.693862	-25.586599	0.441475	-0.211392	0.872017	0.220125	-0.916636	-0.333651	0.869853	0.339251	-0.358139	0	0	0
58108	0	0	0	0	0	8.712365	-4.335208	-3.508117	-0.224929	-0.506213	0.940120	-0.631348	0.384521	0.684814	0.205683	-0.825628	0.001307	-0.525387	-136.814824	-60.113111	-25.980612	0.447933	-0.218284	0.867011	0.213969	-0.915385	-0.341009	0.868086	0.338263	-0.363326	0	0	0
58109	0	0	0	0	0	8.268148	-4.261326	-3.299156	-0.172630	-0.512259	0.919860	-0.622314	0.384521	0.696289	0.207371	-0.827141	0.005043	-0.522312	-136.603013	-59.537361	-26.342918	0.454329	-0.224967	0.861960	0.208282	-0.913944	-0.348318	0.866143	0.337782	-0.368375	0	0	0
58110	0	0	0	0	0	8.414636	-3.813488	-3.572958	-0.170587	-0.480493	0.894477	-0.623291	0.390869	0.696045	0.209002	-0.828547	0.008694	-0.519377	-136.396811	-58.983886	-26.698009	0.460344	-0.231509	0.857022	0.202695	-0.912485	-0.355367	0.864291	0.337306	-0.373131	0	0	0
58111	0	0	0	0	0	8.170478	-3.148501	-3.792013	-0.253485	-0.448566	0.871961	-0.605713	0.395264	0.701660	0.210216	-0.829936	0.012509	-0.516584	-136.242405	-58.452271	-27.051640	0.465968	-0.237952	0.852205	0.196426	-0.911305	-0.361856	0.862723	0.336009	-0.377899	0	0	0
58112	0	0	0	0	0	7.905850	-3.188435	-4.292176	-0.381039	-0.420384	0.858988	-0.609375	0.403320	0.701660	0.210869	-0.831365	0.016620	-0.513897	-136.159212	-57.936787	-27.407910	0.471267	-0.244364	0.847463	0.189096	-0.910516	-0.367700	0.861481	0.333537	-0.382888	0	0	0
58113	0	0	0	0	0	7.772970	-3.764227	-4.720905	-0.450496	-0.417335	0.835226	-0.602783	0.394043	0.707031	0.211158	-0.832839	0.020821	-0.511231	-136.136459	-57.432095	-27.743117	0.476418	-0.250583	0.842754	0.181221	-0.909957	-0.373010	0.860340	0.330433	-0.388109	0	0	0
58114	0	0	0	0	0	8.060942	-4.347823	-5.189110	-0.417541	-0.381580	0.808072	-0.596680	0.394287	0.713867	0.211514	-0.834169	0.024854	-0.508730	-136.095575	-56.952582	-28.077896	0.481152	-0.256673	0.838220	0.173741	-0.909288	-0.378165	0.859248	0.327588	-0.392911	0	0	0
58115	0	0	0	0	0	7.782499	-4.476507	-5.147654	-0.341022	-0.359667	0.796589	-0.597412	0.399658	0.715332	0.212143	-0.835344	0.028677	-0.506334	-136.011082	-56.486759	-28.415885	0.485607	-0.262741	0.833758	0.166919	-0.908346	-0.383465	0.858093	0.325383	-0.397243	0	0	0
58116	0	0	0	0	0	7.993605	-4.232353	-4.604078	-0.257790	-0.326023	0.769927	-0.572754	0.395752	0.718262	0.213052	-0.836332	0.032204	-0.504104	-135.880923	-56.044784	-28.751524	0.489684	-0.268667	0.829474	0.160934	-0.907144	-0.388832	0.856919	0.323895	-0.400976	0	0	0
58117	0	0	0	0	0	8.148809	-3.882498	-4.731684	-0.269159	-0.289678	0.756646	-0.584229	0.403564	0.719971	0.213860	-0.837227	0.035751	-0.502033	-135.750381	-55.622884	-29.098907	0.493370	-0.274594	0.825339	0.154866	-0.905971	-0.393996	0.855922	0.322203	-0.404453	0	0	0
58118	0	0	0	0	0	8.370252	-4.210230	-4.890641	-0.314427	-0.258437	0.751708	-0.572266	0.397217	0.730957	0.214467	-0.838077	0.039415	-0.500077	-135.635844	-55.215093	-29.458369	0.496740	-0.280565	0.821300	0.148435	-0.904901	-0.398901	0.855112	0.320059	-0.407854	0	0	0
58119	0	0	0	0	0	8.770665	-4.628410	-4.867430	-0.298141	-0.216072	0.755075	-0.562744	0.401611	0.724121	0.215128	-0.838789	0.043107	-0.498293	-135.491922	-54.823095	-29.845901	0.499693	-0.286709	0.817377	0.142079	-0.903723	-0.403854	0.854471	0.317935	-0.410849	0	0	0
58120	0	0	0	0	0	8.581151	-4.655135	-4.666863	-0.226009	-0.175864	0.760159	-0.567383	0.412842	0.724365	0.216102	-0.839307	0.046673	-0.496675	-135.286618	-54.444507	-30.258008	0.502272	-0.293010	0.813553	0.136320	-0.902243	-0.409114	0.853897	0.316390	-0.413228	0	0	0
58121	0	0	0	0	0	8.061155	-4.652322	-4.363692	-0.167834	-0.147965	0.753191	-0.565674	0.407471	0.724121	0.217284	-0.839681	0.050103	-0.495191	-135.043347	-54.079384	-30.679406	0.504552	-0.299336	0.809831	0.131053	-0.900554	-0.414520	0.853377	0.315277	-0.415148	0	0	0
58122	0	0	0	0	0	7.735571	-4.565891	-4.243082	-0.129634	-0.149183	0.734718	-0.558594	0.412109	0.731201	0.218587	-0.840008	0.053351	-0.493720	-134.795325	-53.719969	-31.079857	0.506788	-0.305471	0.806135	0.126211	-0.898747	-0.419910	0.852782	0.314549	-0.416921	0	0	0
58123	0	0	0	0	0	7.588222	-4.419202	-4.137206	-0.125738	-0.137141	0.709680	-0.557373	0.411621	0.731201	0.219828	-0.840297	0.056506	-0.492326	-134.558771	-53.374873	-31.466906	0.508845	-0.311417	0.802556	0.121491	-0.896966	-0.425080	0.852242	0.313803	-0.418583	0	0	0
58124	0	0	0	0	0	7.411133	-4.307454	-4.186004	-0.159491	-0.135329	0.680199	-0.550049	0.414307	0.728027	0.220861	-0.840615	0.059611	-0.490951	-134.361467	-53.041433	-31.828972	0.510827	-0.317084	0.799070	0.116644	-0.895334	-0.429850	0.851734	0.312786	-0.420375	0	0	0
58125	0	0	0	0	0	7.298226	-4.777681	-4.379523	-0.195154	-0.148016	0.647979	-0.549316	0.414795	0.725342	0.221656	-0.841003	0.062664	-0.489546	-134.213775	-52.715749	-32.157913	0.512835	-0.322424	0.795640	0.111620	-0.893883	-0.434181	0.851200	0.311473	-0.422426	0	0	0
58126	0	0	0	0	0	7.776797	-5.100267	-4.526302	-0.181820	-0.160976	0.600987	-0.542725	0.413574	0.733643	0.222404	-0.841413	0.065462	-0.488134	-134.093399	-52.403481	-32.442318	0.514880	-0.327287	0.792327	0.106965	-0.892502	-0.438176	0.850563	0.310359	-0.424524	0	0	0
58127	0	0	0	0	0	8.053685	-5.019210	-4.646400	-0.131495	-0.139279	0.572349	-0.543701	0.410400	0.730957	0.223274	-0.841716	0.068050	-0.486860	-133.951242	-52.111520	-32.720916	0.516673	-0.331965	0.789208	0.102848	-0.891036	-0.442129	0.849983	0.309605	-0.426232	0	0	0
58128	0	0	0	0	0	7.966037	-4.953215	-4.630644	-0.128891	-0.131964	0.541489	-0.540527	0.419922	0.738281	0.224086	-0.842001	0.070499	-0.485644	-133.822030	-51.834542	-32.980305	0.518359	-0.336373	0.786230	0.098931	-0.889631	-0.445836	0.849421	0.308885	-0.427871	0	0	0
58129	0	0	0	0	0	7.783001	-5.168911	-4.856891	-0.118963	-0.121613	0.520953	-0.536621	0.422363	0.736084	0.224873	-0.842250	0.072861	-0.484499	-133.695304	-51.570089	-33.232365	0.519904	-0.340635	0.783369	0.095168	-0.888247	-0.449400	0.848907	0.308196	-0.429386	0	0	0
58130	0	0	0	0	0	7.746314	-5.258249	-4.706874	-0.088883	-0.090433	0.499702	-0.535645	0.414795	0.733154	0.225734	-0.842391	0.075083	-0.483512	-133.547703	-51.326124	-33.487838	0.521157	-0.344787	0.780715	0.091792	-0.886814	-0.452919	0.848510	0.307705	-0.430521	0	0	0
58131	0	0	0	0	0	7.513578	-5.100490	-4.725144	-0.080589	-0.063616	0.474764	-0.532227	0.430176	0.741943	0.226546	-0.842462	0.077221	-0.482671	-133.396687	-51.102954	-33.744552	0.522132	-0.348806	0.778276	0.088583	-0.885427	-0.456258	0.848252	0.307169	-0.431412	0	0	0
58132	0	0	0	0	0	7.200553	-5.208335	-4.749625	-0.070304	-0.029643	0.441855	-0.531250	0.433350	0.740479	0.227320	-0.842448	0.079222	-0.482007	-133.239967	-50.906159	-33.999655	0.522787	-0.352620	0.776114	0.085659	-0.884099	-0.459381	0.848149	0.306639	-0.431991	0	0	0
58133	0	0	0	0	0	7.277279	-5.282638	-4.458433	-0.082364	-0.030461	0.411662	-0.523926	0.421875	0.733643	0.227959	-0.842458	0.081134	-0.481370	-133.107521	-50.721481	-34.234995	0.523400	-0.356170	0.774078	0.082760	-0.882904	-0.462202	0.848059	0.305979	-0.432635	0	0	0
58134	0	0	0	0	0	7.444507	-5.436631	-4.606909	-0.087594	-0.004982	0.376621	-0.524902	0.430176	0.743408	0.228490	-0.842423	0.082930	-0.480873	-132.982920	-50.560883	-34.462692	0.523767	-0.359473	0.772300	0.080026	-0.881830	-0.464727	0.848094	0.305213	-0.433106	0	0	0
58135	0	0	0	0	0	7.152427	-5.379308	-4.367551	-0.071554	0.014514	0.339766	-0.518311	0.422607	0.737549	0.228980	-0.842334	0.084565	-0.480510	-132.858508	-50.423281	-34.680864	0.523918	-0.362519	0.770772	0.077590	-0.880833	-0.467025	0.848227	0.304487	-0.433357	0	0	0
58136	0	0	0	0	0	6.850002	-5.275064	-4.087760	-0.081448	0.012873	0.302209	-0.524414	0.422363	0.737061	0.229350	-0.842275	0.086052	-0.480173	-132.758843	-50.300318	-34.872525	0.524058	-0.365215	0.769403	0.075296	-0.879987	-0.468992	0.848347	0.303712	-0.433666	0	0	0
58137	0	0	0	0	0	7.046239	-5.276674	-4.353498	-0.117041	0.002284	0.252838	-0.526855	0.426025	0.740234	0.229443	-0.842301	0.087418	-0.479836	-132.709328	-50.194105	-35.028111	0.524232	-0.367454	0.768218	0.072926	-0.879428	-0.470413	0.848447	0.302629	-0.434227	0	0	0
58138	0	0	0	0	0	7.250672	-5.483748	-4.242562	-0.115602	0.001278	0.209615	-0.522217	0.426514	0.741943	0.229451	-0.842346	0.088583	-0.479539	-132.679583	-50.105387	-35.154777	0.524390	-0.369297	0.767225	0.070826	-0.879010	-0.471513	0.848527	0.301596	-0.434788	0	0	0
58139	0	0	0	0	0	7.335563	-5.685105	-4.160241	-0.086182	-0.000433	0.166683	-0.528076	0.432617	0.748047	0.229468	-0.842379	0.089509	-0.479302	-132.654613	-50.034295	-35.255727	0.524515	-0.370770	0.766429	0.069169	-0.878665	-0.472402	0.848587	0.300795	-0.435228	0	0	0
58140	0	0	0	0	0	7.362542	-5.648675	-3.975653	-0.051023	0.002470	0.132883	-0.518066	0.436279	0.733887	0.229563	-0.842379	0.090197	-0.479127	-132.623363	-49.978303	-35.336327	0.524604	-0.371940	0.765801	0.068019	-0.878331	-0.473190	0.848625	0.300327	-0.435477	0	0	0
58141	0	0	0	0	0	7.091583	-5.550824	-3.740782	-0.021996	-0.005060	0.097147	-0.520020	0.421387	0.733643	0.229687	-0.842380	0.090669	-0.478978	-132.596332	-49.934627	-35.391851	0.524719	-0.372786	0.765311	0.067274	-0.878046	-0.473825	0.848613	0.300111	-0.435648	0	0	0
58142	0	0	0	0	0	6.969222	-5.234376	-3.691500	-0.008971	-0.014006	0.063738	-0.526123	0.422607	0.746338	0.229801	-0.842402	0.090947	-0.478831	-132.581357	-49.901368	-35.419795	0.524899	-0.373299	0.764937	0.066843	-0.877840	-0.474266	0.848536	0.300073	-0.435825	0	0	0
58143	0	0	0	0	0	7.071984	-4.880973	-3.729228	-0.057787	-0.039543	0.033315	-0.515381	0.432373	0.741211	0.229648	-0.842555	0.091186	-0.478589	-132.620945	-49.870930	-35.412947	0.525275	-0.373472	0.764594	0.066157	-0.877894	-0.474264	0.848357	0.299702	-0.436428	0	0	0
58144	0	0	0	0	0	7.104827	-5.094650	-3.883526	-0.114680	-0.075212	-0.000026	-0.525146	0.422119	0.747070	0.229192	-0.842874	0.091377	-0.478210	-132.726458	-49.840788	-35.362528	0.525931	-0.373243	0.764255	0.065164	-0.878243	-0.473755	0.848027	0.298964	-0.437573	0	0	0
58145	0	0	0	0	0	7.297113	-5.437677	-4.132510	-0.106248	-0.096890	-0.039008	-0.521729	0.431152	0.738037	0.228676	-0.843252	0.091374	-0.477792	-132.856258	-49.818756	-35.276357	0.526732	-0.372621	0.764007	0.064416	-0.878717	-0.472977	0.847587	0.298347	-0.438845	0	0	0
58146	0	0	0	0	0	7.508617	-5.475588	-3.969118	-0.059464	-0.107577	-0.069135	-0.523438	0.423828	0.739746	0.228301	-0.843616	0.091105	-0.477379	-132.977919	-49.804848	-35.163355	0.527617	-0.371688	0.763851	0.064257	-0.879157	-0.472180	0.847048	0.298213	-0.439975	0	0	0
58147	0	0	0	0	0	7.669114	-5.273260	-3.957297	-0.035489	-0.100337	-0.099527	-0.515137	0.427490	0.750488	0.227941	-0.843947	0.090673	-0.477047	-133.096673	-49.806545	-35.038392	0.528408	-0.370523	0.763870	0.064431	-0.879643	-0.471251	0.846542	0.298230	-0.440937	0	0	0
58148	0	0	0	0	0	7.726357	-5.084127	-4.110665	-0.040049	-0.090746	-0.113608	-0.517334	0.429932	0.751709	0.227534	-0.844268	0.090189	-0.476765	-133.219447	-49.817514	-34.909373	0.529121	-0.369249	0.763993	0.064673	-0.880188	-0.470198	0.846078	0.298202	-0.441846	0	0	0
58149	0	0	0	0	0	7.553992	-4.829031	-4.300401	-0.061173	-0.074009	-0.122539	-0.504639	0.425049	0.753418	0.226999	-0.844576	0.089751	-0.476559	-133.350680	-49.838795	-34.787421	0.529673	-0.367960	0.764233	0.064753	-0.880833	-0.468979	0.845727	0.297891	-0.442727	0	0	0
58150	0	0	0	0	0	7.305413	-4.697207	-4.455468	-0.090137	-0.062729	-0.136508	-0.515869	0.418457	0.747803	0.226313	-0.844896	0.089322	-0.476398	-133.499230	-49.869940	-34.662304	0.530134	-0.366566	0.764583	0.064694	-0.881608	-0.467528	0.845443	0.297316	-0.443655	0	0	0
58151	0	0	0	0	0	6.932906	-4.627453	-4.508376	-0.086882	-0.066169	-0.148870	-0.512939	0.426270	0.748779	0.225602	-0.845224	0.088844	-0.476242	-133.654015	-49.904845	-34.528994	0.530601	-0.365068	0.764976	0.064697	-0.882421	-0.465990	0.845149	0.296746	-0.444595	0	0	0
58152	0	0	0	0	0	7.163361	-4.524226	-4.420377	-0.080339	-0.076926	-0.161747	-0.513428	0.420898	0.751953	0.224903	-0.845577	0.088268	-0.476053	-133.816249	-49.940378	-34.378785	0.531165	-0.363407	0.765375	0.064856	-0.883254	-0.464387	0.844783	0.296306	-0.445584	0	0	0
58153	0	0	0	0	0	7.444770	-4.614353	-4.304465	-0.077481	-0.077648	-0.162645	-0.522217	0.411621	0.750977	0.224205	-0.845927	0.087695	-0.475867	-133.978261	-49.975893	-34.228993	0.531721	-0.361750	0.765774	0.065016	-0.884084	-0.462784	0.844421	0.295859	-0.446566	0	0	0
58154	0	0	0	0	0	7.684534	-4.629001	-4.251377	-0.068878	-0.072989	-0.164368	-0.519531	0.425049	0.744629	0.223546	-0.846257	0.087086	-0.475702	-134.133770	-50.013532	-34.079149	0.532248	-0.360077	0.766196	0.065289	-0.884886	-0.461209	0.844067	0.295502	-0.447470	0	0	0
58155	0	0	0	0	0	7.849405	-4.612548	-4.357263	-0.060543	-0.056931	-0.168636	-0.510986	0.411621	0.757813	0.222895	-0.846540	0.086470	-0.475617	-134.279368	-50.059281	-33.938371	0.532624	-0.358426	0.766709	0.065624	-0.885681	-0.459632	0.843804	0.295126	-0.448213	0	0	0
58156	0	0	0	0	0	7.999171	-4.464831	-4.485894	-0.075263	-0.041604	-0.158163	-0.511963	0.415527	0.750488	0.222210	-0.846798	0.085937	-0.475574	-134.420784	-50.106452	-33.811864	0.532889	-0.356898	0.767237	0.065812	-0.886475	-0.458074	0.843622	0.294596	-0.448905	0	0	0
58157	0	0	0	0	0	7.996598	-4.314555	-4.679529	-0.094630	-0.027300	-0.150922	-0.515625	0.407227	0.750977	0.221443	-0.847039	0.085511	-0.475579	-134.563540	-50.156407	-33.700492	0.533025	-0.355490	0.767796	0.065765	-0.887301	-0.456477	0.843540	0.293808	-0.449575	0	0	0
58158	0	0	0	0	0	7.614931	-4.399472	-4.807390	-0.088206	-0.005025	-0.145161	-0.518311	0.416748	0.749268	0.220719	-0.847218	0.085104	-0.475670	-134.688823	-50.212608	-33.604830	0.532990	-0.354183	0.768424	0.065775	-0.888081	-0.454957	0.843561	0.293031	-0.450042	0	0	0
58159	0	0	0	0	0	7.543182	-4.369897	-4.748933	-0.063771	-0.007372	-0.135359	-0.519775	0.410156	0.751465	0.220111	-0.847370	0.084692	-0.475755	-134.797204	-50.263944	-33.515266	0.532969	-0.352969	0.768997	0.065907	-0.888757	-0.453616	0.843564	0.292446	-0.450417	0	0	0
58160	0	0	0	0	0	7.650985	-4.253690	-4.649119	-0.047161	0.013486	-0.123160	-0.510254	0.404297	0.751221	0.219605	-0.847449	0.084301	-0.475917	-134.879741	-50.318457	-33.444749	0.532792	-0.351909	0.769605	0.066146	-0.889334	-0.452448	0.843657	0.291967	-0.450553	0	0	0
58161	0	0	0	0	0	7.682936	-4.220673	-4.545885	-0.052371	0.026922	-0.112572	-0.515869	0.409424	0.752686	0.219085	-0.847496	0.083996	-0.476127	-134.954170	-50.374251	-33.391007	0.532496	-0.350997	0.770227	0.066251	-0.889893	-0.451332	0.843836	0.291361	-0.450611	0	0	0
58162	0	0	0	0	0	7.558895	-4.132702	-4.506233	-0.063048	0.043205	-0.100315	-0.519287	0.406982	0.753662	0.218553	-0.847512	0.083772	-0.476383	-135.020450	-50.431427	-33.353514	0.532083	-0.350225	0.770863	0.066233	-0.890434	-0.450267	0.844097	0.290636	-0.450589	0	0	0
58163	0	0	0	0	0	7.469652	-4.151144	-4.522000	-0.074909	0.044869	-0.088045	-0.521729	0.407227	0.750977	0.217988	-0.847530	0.083644	-0.476631	-135.087276	-50.484482	-33.326410	0.531652	-0.349581	0.771452	0.066018	-0.890970	-0.449237	0.844386	0.289768	-0.450608	0	0	0
58164	0	0	0	0	0	7.578220	-4.168684	-4.415311	-0.079099	0.049320	-0.083647	-0.525391	0.411377	0.748779	0.217425	-0.847541	0.083536	-0.476888	-135.151811	-50.537346	-33.303152	0.531199	-0.348974	0.772039	0.065774	-0.891497	-0.448227	0.844690	0.288878	-0.450609	0	0	0
58165	0	0	0	0	0	7.773077	-4.162285	-4.598989	-0.090450	0.050989	-0.069917	-0.522705	0.401123	0.750244	0.216835	-0.847554	0.083527	-0.477136	-135.215792	-50.585516	-33.291184	0.530729	-0.348507	0.772573	0.065332	-0.892012	-0.447266	0.845020	0.287851	-0.450648	0	0	0
58166	0	0	0	0	0	7.851318	-4.147488	-4.594601	-0.091662	0.061873	-0.060511	-0.522217	0.407715	0.751709	0.216268	-0.847538	0.083561	-0.477415	-135.270097	-50.634122	-33.290512	0.530185	-0.348141	0.773111	0.064858	-0.892491	-0.446378	0.845397	0.286805	-0.450606	0	0	0
58167	0	0	0	0	0	7.826515	-4.193216	-4.723904	-0.078633	0.062144	-0.046948	-0.516602	0.406738	0.753906	0.215778	-0.847501	0.083634	-0.477690	-135.310596	-50.677577	-33.300256	0.529636	-0.347909	0.773592	0.064391	-0.892890	-0.445646	0.845777	0.285843	-0.450504	0	0	0
58168	0	0	0	0	0	7.728917	-4.098751	-4.611288	-0.063848	0.071575	-0.038059	-0.517822	0.405273	0.747070	0.215379	-0.847422	0.083706	-0.477997	-135.333097	-50.721090	-33.320089	0.529024	-0.347770	0.774073	0.064033	-0.893210	-0.445056	0.846187	0.285012	-0.450261	0	0	0
58169	0	0	0	0	0	7.492775	-3.960010	-4.576215	-0.057717	0.081667	-0.021264	-0.523438	0.404541	0.749268	0.215032	-0.847304	0.083858	-0.478335	-135.339163	-50.762131	-33.358636	0.528327	-0.347821	0.774527	0.063608	-0.893459	-0.444619	0.846655	0.284170	-0.449914	0	0	0
58170	0	0	0	0	0	7.290307	-3.883262	-4.628375	-0.060094	0.084614	-0.010793	-0.530029	0.399658	0.753174	0.214708	-0.847179	0.084051	-0.478669	-135.339436	-50.799982	-33.404362	0.527622	-0.347960	0.774944	0.063136	-0.893672	-0.444257	0.847130	0.283327	-0.449552	0	0	0
58171	0	0	0	0	0	7.563479	-4.061672	-4.802577	-0.084188	0.076885	-0.000126	-0.526123	0.405029	0.750244	0.214300	-0.847092	0.084351	-0.478953	-135.352486	-50.830602	-33.453619	0.526977	-0.348185	0.775282	0.062373	-0.893921	-0.443863	0.847588	0.282262	-0.449359	0	0	0
58172	0	0	0	0	0	7.723657	-4.287088	-4.790863	-0.068621	0.092273	0.003096	-0.533203	0.402100	0.759766	0.213970	-0.846950	0.084631	-0.479302	-135.346826	-50.865987	-33.513252	0.526215	-0.348469	0.775672	0.061755	-0.894109	-0.443571	0.848106	0.281315	-0.448974	0	0	0
58173	0	0	0	0	0	7.893764	-4.406918	-4.663963	-0.043773	0.099910	0.013616	-0.523438	0.407715	0.755859	0.213756	-0.846758	0.084918	-0.479685	-135.318351	-50.900446	-33.586142	0.525383	-0.348880	0.776051	0.061261	-0.894195	-0.443466	0.848658	0.280531	-0.448422	0	0	0
58174	0	0	0	0	0	7.822795	-4.395083	-4.503837	-0.020517	0.117294	0.018973	-0.534180	0.403809	0.751465	0.213657	-0.846498	0.085177	-0.480142	-135.264587	-50.939581	-33.672177	0.524417	-0.349375	0.776482	0.060967	-0.894192	-0.443514	0.849276	0.279926	-0.447629	0	0	0
58175	0	0	0	0	0	7.677334	-4.345154	-4.378339	-0.019030	0.120481	0.021506	-0.526611	0.403809	0.750977	0.213558	-0.846227	0.085458	-0.480614	-135.207487	-50.979130	-33.763468	0.523414	-0.349912	0.776917	0.060644	-0.894180	-0.443582	0.849918	0.279292	-0.446806	0	0	0
58176	0	0	0	0	0	7.701357	-4.399380	-4.352166	-0.028465	0.130138	0.017419	-0.537354	0.404785	0.754150	0.213416	-0.845944	0.085743	-0.481124	-135.152364	-51.024007	-33.857014	0.522336	-0.350427	0.777410	0.060291	-0.894204	-0.443582	0.850606	0.278570	-0.445948	0	0	0
58177	0	0	0	0	0	7.646184	-4.481139	-4.324034	-0.038582	0.141701	0.015058	-0.534668	0.401855	0.757324	0.213209	-0.845645	0.086067	-0.481684	-135.098797	-51.074684	-33.958111	0.521147	-0.350964	0.777966	0.059834	-0.894268	-0.443513	0.851367	0.277684	-0.445045	0	0	0
58178	0	0	0	0	0	7.565358	-4.451944	-4.402804	-0.033144	0.148656	0.012656	-0.525391	0.394531	0.750732	0.213028	-0.845324	0.086363	-0.482274	-135.039094	-51.128886	-34.060854	0.519907	-0.351485	0.778560	0.059466	-0.894321	-0.443457	0.852151	0.276854	-0.444062	0	0	0
58179	0	0	0	0	0	7.439121	-4.330146	-4.386418	-0.037326	0.147238	0.006007	-0.532959	0.400635	0.754395	0.212801	-0.845012	0.086653	-0.482867	-134.986209	-51.185377	-34.160201	0.518661	-0.351955	0.779178	0.059064	-0.894414	-0.443323	0.852937	0.275956	-0.443110	0	0	0
58180	0	0	0	0	0	7.432523	-4.380685	-4.489567	-0.049968	0.145369	-0.005930	-0.536377	0.400391	0.749512	0.212505	-0.844724	0.086907	-0.483456	-134.946721	-51.245667	-34.249212	0.517436	-0.352299	0.779837	0.058648	-0.894578	-0.443048	0.853710	0.274984	-0.442225	0	0	0
58181	0	0	0	0	0	7.477093	-4.527411	-4.505685	-0.054599	0.147445	-0.011061	-0.535156	0.399414	0.752930	0.212164	-0.844437	0.087166	-0.484060	-134.911797	-51.309061	-34.337976	0.516176	-0.352613	0.780529	0.058187	-0.894777	-0.442706	0.854504	0.273931	-0.441345	0	0	0
58182	0	0	0	0	0	7.619097	-4.609717	-4.567093	-0.046737	0.161261	-0.024647	-0.546631	0.398682	0.741699	0.211829	-0.844115	0.087351	-0.484736	-134.871433	-51.383302	-34.425577	0.514802	-0.352830	0.781339	0.057895	-0.894997	-0.442300	0.855352	0.272932	-0.440319	0	0	0
58183	0	0	0	0	0	7.608800	-4.551869	-4.573890	-0.033036	0.171067	-0.033317	-0.537842	0.399902	0.750732	0.211515	-0.843756	0.087488	-0.485472	-134.822939	-51.465202	-34.515721	0.513325	-0.353006	0.782230	0.057732	-0.895215	-0.441880	0.856250	0.271987	-0.439157	0	0	0
58184	0	0	0	0	0	7.510671	-4.455235	-4.635276	-0.026773	0.187102	-0.043216	-0.539063	0.394775	0.754883	0.211207	-0.843356	0.087573	-0.486285	-134.766786	-51.557332	-34.608677	0.511716	-0.353124	0.783231	0.057703	-0.895445	-0.441416	0.857215	0.271075	-0.437837	0	0	0
58185	0	0	0	0	0	7.540192	-4.417210	-4.575912	-0.038166	0.196618	-0.053194	-0.538086	0.399658	0.745361	0.210811	-0.842948	0.087667	-0.487147	-134.717606	-51.657525	-34.703323	0.510005	-0.353188	0.784317	0.057595	-0.895747	-0.440818	0.858241	0.269992	-0.436494	0	0	0
58186	0	0	0	0	0	7.385332	-4.573236	-4.369583	-0.033196	0.190222	-0.059251	-0.541992	0.392822	0.732666	0.210435	-0.842553	0.087702	-0.487986	-134.670990	-51.757341	-34.788566	0.508356	-0.353166	0.785396	0.057591	-0.896051	-0.440201	0.859219	0.269011	-0.435174	0	0	0
58187	0	0	0	0	0	7.536481	-4.664823	-4.367915	-0.021506	0.192929	-0.079729	-0.539307	0.391113	0.741699	0.210047	-0.842146	0.087638	-0.488866	-134.626960	-51.866732	-34.864042	0.506659	-0.352978	0.786577	0.057761	-0.896400	-0.439467	0.860209	0.268093	-0.433781	0	0	0
58188	0	0	0	0	0	7.558656	-4.643155	-4.086313	-0.019503	0.193060	-0.093473	-0.548096	0.390869	0.738770	0.209644	-0.841743	0.087499	-0.489758	-134.587882	-51.981570	-34.929491	0.504962	-0.352653	0.787813	0.058045	-0.896787	-0.438639	0.861187	0.267225	-0.432374	0	0	0
58189	0	0	0	0	0	7.513990	-4.684845	-4.028141	-0.015547	0.186267	-0.107328	-0.552002	0.394287	0.743164	0.209214	-0.841356	0.087299	-0.490641	-134.557534	-52.099510	-34.983244	0.503302	-0.352196	0.789079	0.058399	-0.897217	-0.437711	0.862135	0.266382	-0.431003	0	0	0
58190	0	0	0	0	0	7.817706	-4.651395	-3.990653	-0.022385	0.172625	-0.130163	-0.551025	0.389893	0.742676	0.208717	-0.841020	0.086991	-0.491483	-134.549255	-52.221075	-35.011573	0.501755	-0.351484	0.790380	0.058840	-0.897739	-0.436580	0.863006	0.265562	-0.429764	0	0	0
58191	0	0	0	0	0	7.823634	-4.659410	-4.063931	-0.029657	0.169456	-0.145469	-0.549805	0.390381	0.744629	0.208141	-0.840704	0.086647	-0.492327	-134.555273	-52.347823	-35.029434	0.500212	-0.350636	0.791734	0.059259	-0.898339	-0.435288	0.863873	0.264654	-0.428582	0	0	0
58192	0	0	0	0	0	7.583746	-4.691789	-4.013381	-0.007754	0.157168	-0.166430	-0.554199	0.391357	0.750488	0.207623	-0.840404	0.086134	-0.493147	-134.565565	-52.477982	-35.023653	0.498774	-0.349552	0.793119	0.060003	-0.898947	-0.433928	0.864653	0.264021	-0.427397	0	0	0
58193	0	0	0	0	0	7.621078	-4.575359	-4.083309	0.012288	0.149034	-0.180526	-0.560791	0.385498	0.738770	0.207145	-0.840108	0.085518	-0.493959	-134.576756	-52.610826	-35.004716	0.497382	-0.348331	0.794529	0.060954	-0.899555	-0.432533	0.865388	0.263564	-0.426190	0	0	0
58194	0	0	0	0	0	7.614913	-4.469117	-3.938319	0.014969	0.136272	-0.190184	-0.555176	0.388184	0.731689	0.206672	-0.839844	0.084828	-0.494725	-134.597867	-52.742271	-34.968979	0.496104	-0.346975	0.795920	0.062008	-0.900182	-0.431077	0.866046	0.263212	-0.425068	0	0	0
58195	0	0	0	0	0	7.686835	-4.448851	-3.940802	0.017694	0.116511	-0.205843	-0.562256	0.390137	0.735107	0.206168	-0.839631	0.084058	-0.495427	-134.637142	-52.872334	-34.910890	0.494972	-0.345437	0.797293	0.063128	-0.900858	-0.429499	0.866613	0.262921	-0.424093	0	0	0
58196	0	0	0	0	0	7.955213	-4.433486	-3.846422	0.017077	0.100812	-0.219078	-0.560059	0.386230	0.743164	0.205647	-0.839463	0.083204	-0.496073	-134.692090	-53.001242	-34.831359	0.493978	-0.343725	0.798649	0.064339	-0.901573	-0.427816	0.867091	0.262715	-0.423242	0	0	0
58197	0	0	0	0	0	7.983327	-4.415584	-3.818192	0.009203	0.100206	-0.222944	-0.561523	0.388428	0.741943	0.205071	-0.839304	0.082366	-0.496720	-134.754973	-53.131617	-34.749994	0.492971	-0.341986	0.800016	0.065465	-0.902323	-0.426060	0.867579	0.262408	-0.422431	0	0	0
58198	0	0	0	0	0	7.888331	-4.188671	-3.829819	0.014733	0.096986	-0.229331	-0.557373	0.385010	0.741211	0.204515	-0.839149	0.081471	-0.497357	-134.819847	-53.263047	-34.660014	0.491997	-0.340167	0.801390	0.066702	-0.903072	-0.424278	0.868038	0.262198	-0.421618	0	0	0
58199	0	0	0	0	0	7.910566	-4.112843	-3.892550	-0.002718	0.080462	-0.228857	-0.573730	0.386719	0.745361	0.203883	-0.839052	0.080617	-0.497921	-134.904559	-53.387716	-34.560207	0.491151	-0.338319	0.802690	0.067750	-0.903865	-0.422418	0.868436	0.261854	-0.421013	0	0	0
58200	0	0	0	0	0	7.933234	-4.084381	-3.833599	0.009543	0.076537	-0.229203	-0.563721	0.385010	0.731201	0.203313	-0.838951	0.079714	-0.498469	-134.984674	-53.510670	-34.455251	0.490349	-0.336444	0.803968	0.068938	-0.904619	-0.420610	0.868796	0.261669	-0.420385	0	0	0
58201	0	0	0	0	0	8.024084	-4.036574	-3.826060	0.014990	0.066276	-0.221955	-0.556641	0.379395	0.736084	0.202777	-0.838865	0.078831	-0.498972	-135.064432	-53.626628	-34.349268	0.489626	-0.334617	0.805169	0.070103	-0.905334	-0.418874	0.869110	0.261536	-0.419817	0	0	0
58202	0	0	0	0	0	8.024374	-3.831306	-3.912767	0.013256	0.057464	-0.212507	-0.569824	0.389404	0.736328	0.202272	-0.838799	0.077969	-0.499423	-135.144877	-53.734913	-34.241576	0.488995	-0.332840	0.806289	0.071237	-0.906014	-0.417210	0.869373	0.261452	-0.419325	0	0	0
58203	0	0	0	0	0	8.086466	-3.753975	-3.918915	0.003109	0.051950	-0.200617	-0.571777	0.384277	0.735840	0.201745	-0.838751	0.077190	-0.499838	-135.228577	-53.836230	-34.139305	0.488407	-0.331166	0.807334	0.072194	-0.906681	-0.415592	0.869624	0.261263	-0.418922	0	0	0
58204	0	0	0	0	0	7.980332	-3.749384	-3.980986	0.004562	0.052373	-0.191309	-0.569824	0.377686	0.740479	0.201258	-0.838696	0.076433	-0.500242	-135.306063	-53.933713	-34.041723	0.487832	-0.329564	0.808336	0.073147	-0.907306	-0.414059	0.869868	0.261119	-0.418506	0	0	0
58205	0	0	0	0	0	7.901619	-3.746590	-3.913069	-0.008821	0.041156	-0.176314	-0.568115	0.379395	0.743164	0.200745	-0.838676	0.075775	-0.500582	-135.389997	-54.020707	-33.947996	0.487352	-0.328080	0.809229	0.073878	-0.907919	-0.412583	0.870075	0.260857	-0.418238	0	0	0
58206	0	0	0	0	0	7.919527	-3.799384	-3.853457	0.006453	0.030942	-0.168973	-0.573242	0.388184	0.732422	0.200329	-0.838663	0.075086	-0.500874	-135.466598	-54.100299	-33.850385	0.486976	-0.326622	0.810045	0.074736	-0.908461	-0.411235	0.870212	0.260801	-0.417988	0	0	0
58207	0	0	0	0	0	7.957891	-3.749515	-3.875564	0.018577	0.023240	-0.157566	-0.575439	0.381104	0.734375	0.199986	-0.838652	0.074418	-0.501129	-135.534894	-54.172266	-33.756585	0.486664	-0.325259	0.810781	0.075615	-0.908935	-0.410023	0.870311	0.260851	-0.417751	0	0	0
58208	0	0	0	0	0	8.003491	-3.722591	-3.872595	0.015893	0.015195	-0.141391	-0.571289	0.378418	0.725342	0.199685	-0.838658	0.073805	-0.501330	-135.599880	-54.234213	-33.666802	0.486443	-0.324010	0.811413	0.076421	-0.909358	-0.408935	0.870364	0.260933	-0.417589	0	0	0
58209	0	0	0	0	0	7.956217	-3.726393	-3.982941	0.014387	0.008027	-0.132176	-0.568115	0.382813	0.732910	0.199392	-0.838679	0.073239	-0.501494	-135.665185	-54.289657	-33.579762	0.486280	-0.322836	0.811978	0.077140	-0.909757	-0.407910	0.870391	0.260995	-0.417493	0	0	0
58210	0	0	0	0	0	8.059952	-3.661172	-3.966515	0.008279	0.003632	-0.118463	-0.573486	0.378906	0.731934	0.199121	-0.838713	0.072730	-0.501620	-135.728378	-54.337569	-33.497682	0.486176	-0.321764	0.812466	0.077767	-0.910123	-0.406975	0.870394	0.261045	-0.417457	0	0	0
58211	0	0	0	0	0	8.144018	-3.695191	-4.051317	0.005577	0.006931	-0.103214	-0.570801	0.375000	0.733643	0.198865	-0.838734	0.072306	-0.501747	-135.783159	-54.380865	-33.429834	0.486044	-0.320850	0.812906	0.078270	-0.910449	-0.406148	0.870422	0.261031	-0.417405	0	0	0
58212	0	0	0	0	0	7.982118	-3.652484	-4.083316	0.012470	0.008662	-0.087656	-0.569580	0.371582	0.735352	0.198686	-0.838739	0.071920	-0.501865	-135.823804	-54.418448	-33.372619	0.485919	-0.320071	0.813288	0.078784	-0.910703	-0.405480	0.870446	0.261104	-0.417311	0	0	0
58213	0	0	0	0	0	7.808329	-3.547745	-4.080705	0.016087	0.007400	-0.075689	-0.567627	0.380127	0.732666	0.198542	-0.838738	0.071586	-0.501970	-135.856822	-54.450936	-33.324428	0.485802	-0.319409	0.813618	0.079240	-0.910913	-0.404918	0.870470	0.261181	-0.417214	0	0	0
58214	0	0	0	0	0	7.930531	-3.539826	-4.046482	0.009254	-0.006401	-0.059360	-0.568359	0.380127	0.733643	0.198426	-0.838774	0.071312	-0.501996	-135.891601	-54.470996	-33.276731	0.485830	-0.318848	0.813821	0.079588	-0.911083	-0.404467	0.870422	0.261273	-0.417255	0	0	0
58215	0	0	0	0	0	8.082314	-3.604389	-4.060487	0.008280	-0.005690	-0.052598	-0.571533	0.377441	0.726807	0.198313	-0.838806	0.071081	-0.502020	-135.923112	-54.488811	-33.235610	0.485847	-0.318361	0.814002	0.079869	-0.911239	-0.404061	0.870387	0.261325	-0.417295	0	0	0
58216	0	0	0	0	0	8.230172	-3.764466	-4.246993	0.024944	-0.012520	-0.042720	-0.576172	0.380127	0.739990	0.198307	-0.838835	0.070831	-0.502009	-135.942794	-54.499692	-33.195436	0.485940	-0.317935	0.814112	0.080273	-0.911314	-0.403810	0.870298	0.261579	-0.417323	0	0	0
58217	0	0	0	0	0	8.402001	-4.131374	-4.495688	0.092077	0.007782	-0.036556	-0.571533	0.373291	0.727295	0.198581	-0.838744	0.070470	-0.502103	-135.909601	-54.516676	-33.174915	0.485852	-0.317629	0.814284	0.081204	-0.911199	-0.403884	0.870261	0.262351	-0.416916	0	0	0
58218	0	0	0	0	0	8.088129	-3.866551	-4.067033	0.139469	0.024161	-0.018879	-0.578125	0.384277	0.735352	0.199102	-0.838559	0.070069	-0.502262	-135.829392	-54.533156	-33.176842	0.485646	-0.317517	0.814451	0.082489	-0.910897	-0.404304	0.870255	0.263531	-0.416182	0	0	0
58219	0	0	0	0	0	7.899969	-3.738614	-4.143586	0.123842	0.009213	-0.014254	-0.579102	0.376709	0.733643	0.199564	-0.838424	0.069723	-0.502352	-135.764317	-54.541851	-33.173140	0.485563	-0.317418	0.814539	0.083587	-0.910626	-0.404690	0.870197	0.264587	-0.415634	0	0	0
58220	0	0	0	0	0	8.161429	-3.897340	-4.074840	0.089378	0.020080	-0.010675	-0.576416	0.373779	0.731934	0.199897	-0.838296	0.069479	-0.502468	-135.710318	-54.553374	-33.178124	0.485398	-0.317371	0.814656	0.084396	-0.910428	-0.404967	0.870210	0.265324	-0.415135	0	0	0
58221	0	0	0	0	0	8.054034	-3.860571	-4.023484	0.091699	0.032021	0.000594	-0.579590	0.379639	0.731934	0.200252	-0.838131	0.069300	-0.502627	-135.642355	-54.565523	-33.200808	0.485128	-0.317468	0.814779	0.085140	-0.910193	-0.405339	0.870289	0.266011	-0.414531	0	0	0
58222	0	0	0	0	0	7.855052	-4.151756	-4.124132	0.093607	0.023155	-0.004131	-0.575684	0.390869	0.736572	0.200618	-0.837988	0.069075	-0.502750	-135.580395	-54.575676	-33.212586	0.484942	-0.317489	0.814882	0.085954	-0.909962	-0.405686	0.870312	0.266776	-0.413989	0	0	0
58223	0	0	0	0	0	8.048020	-4.469970	-4.233992	0.117941	0.025482	-0.005560	-0.576660	0.372314	0.727539	0.201071	-0.837814	0.068796	-0.502897	-135.504470	-54.587544	-33.226324	0.484724	-0.317513	0.815002	0.086960	-0.909675	-0.406115	0.870334	0.267726	-0.413331	0	0	0
58224	0	0	0	0	0	8.144157	-4.377768	-4.059495	0.145893	0.036229	-0.015361	-0.581299	0.384033	0.730713	0.201624	-0.837589	0.068406	-0.503104	-135.411565	-54.607530	-33.239310	0.484414	-0.317467	0.815204	0.088283	-0.909337	-0.406586	0.870373	0.268925	-0.412469	0	0	0
58225	0	0	0	0	0	8.153264	-4.388327	-4.264970	0.154735	0.046563	-0.028807	-0.576416	0.383057	0.725098	0.202164	-0.837332	0.067960	-0.503374	-135.315970	-54.637365	-33.251549	0.483992	-0.317338	0.815505	0.089719	-0.909023	-0.406975	0.870461	0.270138	-0.411488	0	0	0
58226	0	0	0	0	0	7.984304	-4.382306	-4.190393	0.157431	0.054411	-0.044964	-0.567871	0.385010	0.725830	0.202683	-0.837059	0.067434	-0.503691	-135.222992	-54.676665	-33.256512	0.483496	-0.317073	0.815902	0.091286	-0.908744	-0.407248	0.870574	0.271383	-0.410430	0	0	0
58227	0	0	0	0	0	8.040758	-4.260364	-3.953808	0.170255	0.068495	-0.063257	-0.571777	0.386475	0.728271	0.203195	-0.836742	0.066826	-0.504092	-135.125496	-54.729251	-33.259940	0.482851	-0.316691	0.816432	0.093026	-0.908492	-0.407417	0.870748	0.272671	-0.409206	0	0	0
58228	0	0	0	0	0	8.112719	-4.557273	-4.205218	0.163969	0.082152	-0.085222	-0.582520	0.389160	0.725342	0.203631	-0.836404	0.066144	-0.504567	-135.035806	-54.796083	-33.256283	0.482074	-0.316137	0.817105	0.094844	-0.908319	-0.407384	0.870982	0.273887	-0.407893	0	0	0
58229	0	0	0	0	0	8.203702	-4.722516	-4.145674	0.177580	0.094272	-0.105209	-0.580811	0.390381	0.727783	0.204059	-0.836027	0.065368	-0.505120	-134.943154	-54.876101	-33.248664	0.481162	-0.315447	0.817910	0.096850	-0.908174	-0.407235	0.871266	0.275160	-0.406428	0	0	0
58230	0	0	0	0	0	7.886233	-4.632494	-4.112315	0.200405	0.110295	-0.118690	-0.582275	0.391602	0.723145	0.204553	-0.835589	0.064483	-0.505757	-134.835290	-54.967905	-33.241712	0.480103	-0.314670	0.818831	0.099146	-0.908000	-0.407069	0.871591	0.276619	-0.404736	0	0	0
58231	0	0	0	0	0	7.885964	-4.454877	-4.132202	0.190916	0.112126	-0.149954	-0.580811	0.386475	0.716553	0.204917	-0.835166	0.063504	-0.506433	-134.750070	-55.073322	-33.215699	0.478985	-0.313626	0.819885	0.101481	-0.907953	-0.406600	0.871938	0.277958	-0.403068	0	0	0
58232	0	0	0	0	0	7.993674	-4.601634	-4.199065	0.180443	0.122908	-0.173618	-0.583984	0.382080	0.723633	0.205184	-0.834731	0.062452	-0.507171	-134.677694	-55.192586	-33.179453	0.477754	-0.312389	0.821075	0.103865	-0.907999	-0.405895	0.872332	0.279198	-0.401354	0	0	0
58233	0	0	0	0	0	8.080377	-4.694624	-4.192921	0.179090	0.132495	-0.193528	-0.588135	0.388428	0.713135	0.205380	-0.834278	0.061344	-0.507972	-134.612451	-55.324025	-33.137660	0.476403	-0.311010	0.822383	0.106299	-0.908112	-0.405010	0.872778	0.280366	-0.399567	0	0	0
58234	0	0	0	0	0	8.077567	-4.644531	-4.133584	0.205098	0.148505	-0.217693	-0.585938	0.393799	0.713379	0.205629	-0.833764	0.060071	-0.508867	-134.536370	-55.471622	-33.088869	0.474891	-0.309446	0.823846	0.109105	-0.908217	-0.404028	0.873255	0.281755	-0.397542	0	0	0
58235	0	0	0	0	0	8.059632	-4.551181	-4.124907	0.212015	0.163974	-0.245592	-0.581543	0.382813	0.711670	0.205821	-0.833209	0.058693	-0.509859	-134.463786	-55.636979	-33.032990	0.473197	-0.307685	0.825478	0.112073	-0.908386	-0.402833	0.873799	0.283133	-0.395363	0	0	0
58236	0	0	0	0	0	7.888934	-4.422973	-4.040725	0.209074	0.172093	-0.264843	-0.590088	0.388428	0.711182	0.205958	-0.832639	0.057238	-0.510899	-134.398971	-55.813396	-32.968000	0.471411	-0.305764	0.827212	0.115131	-0.908611	-0.401462	0.874366	0.284491	-0.393127	0	0	0
58237	0	0	0	0	0	7.946636	-4.425634	-4.043342	0.194243	0.173117	-0.292710	-0.596680	0.385010	0.715332	0.205950	-0.832086	0.055718	-0.511969	-134.359097	-56.001786	-32.885333	0.469566	-0.303605	0.829055	0.118156	-0.908960	-0.399789	0.874956	0.285685	-0.390943	0	0	0
58238	0	0	0	0	0	7.997942	-4.338217	-4.020197	0.178098	0.189743	-0.312009	-0.596680	0.393799	0.713623	0.205831	-0.831510	0.054164	-0.513119	-134.329750	-56.204654	-32.799285	0.467551	-0.301308	0.831030	0.121156	-0.909399	-0.397887	0.875624	0.286717	-0.388685	0	0	0
58239	0	0	0	0	0	7.939290	-4.343150	-4.058300	0.168611	0.189951	-0.338179	-0.596436	0.390137	0.704346	0.205594	-0.830946	0.052538	-0.514295	-134.322330	-56.418448	-32.695683	0.465482	-0.298784	0.833099	0.124160	-0.909941	-0.395716	0.876305	0.287636	-0.386464	0	0	0
58240	0	0	0	0	0	8.000959	-4.338551	-4.060485	0.176066	0.192395	-0.363231	-0.599365	0.393066	0.701660	0.205333	-0.830372	0.050778	-0.515502	-134.324572	-56.643391	-32.573589	0.463358	-0.296029	0.835265	0.127370	-0.910520	-0.393358	0.876970	0.288653	-0.384191	0	0	0
58241	0	0	0	0	0	8.167038	-4.468014	-3.907224	0.184197	0.196432	-0.386999	-0.598877	0.388672	0.705322	0.205033	-0.829780	0.048914	-0.516753	-134.335400	-56.879716	-32.437743	0.461147	-0.293079	0.837525	0.130727	-0.911138	-0.390818	0.877641	0.289712	-0.381855	0	0	0
58242	0	0	0	0	0	8.147852	-4.416445	-3.825039	0.207617	0.206616	-0.406267	-0.608154	0.382324	0.709473	0.204786	-0.829138	0.046908	-0.518067	-134.339063	-57.127973	-32.293059	0.458813	-0.289972	0.839885	0.134398	-0.911725	-0.388194	0.878309	0.290988	-0.379340	0	0	0
58243	0	0	0	0	0	8.185386	-4.211156	-3.800574	0.210896	0.214284	-0.432135	-0.611572	0.395264	0.701660	0.204471	-0.828473	0.044807	-0.519438	-134.353732	-57.389944	-32.135517	0.456352	-0.286664	0.842358	0.138177	-0.912368	-0.385347	0.879005	0.292249	-0.376751	0	0	0
58244	0	0	0	0	0	8.065530	-4.164942	-3.825917	0.201354	0.213022	-0.453200	-0.602783	0.387207	0.701172	0.204072	-0.827820	0.042629	-0.520818	-134.389090	-57.659943	-31.958360	0.453863	-0.283147	0.844888	0.141990	-0.913075	-0.382274	0.879686	0.293465	-0.374207	0	0	0
58245	0	0	0	0	0	8.181226	-3.986663	-3.851892	0.171710	0.218864	-0.480397	-0.616699	0.382813	0.700684	0.203468	-0.827182	0.040433	-0.522241	-134.457203	-57.943313	-31.764820	0.451259	-0.279409	0.847523	0.145628	-0.913932	-0.378841	0.880430	0.294379	-0.371730	0	0	0
58246	0	0	0	0	0	8.318971	-3.921279	-3.816162	0.158510	0.234244	-0.500598	-0.627197	0.381836	0.696777	0.202760	-0.826515	0.038191	-0.523739	-134.538023	-58.240995	-31.564128	0.448477	-0.275518	0.850270	0.149255	-0.914860	-0.375173	0.881244	0.295164	-0.369171	0	0	0
58247	0	0	0	0	0	8.202477	-4.067646	-3.813684	0.110676	0.241783	-0.519488	-0.625977	0.374756	0.693604	0.201792	-0.825873	0.036017	-0.525277	-134.656858	-58.549256	-31.353627	0.445573	-0.271484	0.853089	0.152503	-0.915966	-0.371147	0.882161	0.295471	-0.366728	0	0	0
58248	0	0	0	0	0	8.166721	-3.987377	-4.224115	0.125353	0.244557	-0.543178	-0.625000	0.379639	0.701660	0.200830	-0.825206	0.033696	-0.526846	-134.784072	-58.868016	-31.122199	0.442596	-0.267225	0.855979	0.156000	-0.917064	-0.366957	0.883047	0.295947	-0.364202	0	0	0
58249	0	0	0	0	0	8.403967	-4.031178	-3.552977	0.154239	0.237956	-0.574680	-0.625488	0.373047	0.691406	0.199893	-0.824525	0.031175	-0.528421	-134.924604	-59.196622	-30.858755	0.439599	-0.262665	0.858930	0.159846	-0.918142	-0.362581	0.883856	0.296687	-0.361628	0	0	0
58250	0	0	0	0	0	8.477701	-4.167383	-3.494214	0.150415	0.243957	-0.591710	-0.626709	0.369385	0.683594	0.198903	-0.823826	0.028587	-0.530029	-135.078919	-59.534207	-30.580729	0.436504	-0.257949	0.861932	0.163747	-0.919241	-0.358026	0.884676	0.297419	-0.359013	0	0	0
58251	0	0	0	0	0	8.473745	-4.076088	-3.507849	0.202143	0.261402	-0.611430	-0.633057	0.377197	0.687744	0.198059	-0.823023	0.025810	-0.531733	-135.210313	-59.886458	-30.297802	0.433188	-0.253113	0.865033	0.168145	-0.920213	-0.353462	0.885480	0.298566	-0.356066	0	0	0
58252	0	0	0	0	0	8.374639	-3.884845	-3.593109	0.199730	0.272394	-0.637466	-0.639648	0.371338	0.687256	0.197141	-0.822186	0.022930	-0.533498	-135.358560	-60.253364	-29.996163	0.429709	-0.248054	0.868228	0.172644	-0.921219	-0.348640	0.886310	0.299708	-0.353031	0	0	0
58253	0	0	0	0	0	8.407201	-3.763795	-3.662492	0.213257	0.272987	-0.665111	-0.637451	0.373291	0.684082	0.196195	-0.821326	0.019912	-0.535289	-135.524489	-60.631124	-29.668110	0.426139	-0.242751	0.871480	0.177333	-0.922222	-0.343598	0.887107	0.300962	-0.349947	0	0	0
