// General information: 
//  MT Manager version: 2022.2.0 
//  XDA version: 2022.2.0 build 7381 rev 124627 built on 2023-07-19
// Device information: 
//  DeviceId: 10B426EE
//  ProductCode: MTW2-3A7G6
//  Firmware Version: 4.14.0
//  Hardware Version: 3.0.0
// Device settings: 
//  Filter Profile: human(46.1)
//  Option Flags: Orientation Smoother Disabled, Position/Velocity Smoother Disabled, Continuous Zero Rotation Update Disabled, AHS Disabled, ICC Disabled
// Coordinate system: ENU
PacketCounter	SampleTimeFine	Year	Month	Day	Second	Acc_X	Acc_Y	Acc_Z	Gyr_X	Gyr_Y	Gyr_Z	Mag_X	Mag_Y	Mag_Z	Quat_q0	Quat_q1	Quat_q2	Quat_q3	Roll	Pitch	Yaw	Mat[1][1]	Mat[2][1]	Mat[3][1]	Mat[1][2]	Mat[2][2]	Mat[3][2]	Mat[1][3]	Mat[2][3]	Mat[3][3]	Vel_E	Vel_N	Vel_U
57802	0	0	0	0	0	4.397198	-2.730568	8.342667	-0.000352	0.003424	0.004208	-0.515381	-0.225098	-0.765381	0.035865	-0.237690	0.136711	-0.961003	-18.228336	-26.553662	-171.389597	-0.884434	-0.133922	0.447036	0.003943	-0.960048	-0.279809	0.466648	-0.245710	0.849627	0	0	0
57803	0	0	0	0	0	4.411189	-2.760451	8.353375	-0.001352	-0.000290	0.006423	-0.513184	-0.234131	-0.766357	0.035871	-0.237695	0.136726	-0.961000	-18.230507	-26.554033	-171.388318	-0.884428	-0.133942	0.447042	0.003945	-0.960039	-0.279840	0.466659	-0.245735	0.849614	0	0	0
57804	0	0	0	0	0	4.378715	-2.723474	8.387594	0.005077	0.002522	0.004247	-0.515137	-0.233154	-0.764893	0.035873	-0.237688	0.136708	-0.961004	-18.228210	-26.553245	-171.388711	-0.884435	-0.133937	0.447029	0.003961	-0.960048	-0.279808	0.466646	-0.245701	0.849631	0	0	0
57805	0	0	0	0	0	4.389229	-2.754263	8.343896	-0.001717	0.000045	0.002990	-0.512451	-0.234863	-0.766846	0.035862	-0.237694	0.136721	-0.961001	-18.229626	-26.554050	-171.389588	-0.884431	-0.133922	0.447042	0.003931	-0.960042	-0.279827	0.466654	-0.245731	0.849618	0	0	0
57806	0	0	0	0	0	4.396212	-2.731198	8.342980	0.002095	0.002709	0.008085	-0.518066	-0.234131	-0.771240	0.035876	-0.237683	0.136723	-0.961003	-18.229970	-26.552482	-171.388049	-0.884440	-0.133948	0.447017	0.003961	-0.960040	-0.279836	0.466638	-0.245727	0.849628	0	0	0
57807	0	0	0	0	0	4.417467	-2.737638	8.352749	0.000365	-0.000335	0.003434	-0.514648	-0.233154	-0.758057	0.035870	-0.237690	0.136726	-0.961001	-18.230348	-26.553415	-171.388579	-0.884434	-0.133938	0.447032	0.003945	-0.960039	-0.279839	0.466649	-0.245736	0.849619	0	0	0
57808	0	0	0	0	0	4.410023	-2.761170	8.353753	-0.000261	0.001280	0.007679	-0.510010	-0.231689	-0.762939	0.035889	-0.237688	0.136736	-0.960999	-18.232074	-26.552741	-171.385983	-0.884433	-0.133979	0.447021	0.003978	-0.960031	-0.279867	0.466651	-0.245745	0.849616	0	0	0
57809	0	0	0	0	0	4.384564	-2.777355	8.399515	-0.001352	-0.000290	0.006424	-0.510254	-0.233887	-0.763916	0.035895	-0.237693	0.136751	-0.960996	-18.234245	-26.553113	-171.384703	-0.884427	-0.133999	0.447027	0.003979	-0.960022	-0.279898	0.466662	-0.245770	0.849602	0	0	0
57810	0	0	0	0	0	4.380785	-2.778924	8.345051	-0.000261	0.001280	0.007679	-0.502441	-0.234863	-0.761963	0.035900	-0.237689	0.136764	-0.960995	-18.235957	-26.552367	-171.383784	-0.884431	-0.134014	0.447016	0.003985	-0.960014	-0.279925	0.466655	-0.245793	0.849599	0	0	0
57811	0	0	0	0	0	4.393059	-2.781630	8.377204	0.001906	0.001331	0.002548	-0.519043	-0.230469	-0.766846	0.035890	-0.237688	0.136759	-0.960996	-18.235062	-26.552552	-171.385187	-0.884432	-0.133992	0.447018	0.003967	-0.960018	-0.279911	0.466651	-0.245789	0.849602	0	0	0
57812	0	0	0	0	0	4.409245	-2.762045	8.353874	0.003802	-0.003001	0.006500	-0.510986	-0.236084	-0.765381	0.035897	-0.237704	0.136751	-0.960993	-18.234516	-26.554345	-171.384090	-0.884416	-0.134007	0.447046	0.003982	-0.960021	-0.279899	0.466682	-0.245767	0.849592	0	0	0
57813	0	0	0	0	0	4.400003	-2.758451	8.376351	-0.001342	0.005373	0.005019	-0.514404	-0.229004	-0.767334	0.035892	-0.237683	0.136765	-0.960996	-18.235792	-26.551887	-171.384800	-0.884437	-0.133998	0.447008	0.003971	-0.960014	-0.279924	0.466643	-0.245800	0.849604	0	0	0
57814	0	0	0	0	0	4.408555	-2.762178	8.354194	0.005528	0.002616	0.002106	-0.509766	-0.235107	-0.760986	0.035879	-0.237676	0.136744	-0.961002	-18.232578	-26.551417	-171.387233	-0.884446	-0.133961	0.447001	0.003959	-0.960028	-0.279877	0.466626	-0.245767	0.849623	0	0	0
57815	0	0	0	0	0	4.395928	-2.759428	8.322241	0.003801	-0.003002	0.006500	-0.509766	-0.231934	-0.766602	0.035893	-0.237693	0.136734	-0.960998	-18.232060	-26.553251	-171.385364	-0.884427	-0.133988	0.447029	0.003986	-0.960031	-0.279865	0.466661	-0.245739	0.849612	0	0	0
57816	0	0	0	0	0	4.406667	-2.734897	8.375767	0.002721	0.001092	0.003840	-0.514160	-0.236816	-0.767334	0.035882	-0.237691	0.136728	-0.961000	-18.231021	-26.553292	-171.386915	-0.884431	-0.133964	0.447030	0.003968	-0.960036	-0.279850	0.466655	-0.245734	0.849617	0	0	0
57817	0	0	0	0	0	4.399209	-2.758043	8.376902	0.005618	0.000472	0.005577	-0.507568	-0.228271	-0.770264	0.035892	-0.237692	0.136709	-0.961002	-18.228900	-26.553401	-171.386304	-0.884428	-0.133973	0.447032	0.003995	-0.960045	-0.279818	0.466659	-0.245693	0.849626	0	0	0
57818	0	0	0	0	0	4.393738	-2.732137	8.343976	0.001455	0.001234	0.004689	-0.518066	-0.234375	-0.768799	0.035879	-0.237688	0.136712	-0.961003	-18.228847	-26.553174	-171.387855	-0.884434	-0.133950	0.447028	0.003970	-0.960045	-0.279818	0.466649	-0.245705	0.849628	0	0	0
57819	0	0	0	0	0	4.406132	-2.734633	8.376135	0.004527	-0.001097	0.004322	-0.509521	-0.230957	-0.757813	0.035882	-0.237698	0.136696	-0.961003	-18.227151	-26.554362	-171.387693	-0.884424	-0.133951	0.447047	0.003981	-0.960053	-0.279790	0.466667	-0.245673	0.849628	0	0	0
57820	0	0	0	0	0	4.407703	-2.761693	8.354805	0.000189	0.001376	0.005538	-0.507568	-0.235596	-0.759521	0.035888	-0.237696	0.136702	-0.961002	-18.228034	-26.553999	-171.386866	-0.884425	-0.133964	0.447041	0.003990	-0.960049	-0.279804	0.466665	-0.245682	0.849626	0	0	0
57821	0	0	0	0	0	4.398542	-2.758191	8.377203	-0.001717	0.000046	0.002990	-0.515381	-0.232910	-0.760742	0.035876	-0.237702	0.136715	-0.960999	-18.229450	-26.554804	-171.387743	-0.884421	-0.133950	0.447054	0.003959	-0.960044	-0.279823	0.466673	-0.245711	0.849613	0	0	0
57822	0	0	0	0	0	4.436133	-2.745136	8.363544	0.002270	0.000995	0.005982	-0.518555	-0.232178	-0.762207	0.035885	-0.237701	0.136712	-0.961000	-18.229242	-26.554576	-171.386818	-0.884421	-0.133964	0.447050	0.003978	-0.960044	-0.279820	0.466674	-0.245700	0.849616	0	0	0
57823	0	0	0	0	0	4.383906	-2.728860	8.366654	0.000640	0.001473	0.003397	-0.517334	-0.228027	-0.763184	0.035877	-0.237700	0.136714	-0.961000	-18.229290	-26.554531	-171.387734	-0.884423	-0.133950	0.447049	0.003962	-0.960044	-0.279821	0.466669	-0.245709	0.849616	0	0	0
57824	0	0	0	0	0	4.397974	-2.758624	8.377359	-0.000086	-0.000432	0.005575	-0.512451	-0.232666	-0.759521	0.035897	-0.237709	0.136719	-0.960996	-18.230575	-26.555195	-171.384994	-0.884412	-0.133992	0.447060	0.003994	-0.960039	-0.279838	0.466691	-0.245706	0.849605	0	0	0
57825	0	0	0	0	0	4.435457	-2.745705	8.363716	-0.001616	0.003565	0.005056	-0.512695	-0.223389	-0.765625	0.035893	-0.237697	0.136734	-0.960997	-18.232180	-26.553714	-171.385319	-0.884424	-0.133988	0.447037	0.003983	-0.960031	-0.279866	0.466668	-0.245739	0.849608	0	0	0
57826	0	0	0	0	0	4.377560	-2.779877	8.346425	0.002270	0.000994	0.005982	-0.509766	-0.235352	-0.766113	0.035903	-0.237696	0.136732	-0.960997	-18.232114	-26.553452	-171.384173	-0.884423	-0.134006	0.447033	0.004004	-0.960031	-0.279865	0.466669	-0.245729	0.849610	0	0	0
57827	0	0	0	0	0	4.391811	-2.733304	8.344608	0.002997	0.002899	0.003803	-0.510254	-0.230469	-0.769043	0.035899	-0.237687	0.136723	-0.961001	-18.230795	-26.552558	-171.385127	-0.884432	-0.133993	0.447019	0.004003	-0.960036	-0.279848	0.466651	-0.245717	0.849623	0	0	0
57828	0	0	0	0	0	4.384363	-2.756673	8.345659	0.001268	-0.002719	0.008198	-0.511963	-0.237305	-0.759277	0.035905	-0.237700	0.136731	-0.960997	-18.232139	-26.553855	-171.383865	-0.884419	-0.134011	0.447039	0.004007	-0.960031	-0.279865	0.466676	-0.245726	0.849607	0	0	0
57829	0	0	0	0	0	4.405673	-2.763222	8.355369	-0.001165	0.003662	0.002915	-0.520020	-0.231934	-0.770752	0.035891	-0.237688	0.136742	-0.960998	-18.232895	-26.552705	-171.385512	-0.884432	-0.133987	0.447021	0.003979	-0.960027	-0.279879	0.466652	-0.245755	0.849612	0	0	0
57830	0	0	0	0	0	4.403465	-2.736449	8.376945	0.000290	0.004895	0.007604	-0.510498	-0.236328	-0.767822	0.035906	-0.237669	0.136750	-0.961001	-18.233938	-26.550076	-171.383910	-0.884449	-0.134014	0.446980	0.004010	-0.960021	-0.279901	0.466621	-0.245765	0.849626	0	0	0
57831	0	0	0	0	0	4.383383	-2.757478	8.345907	-0.001178	-0.002002	0.004320	-0.511475	-0.227539	-0.768555	0.035903	-0.237684	0.136761	-0.960996	-18.235591	-26.551757	-171.383568	-0.884435	-0.134018	0.447006	0.003994	-0.960015	-0.279921	0.466647	-0.245787	0.849606	0	0	0
57832	0	0	0	0	0	4.404775	-2.764049	8.355570	0.000189	0.001375	0.005538	-0.512451	-0.231689	-0.763672	0.035894	-0.237679	0.136771	-0.960996	-18.236490	-26.551306	-171.384481	-0.884440	-0.134004	0.446999	0.003974	-0.960011	-0.279935	0.466636	-0.245810	0.849605	0	0	0
57833	0	0	0	0	0	4.411872	-2.741013	8.354598	-0.000902	-0.000194	0.004283	-0.506104	-0.236084	-0.763428	0.035890	-0.237685	0.136781	-0.960993	-18.237812	-26.552009	-171.384524	-0.884435	-0.134003	0.447010	0.003959	-0.960005	-0.279953	0.466646	-0.245831	0.849593	0	0	0
57834	0	0	0	0	0	4.391963	-2.761998	8.323482	-0.000087	-0.000433	0.005576	-0.516602	-0.228760	-0.759277	0.035884	-0.237690	0.136791	-0.960991	-18.238975	-26.552568	-171.384846	-0.884431	-0.133997	0.447019	0.003941	-0.960001	-0.279969	0.466653	-0.245852	0.849583	0	0	0
57835	0	0	0	0	0	4.433172	-2.747776	8.364247	0.000364	-0.000336	0.003434	-0.512207	-0.224609	-0.765381	0.035878	-0.237697	0.136795	-0.960989	-18.239354	-26.553501	-171.385376	-0.884426	-0.133988	0.447033	0.003925	-0.960000	-0.279973	0.466665	-0.245860	0.849574	0	0	0
57836	0	0	0	0	0	4.382720	-2.758597	8.345886	0.000189	0.001375	0.005538	-0.511963	-0.234131	-0.768555	0.035890	-0.237697	0.136800	-0.960988	-18.240360	-26.553137	-171.383762	-0.884425	-0.134013	0.447028	0.003945	-0.959995	-0.279988	0.466666	-0.245865	0.849572	0	0	0
57837	0	0	0	0	0	4.391511	-2.762598	8.323521	-0.000087	-0.000433	0.005576	-0.518799	-0.229736	-0.766602	0.035893	-0.237703	0.136808	-0.960985	-18.241589	-26.553739	-171.382970	-0.884418	-0.134025	0.447037	0.003946	-0.959990	-0.280005	0.466679	-0.245878	0.849562	0	0	0
57838	0	0	0	0	0	4.402063	-2.738341	8.377063	0.000465	0.003182	0.005501	-0.517822	-0.232178	-0.769043	0.035895	-0.237692	0.136814	-0.960987	-18.242173	-26.552377	-171.382790	-0.884428	-0.134029	0.447016	0.003951	-0.959987	-0.280017	0.466660	-0.245889	0.849569	0	0	0
57839	0	0	0	0	0	4.412475	-2.769374	8.333342	-0.000087	-0.000434	0.005576	-0.513916	-0.226563	-0.762939	0.035898	-0.237698	0.136822	-0.960984	-18.243401	-26.552979	-171.381998	-0.884422	-0.134040	0.447025	0.003951	-0.959982	-0.280034	0.466672	-0.245902	0.849558	0	0	0
57840	0	0	0	0	0	4.381825	-2.759463	8.346069	0.000640	0.001471	0.003397	-0.512207	-0.224854	-0.768555	0.035897	-0.237698	0.136823	-0.960984	-18.243517	-26.552940	-171.382140	-0.884422	-0.134038	0.447025	0.003948	-0.959981	-0.280036	0.466671	-0.245905	0.849558	0	0	0
57841	0	0	0	0	0	4.386898	-2.785403	8.379179	0.001179	-0.000576	0.004727	-0.509277	-0.234863	-0.760742	0.035898	-0.237705	0.136824	-0.960982	-18.243802	-26.553771	-171.381835	-0.884415	-0.134042	0.447037	0.003947	-0.959981	-0.280038	0.466684	-0.245906	0.849551	0	0	0
57842	0	0	0	0	0	4.403052	-2.765842	8.355884	0.003987	0.000946	0.002992	-0.514893	-0.233398	-0.758789	0.035887	-0.237705	0.136812	-0.960984	-18.241896	-26.554036	-171.383536	-0.884417	-0.134015	0.447042	0.003932	-0.959989	-0.280009	0.466681	-0.245887	0.849558	0	0	0
57843	0	0	0	0	0	4.402712	-2.765765	8.356089	0.001193	0.005087	0.003322	-0.512451	-0.238525	-0.768555	0.035877	-0.237686	0.136812	-0.960989	-18.241284	-26.552038	-171.385222	-0.884436	-0.133992	0.447010	0.003919	-0.959991	-0.280005	0.466644	-0.245895	0.849576	0	0	0
57844	0	0	0	0	0	4.386210	-2.785284	8.379578	0.003798	-0.003007	0.006502	-0.512207	-0.231689	-0.767578	0.035892	-0.237704	0.136801	-0.960986	-18.240674	-26.553899	-171.383270	-0.884418	-0.134020	0.447039	0.003947	-0.959994	-0.279991	0.466680	-0.245865	0.849565	0	0	0
57845	0	0	0	0	0	4.418647	-2.746217	8.332907	0.001368	0.003376	0.001218	-0.513428	-0.236572	-0.769043	0.035873	-0.237694	0.136798	-0.960990	-18.239543	-26.553209	-171.385893	-0.884429	-0.133980	0.447029	0.003916	-0.959999	-0.279976	0.466658	-0.245868	0.849576	0	0	0
57846	0	0	0	0	0	4.402170	-2.765669	8.356406	0.004074	-0.001199	0.006464	-0.519287	-0.228271	-0.760010	0.035879	-0.237702	0.136788	-0.960989	-18.238656	-26.554026	-171.385347	-0.884421	-0.133988	0.447041	0.003928	-0.960003	-0.279961	0.466673	-0.245847	0.849574	0	0	0
57847	0	0	0	0	0	4.409237	-2.742394	8.355536	0.001732	0.003039	0.004652	-0.509766	-0.231201	-0.758789	0.035877	-0.237691	0.136787	-0.960992	-18.238281	-26.552903	-171.385813	-0.884431	-0.133982	0.447024	0.003929	-0.960004	-0.279958	0.466654	-0.245847	0.849584	0	0	0
57848	0	0	0	0	0	4.392657	-2.761895	8.379071	0.003536	0.000848	0.005134	-0.509033	-0.229980	-0.759766	0.035895	-0.237694	0.136775	-0.960992	-18.237231	-26.552943	-171.383949	-0.884427	-0.134010	0.447025	0.003969	-0.960009	-0.279942	0.466663	-0.245814	0.849589	0	0	0
57849	0	0	0	0	0	4.387177	-2.735908	8.346192	0.005079	0.002513	0.004248	-0.510010	-0.229248	-0.760498	0.035896	-0.237686	0.136757	-0.960997	-18.234875	-26.552179	-171.384555	-0.884434	-0.134002	0.447013	0.003981	-0.960018	-0.279909	0.466649	-0.245782	0.849606	0	0	0
57850	0	0	0	0	0	4.413527	-2.767896	8.389201	0.004627	0.002416	0.006389	-0.512451	-0.228027	-0.768066	0.035905	-0.237677	0.136744	-0.961000	-18.233382	-26.551063	-171.384005	-0.884441	-0.134012	0.446995	0.004008	-0.960024	-0.279890	0.466635	-0.245755	0.849622	0	0	0
57851	0	0	0	0	0	4.408008	-2.742050	8.356298	0.002270	0.000991	0.005983	-0.519287	-0.231934	-0.762207	0.035912	-0.237676	0.136742	-0.961001	-18.233244	-26.550817	-171.383251	-0.884441	-0.134024	0.446991	0.004023	-0.960024	-0.279889	0.466634	-0.245747	0.849624	0	0	0
57852	0	0	0	0	0	4.407786	-2.742058	8.356412	0.002721	0.001088	0.003841	-0.516113	-0.232178	-0.768555	0.035917	-0.237677	0.136733	-0.961002	-18.232309	-26.550917	-171.382903	-0.884440	-0.134029	0.446993	0.004036	-0.960028	-0.279874	0.466637	-0.245728	0.849628	0	0	0
57853	0	0	0	0	0	4.392889	-2.788525	8.358580	0.004627	0.002415	0.006390	-0.516113	-0.228027	-0.763916	0.035928	-0.237668	0.136720	-0.961005	-18.230803	-26.549823	-171.382187	-0.884446	-0.134041	0.446976	0.004066	-0.960034	-0.279855	0.466624	-0.245699	0.849643	0	0	0
57854	0	0	0	0	0	4.407288	-2.741907	8.356724	0.002444	-0.000720	0.003879	-0.502930	-0.231445	-0.759766	0.035932	-0.237677	0.136713	-0.961004	-18.230202	-26.550893	-171.381602	-0.884437	-0.134049	0.446993	0.004075	-0.960037	-0.279843	0.466642	-0.245682	0.849638	0	0	0
57855	0	0	0	0	0	4.421296	-2.771301	8.367581	0.007160	0.002129	0.004693	-0.519775	-0.229980	-0.763672	0.035938	-0.237671	0.136685	-0.961009	-18.226809	-26.550259	-171.381860	-0.884442	-0.134046	0.446983	0.004101	-0.960051	-0.279794	0.466631	-0.245629	0.849660	0	0	0
57856	0	0	0	0	0	4.390578	-2.760801	8.380521	0.007697	0.000081	0.006024	-0.517578	-0.228027	-0.770752	0.035953	-0.237673	0.136657	-0.961012	-18.223657	-26.550492	-171.380876	-0.884438	-0.134061	0.446986	0.004142	-0.960065	-0.279747	0.466639	-0.245567	0.849673	0	0	0
57857	0	0	0	0	0	4.406633	-2.740925	8.357392	0.007160	0.002128	0.004693	-0.516846	-0.231934	-0.766113	0.035958	-0.237666	0.136629	-0.961017	-18.220264	-26.549858	-171.381134	-0.884444	-0.134057	0.446976	0.004169	-0.960079	-0.279698	0.466628	-0.245514	0.849695	0	0	0
57858	0	0	0	0	0	4.415405	-2.744261	8.335270	0.008148	0.000177	0.003882	-0.511230	-0.229004	-0.764893	0.035969	-0.237670	0.136595	-0.961021	-18.216333	-26.550430	-171.380788	-0.884439	-0.134062	0.446985	0.004204	-0.960096	-0.279639	0.466638	-0.245444	0.849710	0	0	0
57859	0	0	0	0	0	4.384800	-2.733625	8.348189	0.008963	-0.000064	0.005176	-0.511719	-0.240479	-0.763184	0.035980	-0.237673	0.136559	-0.961025	-18.212234	-26.550903	-171.380314	-0.884434	-0.134069	0.446993	0.004243	-0.960114	-0.279577	0.466646	-0.245371	0.849726	0	0	0
57860	0	0	0	0	0	4.391489	-2.785825	8.360216	0.011772	0.001456	0.003441	-0.510010	-0.231201	-0.764404	0.035981	-0.237669	0.136509	-0.961033	-18.205843	-26.550842	-171.381849	-0.884438	-0.134045	0.446992	0.004270	-0.960141	-0.279482	0.466639	-0.245276	0.849758	0	0	0
57861	0	0	0	0	0	4.414754	-2.742529	8.336185	0.005356	0.004318	0.004210	-0.520508	-0.231445	-0.773193	0.035981	-0.237652	0.136490	-0.961040	-18.203156	-26.549102	-171.382839	-0.884454	-0.134032	0.446965	0.004283	-0.960152	-0.279447	0.466609	-0.245243	0.849784	0	0	0
57862	0	0	0	0	0	4.367707	-2.751341	8.372571	0.011495	-0.000352	0.003479	-0.511963	-0.233154	-0.764160	0.035987	-0.237657	0.136441	-0.961045	-18.197213	-26.550008	-171.383424	-0.884448	-0.134022	0.446979	0.004317	-0.960178	-0.279356	0.466619	-0.245146	0.849806	0	0	0
57863	0	0	0	0	0	4.398039	-2.760733	8.360213	0.008877	0.002079	0.001703	-0.513428	-0.235107	-0.760986	0.035980	-0.237653	0.136401	-0.961052	-18.192028	-26.549935	-171.385491	-0.884453	-0.133990	0.446978	0.004325	-0.960200	-0.279279	0.466609	-0.245076	0.849832	0	0	0
57864	0	0	0	0	0	4.405144	-2.736719	8.359555	0.010958	0.001694	0.002148	-0.523438	-0.229248	-0.769775	0.035980	-0.237649	0.136352	-0.961060	-18.185751	-26.550005	-171.387114	-0.884457	-0.133965	0.446979	0.004349	-0.960227	-0.279186	0.466602	-0.244984	0.849862	0	0	0
57865	0	0	0	0	0	4.397627	-2.759167	8.360946	0.010957	0.001694	0.002148	-0.509277	-0.230957	-0.769287	0.035978	-0.237646	0.136303	-0.961068	-18.179529	-26.550063	-171.388833	-0.884460	-0.133938	0.446980	0.004371	-0.960254	-0.279094	0.466595	-0.244894	0.849892	0	0	0
57866	0	0	0	0	0	4.395813	-2.731354	8.382624	0.009414	0.000030	0.003035	-0.509766	-0.228516	-0.764404	0.035982	-0.237650	0.136263	-0.961072	-18.174666	-26.550840	-171.389443	-0.884456	-0.133928	0.446992	0.004396	-0.960275	-0.279020	0.466604	-0.244815	0.849910	0	0	0
57867	0	0	0	0	0	4.465651	-2.754694	8.335201	0.013938	-0.001074	0.007360	-0.516357	-0.233154	-0.765625	0.036011	-0.237656	0.136206	-0.961078	-18.168401	-26.551472	-171.387437	-0.884446	-0.133958	0.447002	0.004478	-0.960302	-0.278925	0.466621	-0.244693	0.849935	0	0	0
57868	0	0	0	0	0	4.307924	-2.677899	8.365632	-0.001440	0.001856	0.002951	-0.515869	-0.239502	-0.760254	0.035998	-0.237653	0.136218	-0.961077	-18.169524	-26.551275	-171.388737	-0.884451	-0.133938	0.446999	0.004448	-0.960298	-0.278942	0.466613	-0.244723	0.849931	0	0	0
57869	0	0	0	0	0	4.407556	-2.788350	8.318160	0.004627	0.002414	0.006389	-0.514893	-0.239746	-0.766113	0.036008	-0.237644	0.136205	-0.961081	-18.168019	-26.550182	-171.388019	-0.884457	-0.133951	0.446981	0.004477	-0.960303	-0.278923	0.466600	-0.244694	0.849947	0	0	0
57870	0	0	0	0	0	4.418296	-2.763514	8.371740	0.006778	-0.003201	0.002668	-0.507324	-0.229492	-0.769775	0.036012	-0.237666	0.136174	-0.961080	-18.164612	-26.552876	-171.387925	-0.884436	-0.133949	0.447024	0.004494	-0.960320	-0.278866	0.466639	-0.244630	0.849943	0	0	0
57871	0	0	0	0	0	4.404036	-2.733336	8.361245	0.009969	0.003643	0.002958	-0.511230	-0.230713	-0.773682	0.036012	-0.237652	0.136131	-0.961089	-18.159003	-26.551727	-171.389541	-0.884449	-0.133925	0.447006	0.004518	-0.960343	-0.278785	0.466615	-0.244552	0.849979	0	0	0
57872	0	0	0	0	0	4.396432	-2.756146	8.362571	0.004801	0.000702	0.004287	-0.514648	-0.238281	-0.767822	0.035992	-0.237649	0.136121	-0.961092	-18.157043	-26.551787	-171.392351	-0.884455	-0.133882	0.447007	0.004486	-0.960351	-0.278756	0.466604	-0.244542	0.849988	0	0	0
57873	0	0	0	0	0	4.405242	-2.759751	8.340358	0.004801	0.000702	0.004287	-0.515381	-0.242676	-0.768555	0.035995	-0.237650	0.136104	-0.961095	-18.155019	-26.552002	-171.392572	-0.884454	-0.133878	0.447010	0.004498	-0.960360	-0.278725	0.466606	-0.244509	0.849997	0	0	0
57874	0	0	0	0	0	4.403288	-2.732285	8.361983	0.007889	0.004027	0.002512	-0.519531	-0.229492	-0.766846	0.035984	-0.237635	0.136071	-0.961103	-18.150290	-26.550733	-171.395202	-0.884470	-0.133839	0.446990	0.004499	-0.960380	-0.278658	0.466576	-0.244454	0.850029	0	0	0
57875	0	0	0	0	0	4.374203	-2.748848	8.353568	0.003172	0.001182	0.001700	-0.512207	-0.235840	-0.766113	0.035971	-0.237635	0.136059	-0.961105	-18.148453	-26.551148	-171.397092	-0.884471	-0.133810	0.446997	0.004480	-0.960388	-0.278630	0.466574	-0.244438	0.850035	0	0	0
57876	0	0	0	0	0	4.415474	-2.734316	8.394391	0.003794	-0.003008	0.006507	-0.514160	-0.235840	-0.761719	0.035990	-0.237653	0.136048	-0.961102	-18.147966	-26.552995	-171.394660	-0.884451	-0.133845	0.447025	0.004516	-0.960391	-0.278618	0.466611	-0.244406	0.850024	0	0	0
57877	0	0	0	0	0	4.404401	-2.758891	8.341087	0.002825	0.004606	0.005905	-0.510254	-0.235840	-0.768799	0.035995	-0.237635	0.136043	-0.961107	-18.147166	-26.550796	-171.394674	-0.884468	-0.133847	0.446991	0.004533	-0.960393	-0.278612	0.466579	-0.244397	0.850044	0	0	0
57878	0	0	0	0	0	4.402295	-2.731771	8.362674	0.002998	0.002894	0.003802	-0.511230	-0.230713	-0.768555	0.035986	-0.237625	0.136036	-0.961111	-18.145778	-26.549885	-171.396302	-0.884479	-0.133823	0.446977	0.004521	-0.960398	-0.278593	0.466558	-0.244389	0.850057	0	0	0
57879	0	0	0	0	0	4.385737	-2.751289	8.386182	0.000725	-0.000671	0.006870	-0.504883	-0.230713	-0.766113	0.035996	-0.237631	0.136042	-0.961108	-18.146914	-26.550386	-171.394676	-0.884471	-0.133848	0.446985	0.004537	-0.960394	-0.278609	0.466573	-0.244394	0.850048	0	0	0
57880	0	0	0	0	0	4.403532	-2.759105	8.341475	0.001455	0.001232	0.004690	-0.507568	-0.236572	-0.764893	0.035978	-0.237627	0.136046	-0.961109	-18.146906	-26.550120	-171.396826	-0.884478	-0.133815	0.446980	0.004502	-0.960394	-0.278610	0.466559	-0.244412	0.850050	0	0	0
57881	0	0	0	0	0	4.410624	-2.735921	8.340541	0.002269	0.000991	0.005983	-0.511719	-0.233643	-0.771729	0.035985	-0.237625	0.136044	-0.961109	-18.146768	-26.549875	-171.396071	-0.884479	-0.133827	0.446977	0.004517	-0.960394	-0.278608	0.466559	-0.244404	0.850053	0	0	0
57882	0	0	0	0	0	4.403044	-2.759259	8.341682	0.002269	0.000991	0.005983	-0.506836	-0.231201	-0.773438	0.035975	-0.237621	0.136045	-0.961111	-18.146577	-26.549541	-171.397365	-0.884484	-0.133807	0.446971	0.004498	-0.960395	-0.278606	0.466549	-0.244412	0.850056	0	0	0
57883	0	0	0	0	0	4.388611	-2.729574	8.331109	0.005079	0.002508	0.004248	-0.521973	-0.233398	-0.760742	0.035976	-0.237613	0.136027	-0.961115	-18.144222	-26.548780	-171.397969	-0.884491	-0.133799	0.446960	0.004511	-0.960404	-0.278573	0.466535	-0.244379	0.850073	0	0	0
57884	0	0	0	0	0	4.427580	-2.763996	8.406191	0.002894	-0.000626	0.001739	-0.513428	-0.239014	-0.768066	0.035965	-0.237622	0.136017	-0.961115	-18.142746	-26.550156	-171.399417	-0.884484	-0.133775	0.446981	0.004492	-0.960412	-0.278548	0.466549	-0.244363	0.850070	0	0	0
57885	0	0	0	0	0	4.382795	-2.724093	8.408225	0.002999	0.002893	0.003802	-0.513184	-0.236084	-0.769775	0.035961	-0.237613	0.136009	-0.961118	-18.141427	-26.549264	-171.400369	-0.884493	-0.133761	0.446967	0.004491	-0.960417	-0.278530	0.466531	-0.244351	0.850083	0	0	0
57886	0	0	0	0	0	4.392989	-2.754990	8.364761	0.002825	0.004605	0.005905	-0.506348	-0.225586	-0.767334	0.035957	-0.237593	0.136006	-0.961124	-18.140539	-26.547034	-171.401525	-0.884513	-0.133746	0.446932	0.004490	-0.960419	-0.278523	0.466494	-0.244350	0.850104	0	0	0
57887	0	0	0	0	0	4.385445	-2.778188	8.365928	0.003430	-0.002674	0.003072	-0.517822	-0.231445	-0.771484	0.035954	-0.237611	0.135993	-0.961121	-18.139271	-26.549303	-171.401811	-0.884496	-0.133739	0.446968	0.004485	-0.960426	-0.278498	0.466526	-0.244326	0.850093	0	0	0
57888	0	0	0	0	0	4.415930	-2.788041	8.353373	0.007333	0.000409	0.002591	-0.515381	-0.223389	-0.765137	0.035944	-0.237613	0.135965	-0.961125	-18.135479	-26.549889	-171.403796	-0.884496	-0.133708	0.446977	0.004479	-0.960443	-0.278441	0.466525	-0.244278	0.850107	0	0	0
57889	0	0	0	0	0	4.410632	-2.761703	8.320510	0.007249	0.002551	-0.000883	-0.508789	-0.240967	-0.772949	0.035923	-0.237608	0.135931	-0.961132	-18.130481	-26.550019	-171.407532	-0.884504	-0.133650	0.446979	0.004457	-0.960465	-0.278366	0.466511	-0.244224	0.850131	0	0	0
57890	0	0	0	0	0	4.392561	-2.753030	8.365631	0.012765	0.002064	-0.006417	-0.518311	-0.233398	-0.771729	0.035873	-0.237606	0.135866	-0.961144	-18.120893	-26.551330	-171.415572	-0.884513	-0.133524	0.446999	0.004394	-0.960507	-0.278221	0.466495	-0.244126	0.850167	0	0	0
57891	0	0	0	0	0	4.426422	-2.760646	8.407901	0.010511	0.004161	-0.004760	-0.511230	-0.235596	-0.767334	0.035836	-0.237596	0.135812	-0.961155	-18.112827	-26.551273	-171.421990	-0.884528	-0.133425	0.446998	0.004352	-0.960542	-0.278101	0.466466	-0.244043	0.850207	0	0	0
57892	0	0	0	0	0	4.419566	-2.706644	8.396483	0.011221	0.000401	-0.005529	-0.519043	-0.238525	-0.768066	0.035796	-0.237603	0.135753	-0.961163	-18.104480	-26.553374	-171.428534	-0.884527	-0.133322	0.447031	0.004300	-0.960579	-0.277972	0.466469	-0.243952	0.850232	0	0	0
57893	0	0	0	0	0	4.348754	-2.813374	8.360247	-0.000426	0.008137	-0.008324	-0.516357	-0.237549	-0.769043	0.035726	-0.237577	0.135748	-0.961173	-18.101357	-26.551784	-171.437912	-0.884561	-0.133179	0.447006	0.004176	-0.960592	-0.277930	0.466405	-0.243979	0.850259	0	0	0
57894	0	0	0	0	0	4.406190	-2.778781	8.377942	0.006615	0.003648	-0.013331	-0.508789	-0.228760	-0.765625	0.035647	-0.237577	0.135701	-0.961183	-18.093172	-26.553572	-171.448988	-0.884573	-0.133006	0.447034	0.004048	-0.960629	-0.277804	0.466384	-0.243928	0.850285	0	0	0
57895	0	0	0	0	0	4.379029	-2.821666	8.348342	0.007706	0.005214	-0.012076	-0.514893	-0.227539	-0.766357	0.035571	-0.237566	0.135651	-0.961195	-18.084628	-26.554239	-171.460069	-0.884594	-0.132834	0.447045	0.003929	-0.960667	-0.277676	0.466346	-0.243874	0.850322	0	0	0
57896	0	0	0	0	0	4.402269	-2.853512	8.337247	0.015026	0.002532	-0.017122	-0.509766	-0.230469	-0.764893	0.035482	-0.237571	0.135561	-0.961210	-18.070886	-26.557210	-171.473608	-0.884602	-0.132621	0.447091	0.003800	-0.960728	-0.277464	0.466331	-0.243747	0.850366	0	0	0
57897	0	0	0	0	0	4.466190	-2.690791	8.362643	0.022273	0.005081	-0.018004	-0.512939	-0.238037	-0.761963	0.035394	-0.237563	0.135435	-0.961233	-18.052392	-26.558998	-171.488274	-0.884622	-0.132393	0.447119	0.003696	-0.960809	-0.277186	0.466294	-0.243552	0.850443	0	0	0
57898	0	0	0	0	0	4.383211	-2.737723	8.391940	0.020832	0.006938	-0.015055	-0.514404	-0.238770	-0.767578	0.035318	-0.237544	0.135319	-0.961257	-18.035349	-26.559242	-171.501581	-0.884651	-0.132187	0.447123	0.003610	-0.960883	-0.276932	0.466240	-0.243374	0.850523	0	0	0
57899	0	0	0	0	0	4.435414	-2.675589	8.377046	0.022375	0.008596	-0.015942	-0.510742	-0.239014	-0.763672	0.035238	-0.237517	0.135195	-0.961284	-18.017047	-26.558741	-171.515688	-0.884688	-0.131970	0.447115	0.003525	-0.960961	-0.276662	0.466171	-0.243183	0.850615	0	0	0
57900	0	0	0	0	0	4.412167	-2.639909	8.389354	0.017016	0.001713	-0.011096	-0.525146	-0.235840	-0.769775	0.035176	-0.237521	0.135102	-0.961298	-18.003653	-26.561136	-171.525926	-0.884693	-0.131809	0.447152	0.003451	-0.961020	-0.276457	0.466162	-0.243036	0.850662	0	0	0
57901	0	0	0	0	0	4.377722	-2.705393	8.361091	0.018745	0.004755	-0.006448	-0.511719	-0.235107	-0.770264	0.035141	-0.237507	0.135006	-0.961316	-17.990356	-26.561041	-171.533489	-0.884711	-0.131692	0.447151	0.003432	-0.961077	-0.276260	0.466128	-0.242875	0.850727	0	0	0
57902	0	0	0	0	0	4.450028	-2.623340	8.376712	0.012747	-0.003602	-0.004996	-0.515381	-0.244873	-0.770264	0.035118	-0.237535	0.134938	-0.961320	-17.981673	-26.565270	-171.537538	-0.884687	-0.131625	0.447217	0.003415	-0.961117	-0.276121	0.466172	-0.242753	0.850738	0	0	0
57903	0	0	0	0	0	4.369041	-2.698852	8.384145	0.011130	-0.000026	0.000052	-0.508057	-0.235596	-0.764404	0.035108	-0.237541	0.134886	-0.961326	-17.974932	-26.566630	-171.540196	-0.884683	-0.131582	0.447238	0.003419	-0.961147	-0.276017	0.466181	-0.242659	0.850760	0	0	0
57904	0	0	0	0	0	4.421082	-2.714385	8.381531	0.011667	-0.002072	0.001388	-0.512451	-0.240967	-0.763672	0.035097	-0.237555	0.134833	-0.961330	-17.968326	-26.568847	-171.542732	-0.884672	-0.131541	0.447273	0.003419	-0.961176	-0.275914	0.466202	-0.242564	0.850775	0	0	0
57905	0	0	0	0	0	4.408755	-2.711059	8.349643	0.010039	-0.001595	-0.001201	-0.510986	-0.236084	-0.762939	0.035081	-0.237570	0.134785	-0.961334	-17.962007	-26.571282	-171.545843	-0.884660	-0.131490	0.447311	0.003407	-0.961205	-0.275814	0.466224	-0.242478	0.850788	0	0	0
57906	0	0	0	0	0	4.417422	-2.790051	8.340558	0.012396	-0.000174	-0.000795	-0.515381	-0.242188	-0.766113	0.035067	-0.237577	0.134725	-0.961341	-17.954251	-26.572885	-171.549112	-0.884655	-0.131437	0.447336	0.003408	-0.961239	-0.275695	0.466233	-0.242371	0.850813	0	0	0
57907	0	0	0	0	0	4.416272	-2.685834	8.349076	0.009225	-0.001358	-0.002495	-0.513428	-0.242676	-0.762695	0.035043	-0.237591	0.134678	-0.961345	-17.948024	-26.575419	-171.553059	-0.884645	-0.131374	0.447375	0.003380	-0.961267	-0.275596	0.466254	-0.242293	0.850824	0	0	0
57908	0	0	0	0	0	4.423381	-2.738117	8.361053	-0.001814	-0.000909	-0.008124	-0.512695	-0.231201	-0.777100	0.034980	-0.237610	0.134677	-0.961343	-17.946412	-26.578755	-171.560363	-0.884636	-0.131257	0.447428	0.003255	-0.961277	-0.275565	0.466272	-0.242318	0.850807	0	0	0
57909	0	0	0	0	0	4.348644	-2.688118	8.375266	-0.002820	-0.004614	-0.005900	-0.510010	-0.231934	-0.764160	0.034928	-0.237645	0.134684	-0.961335	-17.946445	-26.583665	-171.565744	-0.884610	-0.131168	0.447504	0.003141	-0.961281	-0.275553	0.466321	-0.242352	0.850771	0	0	0
57910	0	0	0	0	0	4.408247	-2.681535	8.371053	-0.007332	-0.000414	-0.002594	-0.513184	-0.233398	-0.764404	0.034874	-0.237656	0.134720	-0.961329	-17.949715	-26.585602	-171.570956	-0.884607	-0.131086	0.447534	0.003018	-0.961269	-0.275597	0.466328	-0.242445	0.850740	0	0	0
57911	0	0	0	0	0	4.439129	-2.691939	8.358149	-0.002283	-0.006659	-0.004564	-0.516113	-0.235596	-0.765381	0.034830	-0.237699	0.134726	-0.961319	-17.949985	-26.591391	-171.575119	-0.884572	-0.131015	0.447625	0.002918	-0.961272	-0.275587	0.466395	-0.242470	0.850696	0	0	0
57912	0	0	0	0	0	4.380393	-2.699035	8.361747	-0.007885	-0.004028	-0.002511	-0.508789	-0.232666	-0.760986	0.034795	-0.237731	0.134760	-0.961308	-17.953838	-26.595404	-171.577645	-0.884547	-0.130971	0.447687	0.002825	-0.961258	-0.275635	0.466443	-0.242547	0.850648	0	0	0
57913	0	0	0	0	0	4.440078	-2.692672	8.357409	-0.004991	-0.004651	-0.000770	-0.507813	-0.238525	-0.764404	0.034765	-0.237763	0.134783	-0.961298	-17.956517	-26.599428	-171.579892	-0.884521	-0.130932	0.447750	0.002746	-0.961250	-0.275665	0.466493	-0.242601	0.850605	0	0	0
57914	0	0	0	0	0	4.352013	-2.792595	8.365516	0.002431	-0.003815	-0.003754	-0.506348	-0.233643	-0.768311	0.034722	-0.237790	0.134769	-0.961295	-17.954036	-26.603483	-171.584958	-0.884501	-0.130849	0.447813	0.002662	-0.961264	-0.275618	0.466531	-0.242592	0.850587	0	0	0
57915	0	0	0	0	0	4.401519	-2.678142	8.392066	0.006315	-0.006392	-0.002819	-0.518066	-0.239258	-0.761230	0.034696	-0.237829	0.134735	-0.961291	-17.949831	-26.608819	-171.588110	-0.884467	-0.130794	0.447897	0.002618	-0.961285	-0.275543	0.466596	-0.242536	0.850567	0	0	0
57916	0	0	0	0	0	4.423297	-2.684171	8.401731	-0.001266	0.000147	0.000847	-0.515381	-0.234619	-0.762451	0.034674	-0.237836	0.134744	-0.961289	-17.950382	-26.609936	-171.590398	-0.884463	-0.130758	0.447914	0.002570	-0.961284	-0.275548	0.466603	-0.242561	0.850556	0	0	0
57917	0	0	0	0	0	4.402179	-2.678327	8.391661	-0.007538	-0.010017	0.002343	-0.518066	-0.232422	-0.772705	0.034659	-0.237892	0.134782	-0.961270	-17.955845	-26.616335	-171.589687	-0.884412	-0.130761	0.448014	0.002507	-0.961265	-0.275614	0.466700	-0.242633	0.850482	0	0	0
57918	0	0	0	0	0	4.404382	-2.706385	8.369826	-0.011321	-0.003919	0.003468	-0.508545	-0.235596	-0.768066	0.034650	-0.237920	0.134839	-0.961255	-17.963329	-26.619225	-171.588443	-0.884387	-0.130777	0.448059	0.002453	-0.961235	-0.275718	0.466748	-0.242742	0.850425	0	0	0
57919	0	0	0	0	0	4.437057	-2.744589	8.335356	-0.006724	-0.010256	0.003637	-0.520996	-0.236816	-0.772217	0.034643	-0.237976	0.134875	-0.961237	-17.968701	-26.625527	-171.586894	-0.884335	-0.130794	0.448157	0.002405	-0.961217	-0.275783	0.466847	-0.242806	0.850352	0	0	0
57920	0	0	0	0	0	4.394319	-2.808678	8.328350	-0.005268	-0.006459	-0.000728	-0.510986	-0.230225	-0.765869	0.034610	-0.238016	0.134901	-0.961224	-17.971731	-26.630498	-171.589150	-0.884301	-0.130753	0.448235	0.002319	-0.961208	-0.275816	0.466911	-0.242865	0.850301	0	0	0
57921	0	0	0	0	0	4.384653	-2.701762	8.358633	-0.000655	-0.007137	-0.001977	-0.516357	-0.237061	-0.768311	0.034581	-0.238059	0.134902	-0.961215	-17.971815	-26.636091	-171.591640	-0.884264	-0.130709	0.448322	0.002250	-0.961211	-0.275803	0.466982	-0.242874	0.850259	0	0	0
57922	0	0	0	0	0	4.442387	-2.743927	8.388592	-0.001645	-0.005183	-0.001170	-0.517822	-0.231934	-0.766357	0.034553	-0.238093	0.134909	-0.961206	-17.972573	-26.640452	-171.593980	-0.884235	-0.130667	0.448390	0.002184	-0.961211	-0.275804	0.467036	-0.242897	0.850222	0	0	0
57923	0	0	0	0	0	4.434242	-2.719706	8.300638	-0.002284	-0.006660	-0.004564	-0.511963	-0.235107	-0.763916	0.034509	-0.238137	0.134914	-0.961196	-17.972841	-26.646243	-171.598142	-0.884200	-0.130597	0.448481	0.002084	-0.961214	-0.275794	0.467104	-0.242922	0.850178	0	0	0
57924	0	0	0	0	0	4.386620	-2.701849	8.357572	-0.003652	-0.010037	-0.005776	-0.511963	-0.230957	-0.774658	0.034467	-0.238199	0.134923	-0.961181	-17.973921	-26.654099	-171.601587	-0.884147	-0.130534	0.448603	0.001980	-0.961216	-0.275791	0.467205	-0.242952	0.850114	0	0	0
57925	0	0	0	0	0	4.430561	-2.714695	8.376424	-0.008265	-0.009360	-0.004526	-0.516846	-0.236816	-0.773193	0.034418	-0.238256	0.134957	-0.961164	-17.977864	-26.661354	-171.605192	-0.884099	-0.130471	0.448716	0.001853	-0.961204	-0.275832	0.467296	-0.243031	0.850041	0	0	0
57926	0	0	0	0	0	4.411678	-2.735877	8.344821	-0.004104	-0.010130	-0.003634	-0.514893	-0.237061	-0.762207	0.034368	-0.238314	0.134975	-0.961149	-17.979815	-26.668783	-171.609276	-0.884051	-0.130399	0.448832	0.001733	-0.961201	-0.275843	0.467388	-0.243081	0.849977	0	0	0
57927	0	0	0	0	0	4.408887	-2.757921	8.399786	-0.006548	-0.009415	-0.007515	-0.513916	-0.237549	-0.768066	0.034307	-0.238373	0.134997	-0.961133	-17.981961	-26.676598	-171.614693	-0.884003	-0.130307	0.448954	0.001588	-0.961198	-0.275856	0.467479	-0.243145	0.849908	0	0	0
57928	0	0	0	0	0	4.404860	-2.732456	8.365909	-0.004933	-0.015554	-0.003511	-0.518311	-0.237549	-0.764160	0.034273	-0.238459	0.135014	-0.961111	-17.984794	-26.687064	-171.616254	-0.883925	-0.130270	0.449117	0.001489	-0.961193	-0.275873	0.467626	-0.243182	0.849816	0	0	0
57929	0	0	0	0	0	4.406253	-2.732415	8.365189	0.000406	-0.014331	-0.006944	-0.510010	-0.236084	-0.763672	0.034226	-0.238541	0.135003	-0.961094	-17.983546	-26.697458	-171.620349	-0.883854	-0.130195	0.449279	0.001381	-0.961206	-0.275829	0.467762	-0.243172	0.849745	0	0	0
57930	0	0	0	0	0	4.420297	-2.734596	8.396554	-0.000597	-0.018040	-0.004720	-0.515381	-0.236572	-0.763916	0.034193	-0.238639	0.134997	-0.961071	-17.983790	-26.709496	-171.622032	-0.883764	-0.130156	0.449467	0.001293	-0.961213	-0.275804	0.467931	-0.243164	0.849654	0	0	0
57931	0	0	0	0	0	4.393682	-2.675575	8.373996	-0.005223	-0.023027	-0.002051	-0.512695	-0.231934	-0.766602	0.034169	-0.238760	0.135017	-0.961039	-17.987882	-26.723763	-171.621421	-0.883652	-0.130149	0.449689	0.001202	-0.961206	-0.275830	0.468143	-0.243197	0.849528	0	0	0
57932	0	0	0	0	0	4.427647	-2.713317	8.338906	-0.009648	-0.018406	-0.004316	-0.520752	-0.240479	-0.769043	0.034126	-0.238861	0.135056	-0.961010	-17.993516	-26.735898	-171.622974	-0.883561	-0.130111	0.449879	0.001072	-0.961190	-0.275884	0.468315	-0.243278	0.849410	0	0	0
57933	0	0	0	0	0	4.433540	-2.636368	8.379195	-0.007041	-0.026501	-0.001120	-0.519531	-0.231445	-0.759766	0.034107	-0.238999	0.135085	-0.960973	-17.999217	-26.751892	-171.621102	-0.883433	-0.130122	0.450128	0.000981	-0.961177	-0.275929	0.468557	-0.243324	0.849263	0	0	0
57934	0	0	0	0	0	4.451670	-2.694133	8.367134	-0.020253	-0.026099	-0.001602	-0.512695	-0.232422	-0.770752	0.034085	-0.239140	0.135173	-0.960926	-18.012346	-26.767833	-171.617665	-0.883301	-0.130156	0.450376	0.000855	-0.961133	-0.276085	0.468806	-0.243481	0.849081	0	0	0
57935	0	0	0	0	0	4.403689	-2.706540	8.347071	-0.019624	-0.030290	0.003209	-0.510254	-0.241211	-0.769043	0.034073	-0.239294	0.135268	-0.960875	-18.026790	-26.785124	-171.612391	-0.883154	-0.130218	0.450646	0.000743	-0.961083	-0.276257	0.469082	-0.243643	0.848882	0	0	0
57936	0	0	0	0	0	4.414962	-2.712204	8.322855	-0.018981	-0.028817	0.006603	-0.518799	-0.229492	-0.764160	0.034060	-0.239436	0.135367	-0.960826	-18.041647	-26.800907	-171.607511	-0.883020	-0.130275	0.450892	0.000628	-0.961031	-0.276439	0.469334	-0.243818	0.848692	0	0	0
57937	0	0	0	0	0	4.388233	-2.806742	8.325412	-0.007048	-0.034743	0.009345	-0.516113	-0.228516	-0.771973	0.034096	-0.239606	0.135407	-0.960776	-18.050982	-26.819532	-171.597596	-0.882853	-0.130406	0.451182	0.000628	-0.961005	-0.276532	0.469649	-0.243853	0.848508	0	0	0
57938	0	0	0	0	0	4.381836	-2.803660	8.346225	-0.001884	-0.031804	0.008008	-0.511963	-0.240479	-0.768311	0.034135	-0.239762	0.135422	-0.960734	-18.056895	-26.836756	-171.588503	-0.882698	-0.130526	0.451450	0.000650	-0.960991	-0.276577	0.469940	-0.243841	0.848350	0	0	0
57939	0	0	0	0	0	4.480199	-2.680513	8.335205	0.010050	-0.037733	0.010746	-0.519287	-0.236084	-0.759766	0.034200	-0.239942	0.135381	-0.960692	-18.057098	-26.856759	-171.577130	-0.882516	-0.130679	0.451762	0.000744	-0.961005	-0.276531	0.470282	-0.243707	0.848199	0	0	0
57940	0	0	0	0	0	4.437532	-2.717259	8.348766	-0.006930	-0.025561	0.009996	-0.515869	-0.241943	-0.762207	0.034231	-0.240067	0.135423	-0.960654	-18.065661	-26.870271	-171.568933	-0.882392	-0.130789	0.451972	0.000747	-0.960978	-0.276625	0.470514	-0.243754	0.848057	0	0	0
57941	0	0	0	0	0	4.427150	-2.715340	8.315355	0.004898	-0.035018	0.010671	-0.520752	-0.235107	-0.765869	0.034288	-0.240235	0.135408	-0.960612	-18.068559	-26.888807	-171.558140	-0.882223	-0.130934	0.452260	0.000815	-0.960978	-0.276623	0.470832	-0.243674	0.847903	0	0	0
57942	0	0	0	0	0	4.466670	-2.544176	8.405423	-0.009379	-0.033087	0.016593	-0.516113	-0.239990	-0.768555	0.034357	-0.240393	0.135467	-0.960562	-18.081039	-26.905270	-171.543808	-0.882061	-0.131136	0.452517	0.000874	-0.960937	-0.276767	0.471134	-0.243730	0.847720	0	0	0
57943	0	0	0	0	0	4.502111	-2.687072	8.360935	-0.025643	-0.032915	0.025552	-0.518066	-0.238037	-0.766113	0.034448	-0.240546	0.135616	-0.960499	-18.105372	-26.920010	-171.524333	-0.881901	-0.131418	0.452746	0.000930	-0.960843	-0.277091	0.471433	-0.243946	0.847491	0	0	0
57944	0	0	0	0	0	4.394586	-2.707794	8.344893	-0.023469	-0.035453	0.029470	-0.513916	-0.227539	-0.767334	0.034553	-0.240707	0.135761	-0.960435	-18.129701	-26.935398	-171.502992	-0.881732	-0.131729	0.452986	0.001014	-0.960750	-0.277413	0.471749	-0.244144	0.847258	0	0	0
57945	0	0	0	0	0	4.520858	-2.723590	8.366946	-0.030454	-0.041883	0.031751	-0.520996	-0.240967	-0.758545	0.034673	-0.240900	0.135939	-0.960357	-18.159337	-26.953898	-171.477916	-0.881530	-0.132093	0.453273	0.001102	-0.960637	-0.277805	0.472127	-0.244394	0.846975	0	0	0
57946	0	0	0	0	0	4.428775	-2.698360	8.348158	-0.027850	-0.050006	0.034941	-0.521729	-0.228271	-0.760498	0.034818	-0.241129	0.136107	-0.960270	-18.189115	-26.976234	-171.449206	-0.881289	-0.132508	0.453621	0.001231	-0.960525	-0.278190	0.472577	-0.244608	0.846663	0	0	0
57947	0	0	0	0	0	4.435834	-2.625078	8.386999	-0.030322	-0.040962	0.042873	-0.525146	-0.229736	-0.763428	0.034991	-0.241310	0.136298	-0.960192	-18.221704	-26.992219	-171.417491	-0.881090	-0.132977	0.453869	0.001417	-0.960397	-0.278632	0.472947	-0.244857	0.846384	0	0	0
57948	0	0	0	0	0	4.449881	-2.688335	8.318984	-0.049409	-0.039745	0.044548	-0.520020	-0.229004	-0.760010	0.035167	-0.241490	0.136580	-0.960100	-18.265714	-27.007277	-171.382797	-0.880891	-0.133493	0.454104	0.001562	-0.960219	-0.279245	0.473316	-0.245275	0.846057	0	0	0
57949	0	0	0	0	0	4.395358	-2.755329	8.277657	-0.046188	-0.035493	0.053882	-0.520752	-0.229004	-0.767090	0.035370	-0.241640	0.136861	-0.960015	-18.309975	-27.018266	-171.345429	-0.880718	-0.134054	0.454275	0.001770	-0.960036	-0.279871	0.473638	-0.245684	0.845758	0	0	0
57950	0	0	0	0	0	4.460485	-2.677399	8.312208	-0.043830	-0.034090	0.054285	-0.522949	-0.225098	-0.760498	0.035581	-0.241783	0.137132	-0.959932	-18.352955	-27.028380	-171.307641	-0.880550	-0.134623	0.454432	0.001998	-0.959858	-0.280480	0.473949	-0.246069	0.845472	0	0	0
57951	0	0	0	0	0	4.527139	-2.626827	8.325320	-0.046168	-0.038131	0.062945	-0.510498	-0.228271	-0.770264	0.035830	-0.241939	0.137424	-0.959842	-18.399987	-27.039114	-171.264179	-0.880364	-0.135278	0.454599	0.002285	-0.959662	-0.281147	0.474294	-0.246473	0.845161	0	0	0
57952	0	0	0	0	0	4.477992	-2.644615	8.304252	-0.057160	-0.037204	0.074070	-0.520020	-0.221191	-0.762695	0.036107	-0.242083	0.137785	-0.959743	-18.456411	-27.047194	-171.215396	-0.880185	-0.136018	0.454724	0.002596	-0.959423	-0.281959	0.474624	-0.246996	0.844822	0	0	0
57953	0	0	0	0	0	4.470445	-2.649258	8.323361	-0.060225	-0.043181	0.084918	-0.523438	-0.221680	-0.764404	0.036447	-0.242250	0.138170	-0.959633	-18.518089	-27.056606	-171.157467	-0.879973	-0.136896	0.454871	0.003009	-0.959161	-0.282845	0.475014	-0.247527	0.844448	0	0	0
57954	0	0	0	0	0	4.485718	-2.688112	8.330325	-0.064621	-0.041186	0.091744	-0.518066	-0.222656	-0.760010	0.036820	-0.242405	0.138585	-0.959520	-18.584182	-27.063593	-171.095069	-0.879768	-0.137846	0.454979	0.003471	-0.958877	-0.283801	0.475390	-0.248100	0.844068	0	0	0
57955	0	0	0	0	0	4.481835	-2.774769	8.284808	-0.062545	-0.041624	0.092190	-0.516357	-0.224365	-0.766113	0.037191	-0.242560	0.138990	-0.959408	-18.649089	-27.070713	-171.032994	-0.879563	-0.138790	0.455090	0.003936	-0.958597	-0.284739	0.475767	-0.248655	0.843693	0	0	0
57956	0	0	0	0	0	4.396808	-2.860749	8.234496	-0.053750	-0.037444	0.090390	-0.520264	-0.219971	-0.764648	0.037550	-0.242693	0.139355	-0.959307	-18.708128	-27.075738	-170.974235	-0.879381	-0.139686	0.455168	0.004404	-0.958340	-0.285595	0.476099	-0.249142	0.843361	0	0	0
57957	0	0	0	0	0	4.469689	-2.864799	8.258816	-0.034709	-0.044431	0.090088	-0.527100	-0.225830	-0.767090	0.037948	-0.242858	0.139624	-0.959211	-18.756790	-27.084656	-170.912838	-0.879160	-0.140617	0.455306	0.004982	-0.958130	-0.286289	0.476500	-0.249425	0.843051	0	0	0
57958	0	0	0	0	0	4.435922	-2.861989	8.214837	-0.024830	-0.033455	0.093713	-0.521973	-0.229248	-0.764404	0.038364	-0.242965	0.139852	-0.959134	-18.799837	-27.086861	-170.851774	-0.878993	-0.141551	0.455341	0.005634	-0.957939	-0.286916	0.476802	-0.249632	0.842819	0	0	0
57959	0	0	0	0	0	4.403429	-2.803659	8.268799	-0.024043	-0.031103	0.085958	-0.522461	-0.223145	-0.761475	0.038745	-0.243066	0.140067	-0.959061	-18.839999	-27.089231	-170.795641	-0.878835	-0.142409	0.455378	0.006226	-0.957760	-0.287501	0.477085	-0.249830	0.842600	0	0	0
57960	0	0	0	0	0	4.493053	-2.916351	8.240090	-0.014265	-0.028870	0.083329	-0.529053	-0.226074	-0.763428	0.039116	-0.243156	0.140233	-0.958999	-18.873556	-27.090813	-170.742492	-0.878690	-0.143222	0.455402	0.006827	-0.957609	-0.287990	0.477344	-0.249945	0.842419	0	0	0
57961	0	0	0	0	0	4.468219	-2.833059	8.293726	-0.000991	-0.028882	0.078162	-0.527344	-0.220703	-0.769287	0.039486	-0.243248	0.140329	-0.958947	-18.898143	-27.093367	-170.691563	-0.878542	-0.144000	0.455442	0.007461	-0.957497	-0.288345	0.477606	-0.249925	0.842277	0	0	0
57962	0	0	0	0	0	4.535252	-2.910273	8.277627	-0.000869	-0.027961	0.067004	-0.523438	-0.216797	-0.754639	0.039804	-0.243344	0.140409	-0.958898	-18.919498	-27.097470	-170.647461	-0.878399	-0.144671	0.455506	0.008000	-0.957402	-0.288649	0.477861	-0.249905	0.842138	0	0	0
57963	0	0	0	0	0	4.467231	-2.785808	8.333882	-0.008851	-0.037667	0.065938	-0.530273	-0.224854	-0.762451	0.040112	-0.243488	0.140526	-0.958831	-18.946046	-27.107020	-170.602132	-0.878210	-0.145353	0.455654	0.008488	-0.957287	-0.289014	0.478201	-0.249947	0.841932	0	0	0
57964	0	0	0	0	0	4.544764	-2.894252	8.273093	-0.014834	-0.032022	0.055556	-0.529297	-0.227783	-0.762695	0.040368	-0.243615	0.140657	-0.958769	-18.972635	-27.115466	-170.563141	-0.878044	-0.145940	0.455785	0.008875	-0.957172	-0.289383	0.478497	-0.250046	0.841735	0	0	0
57965	0	0	0	0	0	4.443789	-3.123045	8.217466	-0.002120	-0.027309	0.039995	-0.527344	-0.224609	-0.763184	0.040553	-0.243727	0.140711	-0.958725	-18.987157	-27.124206	-170.535757	-0.877906	-0.146348	0.455921	0.009168	-0.957112	-0.289574	0.478746	-0.250038	0.841596	0	0	0
57966	0	0	0	0	0	4.487731	-2.903302	8.275480	0.032572	-0.024559	0.024404	-0.534424	-0.218018	-0.763916	0.040702	-0.243829	0.140580	-0.958712	-18.977120	-27.134383	-170.518565	-0.877782	-0.146598	0.456079	0.009488	-0.957161	-0.289400	0.478967	-0.249703	0.841570	0	0	0
57967	0	0	0	0	0	4.384601	-2.943783	8.294904	0.021882	-0.029599	0.018110	-0.518066	-0.220947	-0.767578	0.040813	-0.243962	0.140492	-0.958686	-18.972042	-27.148443	-170.504023	-0.877634	-0.146802	0.456297	0.009704	-0.957193	-0.289289	0.479233	-0.249462	0.841490	0	0	0
57968	0	0	0	0	0	4.476053	-2.946745	8.276533	0.033073	-0.029210	0.012494	-0.526611	-0.225098	-0.760742	0.040902	-0.244092	0.140346	-0.958670	-18.959016	-27.163260	-170.493942	-0.877492	-0.146937	0.456528	0.009907	-0.957260	-0.289059	0.479489	-0.249124	0.841444	0	0	0
57969	0	0	0	0	0	4.460195	-2.806419	8.352029	0.038166	-0.024102	0.007657	-0.526855	-0.223877	-0.756104	0.040978	-0.244203	0.140169	-0.958665	-18.941181	-27.176291	-170.486920	-0.877371	-0.147028	0.456730	0.010109	-0.957347	-0.288764	0.479705	-0.248736	0.841435	0	0	0
57970	0	0	0	0	0	4.440903	-2.933457	8.180589	0.023162	-0.021406	0.006797	-0.518799	-0.219238	-0.760010	0.041030	-0.244304	0.140062	-0.958652	-18.931374	-27.188041	-170.480980	-0.877264	-0.147103	0.456912	0.010232	-0.957398	-0.288589	0.479899	-0.248494	0.841396	0	0	0
57971	0	0	0	0	0	4.488709	-2.684013	8.314565	0.021755	-0.019557	0.009765	-0.529541	-0.224365	-0.760742	0.041094	-0.244395	0.139966	-0.958641	-18.923094	-27.198220	-170.473628	-0.877165	-0.147202	0.457070	0.010374	-0.957441	-0.288441	0.480077	-0.248269	0.841361	0	0	0
57972	0	0	0	0	0	4.541482	-2.700969	8.310273	0.001220	-0.016849	0.020073	-0.523926	-0.221436	-0.760498	0.041170	-0.244468	0.139985	-0.958616	-18.929187	-27.204953	-170.461646	-0.877081	-0.147377	0.457175	0.010490	-0.957418	-0.288513	0.480228	-0.248254	0.841280	0	0	0
57973	0	0	0	0	0	4.446697	-2.645390	8.315681	-0.022180	-0.021362	0.033547	-0.530029	-0.221924	-0.758789	0.041295	-0.244559	0.140129	-0.958566	-18.952883	-27.211685	-170.439420	-0.876971	-0.147708	0.457279	0.010629	-0.957317	-0.288844	0.480426	-0.248447	0.841109	0	0	0
57974	0	0	0	0	0	4.498610	-2.770228	8.300962	-0.043682	-0.021925	0.040504	-0.530273	-0.227539	-0.764893	0.041426	-0.244653	0.140384	-0.958499	-18.990895	-27.217395	-170.413024	-0.876858	-0.148104	0.457368	0.010723	-0.957152	-0.289387	0.480630	-0.248847	0.840874	0	0	0
57975	0	0	0	0	0	4.551211	-2.922753	8.264461	-0.037623	-0.018783	0.034844	-0.526611	-0.219727	-0.761475	0.041536	-0.244734	0.140604	-0.958442	-19.023561	-27.222466	-170.390539	-0.876760	-0.148442	0.457447	0.010799	-0.957010	-0.289853	0.480807	-0.249192	0.840671	0	0	0
57976	0	0	0	0	0	4.507336	-2.989439	8.256355	-0.023389	-0.020767	0.028825	-0.522217	-0.222412	-0.768555	0.041629	-0.244825	0.140750	-0.958393	-19.046538	-27.229692	-170.372185	-0.876655	-0.148713	0.457559	0.010876	-0.956913	-0.290171	0.480996	-0.249404	0.840500	0	0	0
57977	0	0	0	0	0	4.487334	-3.244847	8.184405	0.001941	-0.020175	0.013698	-0.524414	-0.212158	-0.768799	0.041688	-0.244920	0.140754	-0.958366	-19.050784	-27.239456	-170.362280	-0.876553	-0.148851	0.457710	0.010957	-0.956901	-0.290208	0.481181	-0.249367	0.840405	0	0	0
57978	0	0	0	0	0	4.606147	-3.074881	8.226590	0.030285	-0.014062	-0.006703	-0.520264	-0.219971	-0.765381	0.041653	-0.244988	0.140606	-0.958371	-19.032594	-27.249521	-170.369248	-0.876491	-0.148731	0.457866	0.010944	-0.956990	-0.289915	0.481293	-0.249097	0.840421	0	0	0
57979	0	0	0	0	0	4.535538	-3.204101	8.169650	0.044590	-0.007204	-0.028775	-0.529785	-0.230957	-0.769043	0.041551	-0.245042	0.140357	-0.958399	-18.999306	-27.260193	-170.387952	-0.876456	-0.148431	0.458032	0.010858	-0.957147	-0.289399	0.481360	-0.248672	0.840509	0	0	0
57980	0	0	0	0	0	4.544303	-3.277287	8.161317	0.076319	-0.001193	-0.055191	-0.530762	-0.230469	-0.764404	0.041331	-0.245074	0.139930	-0.958462	-18.939783	-27.272386	-170.427212	-0.876461	-0.147814	0.458221	0.010641	-0.957423	-0.288494	0.481355	-0.247978	0.840717	0	0	0
57981	0	0	0	0	0	4.507824	-3.122714	8.229997	0.089876	-0.006769	-0.083420	-0.529785	-0.229736	-0.758057	0.041022	-0.245154	0.139397	-0.958533	-18.865208	-27.292932	-170.479365	-0.876433	-0.146989	0.458540	0.010294	-0.957771	-0.287346	0.481413	-0.247120	0.840936	0	0	0
57982	0	0	0	0	0	4.487784	-3.153482	8.257020	0.090697	-0.014428	-0.105110	-0.533447	-0.228271	-0.758057	0.040610	-0.245285	0.138831	-0.958599	-18.784638	-27.321608	-170.543877	-0.876372	-0.145965	0.458985	0.009751	-0.958153	-0.286090	0.481537	-0.246245	0.841122	0	0	0
57983	0	0	0	0	0	4.483261	-2.875453	8.342170	0.109087	-0.024670	-0.133236	-0.527832	-0.233154	-0.757568	0.040099	-0.245482	0.138141	-0.958670	-18.686692	-27.360900	-170.622844	-0.876261	-0.144705	0.459594	0.009061	-0.958618	-0.284550	0.481751	-0.245176	0.841311	0	0	0
57984	0	0	0	0	0	4.473458	-2.983756	8.358540	0.075687	-0.031905	-0.156051	-0.523682	-0.227539	-0.759277	0.039445	-0.245736	0.137580	-0.958712	-18.601958	-27.408247	-170.714028	-0.876115	-0.143249	0.460328	0.008016	-0.959032	-0.283185	0.482035	-0.244412	0.841371	0	0	0
57985	0	0	0	0	0	4.488397	-3.055836	8.218492	0.092615	-0.035569	-0.171443	-0.524414	-0.236816	-0.758789	0.038737	-0.246015	0.136919	-0.958765	-18.503499	-27.460200	-170.814347	-0.875952	-0.141648	0.461132	0.006912	-0.959505	-0.281606	0.482348	-0.243486	0.841460	0	0	0
57986	0	0	0	0	0	4.513693	-2.834375	8.323256	0.108993	-0.031953	-0.183996	-0.519775	-0.225586	-0.765625	0.037889	-0.246266	0.136189	-0.958838	-18.391534	-27.512236	-170.935043	-0.875835	-0.139737	0.461938	0.005581	-0.960034	-0.279829	0.482578	-0.242505	0.841611	0	0	0
57987	0	0	0	0	0	4.606774	-2.821865	8.252324	0.119683	-0.037536	-0.186013	-0.526855	-0.240234	-0.759766	0.037146	-0.246558	0.135380	-0.958906	-18.273306	-27.567542	-171.044220	-0.875659	-0.137998	0.462794	0.004482	-0.960585	-0.277951	0.482910	-0.241316	0.841763	0	0	0
57988	0	0	0	0	0	4.659732	-2.478320	8.373021	0.111424	-0.033016	-0.180052	-0.521973	-0.229736	-0.753906	0.036315	-0.246809	0.134646	-0.958977	-18.160916	-27.618991	-171.163255	-0.875533	-0.136115	0.463590	0.003187	-0.961103	-0.276170	0.483149	-0.240318	0.841911	0	0	0
57989	0	0	0	0	0	4.644117	-2.428343	8.385758	0.089721	-0.038115	-0.163939	-0.527832	-0.232178	-0.759766	0.035642	-0.247094	0.134007	-0.959018	-18.065870	-27.670309	-171.259088	-0.875348	-0.134587	0.464383	0.002137	-0.961544	-0.274644	0.483488	-0.239417	0.841973	0	0	0
57990	0	0	0	0	0	4.646777	-2.595235	8.336889	0.067402	-0.027585	-0.155514	-0.522949	-0.243896	-0.753906	0.034889	-0.247314	0.133511	-0.959059	-17.985036	-27.714200	-171.362074	-0.875237	-0.132960	0.465061	0.000884	-0.961915	-0.273346	0.483694	-0.238832	0.842021	0	0	0
57991	0	0	0	0	0	4.643959	-2.737542	8.254936	0.078029	-0.039623	-0.144946	-0.528076	-0.236816	-0.753174	0.034293	-0.247595	0.132951	-0.959085	-17.902016	-27.762736	-171.446164	-0.875041	-0.131616	0.465811	-0.000056	-0.962296	-0.272005	0.484049	-0.238041	0.842041	0	0	0
57992	0	0	0	0	0	4.736825	-2.568895	8.287504	0.106922	-0.041298	-0.140309	-0.530273	-0.241943	-0.767334	0.033755	-0.247876	0.132258	-0.959128	-17.803764	-27.811260	-171.527344	-0.874836	-0.130318	0.466560	-0.000816	-0.962737	-0.270440	0.484418	-0.236971	0.842130	0	0	0
57993	0	0	0	0	0	4.718396	-2.652556	8.216989	0.105709	-0.032825	-0.127664	-0.521973	-0.240967	-0.756348	0.033272	-0.248108	0.131589	-0.959177	-17.708997	-27.852823	-171.602365	-0.874671	-0.129123	0.467202	-0.001469	-0.963155	-0.268943	0.484715	-0.235923	0.842254	0	0	0
57994	0	0	0	0	0	4.625590	-2.366887	8.371301	0.129885	-0.037338	-0.123784	-0.522949	-0.251953	-0.754639	0.032743	-0.248340	0.130832	-0.959238	-17.601855	-27.895962	-171.685747	-0.874510	-0.127799	0.467868	-0.002164	-0.963622	-0.267261	0.485003	-0.234735	0.842420	0	0	0
57995	0	0	0	0	0	4.658564	-2.543277	8.310929	0.088540	-0.024734	-0.124765	-0.530762	-0.241211	-0.746094	0.032247	-0.248534	0.130249	-0.959284	-17.516826	-27.932376	-171.760776	-0.874382	-0.126611	0.468429	-0.002874	-0.963990	-0.265921	0.485230	-0.233863	0.842532	0	0	0
57996	0	0	0	0	0	4.684380	-2.667397	8.238692	0.122203	-0.034468	-0.122068	-0.529785	-0.248047	-0.759033	0.031817	-0.248768	0.129505	-0.959339	-17.414041	-27.973590	-171.831747	-0.874204	-0.125480	0.469065	-0.003386	-0.964432	-0.264309	0.485546	-0.232648	0.842686	0	0	0
57997	0	0	0	0	0	4.533864	-2.603313	8.252120	0.121581	-0.021528	-0.120713	-0.525146	-0.247559	-0.755859	0.031379	-0.248938	0.128769	-0.959408	-17.310788	-28.007330	-171.905082	-0.874091	-0.124322	0.469585	-0.003900	-0.964868	-0.262707	0.485747	-0.231461	0.842897	0	0	0
57998	0	0	0	0	0	4.598593	-2.815463	8.159673	0.150349	-0.021018	-0.119571	-0.520996	-0.253662	-0.759766	0.030894	-0.249088	0.127920	-0.959499	-17.191290	-28.040432	-171.988434	-0.874002	-0.123013	0.470095	-0.004440	-0.965364	-0.260868	0.485903	-0.230087	0.843184	0	0	0
57999	0	0	0	0	0	4.507435	-2.568914	8.085590	0.160164	-0.009642	-0.121658	-0.523438	-0.253174	-0.751465	0.030493	-0.249195	0.126999	-0.959606	-17.064420	-28.067558	-172.064827	-0.873944	-0.121817	0.470512	-0.004773	-0.965883	-0.258935	0.486002	-0.228541	0.843546	0	0	0
58000	0	0	0	0	0	4.119935	-2.552673	8.232295	0.127969	0.009301	-0.102383	-0.522217	-0.253174	-0.750244	0.030030	-0.249189	0.126286	-0.959716	-16.959829	-28.080845	-172.144952	-0.874006	-0.120579	0.470717	-0.005297	-0.966300	-0.257363	0.485887	-0.227430	0.843913	0	0	0
58001	0	0	0	0	0	4.897459	-2.332989	8.281520	0.142589	-0.005194	-0.090837	-0.527588	-0.261475	-0.753662	0.029752	-0.249258	0.125488	-0.959811	-16.851541	-28.100135	-172.203178	-0.873971	-0.119670	0.471014	-0.005446	-0.966735	-0.255722	0.485948	-0.226059	0.844246	0	0	0
58002	0	0	0	0	0	4.486656	-2.322758	8.286757	0.098113	0.003353	-0.078903	-0.526367	-0.259277	-0.755371	0.029465	-0.249284	0.124921	-0.959888	-16.771381	-28.112672	-172.256178	-0.873979	-0.118847	0.471207	-0.005716	-0.967053	-0.254511	0.485930	-0.225130	0.844505	0	0	0
58003	0	0	0	0	0	4.688002	-2.370516	8.296738	0.096399	0.003042	-0.070315	-0.523193	-0.256348	-0.758545	0.029222	-0.249306	0.124372	-0.959960	-16.694785	-28.123904	-172.303258	-0.873985	-0.118117	0.471380	-0.005910	-0.967355	-0.253355	0.485917	-0.224215	0.844756	0	0	0
58004	0	0	0	0	0	4.654343	-2.267099	8.374473	0.090975	-0.002112	-0.063257	-0.527588	-0.255859	-0.744141	0.028998	-0.249348	0.123860	-0.960022	-16.623821	-28.136676	-172.346260	-0.873969	-0.117447	0.471576	-0.006091	-0.967635	-0.252279	0.485943	-0.223356	0.844968	0	0	0
58005	0	0	0	0	0	4.632275	-2.482396	8.355742	0.054927	-0.000011	-0.059305	-0.520752	-0.262695	-0.747559	0.028758	-0.249385	0.123523	-0.960064	-16.574452	-28.147684	-172.385957	-0.873960	-0.116829	0.471746	-0.006390	-0.967830	-0.251525	0.485955	-0.222837	0.845098	0	0	0
58006	0	0	0	0	0	4.629642	-2.343329	8.384258	0.077610	-0.006033	-0.054485	-0.523682	-0.257324	-0.751465	0.028580	-0.249445	0.123081	-0.960110	-16.513989	-28.161231	-172.420729	-0.873921	-0.116284	0.471954	-0.006524	-0.968069	-0.250601	0.486025	-0.222084	0.845256	0	0	0
58007	0	0	0	0	0	4.614956	-2.278962	8.395019	0.048553	-0.008860	-0.049970	-0.522705	-0.265869	-0.759521	0.028382	-0.249519	0.122785	-0.960135	-16.471758	-28.175518	-172.453009	-0.873869	-0.115776	0.472174	-0.006773	-0.968237	-0.249944	0.486114	-0.221617	0.845328	0	0	0
58008	0	0	0	0	0	4.610279	-2.296228	8.397178	0.040976	-0.016835	-0.050932	-0.522461	-0.260254	-0.755127	0.028163	-0.249631	0.122527	-0.960145	-16.434260	-28.194239	-172.485880	-0.873783	-0.115255	0.472462	-0.007091	-0.968388	-0.249347	0.486265	-0.221226	0.845343	0	0	0
58009	0	0	0	0	0	4.542258	-2.716381	8.237698	0.019092	-0.011416	-0.048884	-0.523193	-0.261963	-0.748535	0.027936	-0.249721	0.122373	-0.960148	-16.409420	-28.209720	-172.517043	-0.873718	-0.114763	0.472700	-0.007474	-0.968489	-0.248945	0.486375	-0.221040	0.845329	0	0	0
58010	0	0	0	0	0	4.599263	-2.705056	8.178578	0.075619	-0.016733	-0.057507	-0.521729	-0.269287	-0.753906	0.027735	-0.249832	0.121938	-0.960180	-16.350114	-28.229443	-172.553273	-0.873629	-0.114189	0.473004	-0.007667	-0.968724	-0.248024	0.486531	-0.220308	0.845430	0	0	0
58011	0	0	0	0	0	4.705265	-2.469989	8.203653	0.066872	-0.000043	-0.063627	-0.524658	-0.257324	-0.746582	0.027489	-0.249869	0.121539	-0.960228	-16.292526	-28.240995	-172.595757	-0.873619	-0.113529	0.473181	-0.007946	-0.968945	-0.247147	0.486545	-0.219673	0.845587	0	0	0
58012	0	0	0	0	0	4.608419	-2.454176	8.246804	0.087357	0.011680	-0.069276	-0.522461	-0.270508	-0.748047	0.027232	-0.249850	0.121036	-0.960304	-16.220511	-28.246936	-172.644269	-0.873666	-0.112783	0.473273	-0.008181	-0.969217	-0.246071	0.486457	-0.218855	0.845850	0	0	0
58013	0	0	0	0	0	4.714538	-2.417394	8.337724	0.070919	0.016478	-0.072795	-0.528076	-0.264648	-0.747803	0.026937	-0.249813	0.120608	-0.960376	-16.156451	-28.250776	-172.695511	-0.873735	-0.111998	0.473332	-0.008520	-0.969456	-0.245116	0.486327	-0.218199	0.846094	0	0	0
58014	0	0	0	0	0	4.647910	-2.496729	8.252161	0.085496	0.019794	-0.076823	-0.528320	-0.267334	-0.751465	0.026643	-0.249761	0.120103	-0.960461	-16.082507	-28.253427	-172.749394	-0.873819	-0.111173	0.473372	-0.008816	-0.969731	-0.244018	0.486172	-0.217400	0.846389	0	0	0
58015	0	0	0	0	0	4.677884	-2.227910	8.403319	0.089407	0.017176	-0.075875	-0.521973	-0.280518	-0.754150	0.026356	-0.249720	0.119582	-0.960544	-16.006871	-28.257256	-172.802701	-0.873890	-0.110356	0.473431	-0.009092	-0.970011	-0.242891	0.486038	-0.216565	0.846680	0	0	0
58016	0	0	0	0	0	4.679847	-2.293119	8.420841	0.081805	0.008540	-0.065667	-0.526611	-0.268799	-0.746094	0.026106	-0.249714	0.119110	-0.960611	-15.939204	-28.264184	-172.848978	-0.873922	-0.109643	0.473538	-0.009331	-0.970262	-0.241876	0.485976	-0.215799	0.846911	0	0	0
58017	0	0	0	0	0	4.601438	-2.362220	8.433863	0.062367	0.004040	-0.060279	-0.523193	-0.266357	-0.749512	0.025868	-0.249730	0.118737	-0.960660	-15.884773	-28.272694	-172.890202	-0.873931	-0.109006	0.473669	-0.009603	-0.970465	-0.241052	0.485955	-0.215211	0.847073	0	0	0
58018	0	0	0	0	0	4.456241	-2.809565	8.254420	0.087369	-0.003469	-0.068201	-0.521729	-0.273682	-0.748047	0.025637	-0.249785	0.118230	-0.960714	-15.814348	-28.286581	-172.933902	-0.873900	-0.108325	0.473882	-0.009804	-0.970729	-0.239979	0.486007	-0.214364	0.847258	0	0	0
58019	0	0	0	0	0	4.689856	-2.211444	8.444834	0.122119	-0.023698	-0.077787	-0.527588	-0.279053	-0.749023	0.025406	-0.249937	0.117544	-0.960765	-15.722771	-28.313020	-172.981221	-0.873772	-0.107576	0.474288	-0.009938	-0.971076	-0.238565	0.486234	-0.213165	0.847430	0	0	0
58020	0	0	0	0	0	4.680738	-2.331550	8.334605	0.095020	-0.009342	-0.088512	-0.514404	-0.280518	-0.747803	0.025082	-0.250030	0.116976	-0.960819	-15.642184	-28.333187	-173.037786	-0.873712	-0.106694	0.474598	-0.010296	-0.971375	-0.237328	0.486334	-0.212243	0.847604	0	0	0
58021	0	0	0	0	0	4.680223	-2.311754	8.412772	0.097576	-0.024658	-0.089172	-0.520752	-0.277588	-0.751221	0.024766	-0.250195	0.116394	-0.960855	-15.561274	-28.361789	-173.092184	-0.873578	-0.105835	0.475037	-0.010649	-0.971678	-0.236067	0.486568	-0.211282	0.847710	0	0	0
58022	0	0	0	0	0	4.654084	-2.289632	8.426723	0.092075	-0.027116	-0.096737	-0.525635	-0.281494	-0.747559	0.024390	-0.250375	0.115832	-0.960885	-15.481264	-28.392753	-173.153240	-0.873435	-0.104874	0.475513	-0.011131	-0.971976	-0.234815	0.486813	-0.210389	0.847791	0	0	0
58023	0	0	0	0	0	4.625273	-2.452697	8.342381	0.099789	-0.038944	-0.109946	-0.512207	-0.283936	-0.743896	0.023985	-0.250621	0.115211	-0.960906	-15.393943	-28.432276	-173.218332	-0.873228	-0.103843	0.476120	-0.011654	-0.972303	-0.233435	0.487173	-0.209391	0.847831	0	0	0
58024	0	0	0	0	0	4.745743	-2.367283	8.372218	0.088441	-0.049551	-0.121414	-0.526123	-0.276123	-0.744385	0.023505	-0.250924	0.114630	-0.960908	-15.310291	-28.479294	-173.290314	-0.872969	-0.102700	0.476841	-0.012354	-0.972615	-0.232094	0.487619	-0.208502	0.847794	0	0	0
58025	0	0	0	0	0	4.749413	-2.298153	8.412368	0.089218	-0.062166	-0.133691	-0.526123	-0.276855	-0.749512	0.022987	-0.251296	0.114027	-0.960895	-15.223615	-28.535064	-173.366547	-0.872644	-0.101485	0.477696	-0.013134	-0.972939	-0.230689	0.488181	-0.207583	0.847696	0	0	0
58026	0	0	0	0	0	4.697469	-2.420394	8.413805	0.059254	-0.080558	-0.151565	-0.528320	-0.285645	-0.752441	0.022366	-0.251772	0.113541	-0.960843	-15.150219	-28.603630	-173.449609	-0.872221	-0.100154	0.478747	-0.014192	-0.973216	-0.229453	0.488906	-0.206929	0.847438	0	0	0
58027	0	0	0	0	0	4.702696	-2.430652	8.413136	0.074859	-0.106611	-0.168866	-0.526611	-0.279297	-0.743652	0.021686	-0.252379	0.112958	-0.960768	-15.064471	-28.689050	-173.540728	-0.871669	-0.098687	0.480056	-0.015346	-0.973540	-0.227999	0.489854	-0.206107	0.847091	0	0	0
58028	0	0	0	0	0	4.780252	-2.510990	8.399098	0.061963	-0.121865	-0.198024	-0.523682	-0.279785	-0.742676	0.020780	-0.253068	0.112419	-0.960670	-14.978325	-28.787156	-173.657107	-0.871050	-0.096825	0.481557	-0.016974	-0.973860	-0.226513	0.490902	-0.205477	0.846637	0	0	0
58029	0	0	0	0	0	4.761815	-2.488678	8.353177	0.086057	-0.154413	-0.228733	-0.528564	-0.289307	-0.742188	0.019853	-0.253936	0.111701	-0.960544	-14.871275	-28.907620	-173.778498	-0.870244	-0.094869	0.483399	-0.018590	-0.974258	-0.224670	0.492269	-0.204504	0.846079	0	0	0
58030	0	0	0	0	0	4.834824	-2.639650	8.321133	0.067701	-0.168520	-0.268955	-0.522217	-0.279785	-0.742920	0.018642	-0.254888	0.111038	-0.960393	-14.763171	-29.041640	-173.932352	-0.869369	-0.092412	0.485445	-0.020797	-0.974646	-0.222784	0.493725	-0.203778	0.845405	0	0	0
58031	0	0	0	0	0	5.913325	-4.209623	7.907701	0.002249	-0.179351	-0.385005	-0.523682	-0.290039	-0.739258	0.016872	-0.255969	0.110521	-0.960198	-14.657007	-29.198261	-174.149558	-0.868390	-0.088980	0.487833	-0.024179	-0.975001	-0.220881	0.495292	-0.203606	0.844530	0	0	0
58032	0	0	0	0	0	3.203397	-1.557247	8.932324	0.230135	-0.192649	-0.476580	-0.521240	-0.292236	-0.741455	0.014878	-0.257135	0.108814	-0.960115	-14.392013	-29.374758	-174.433611	-0.867321	-0.084528	0.490520	-0.027391	-0.975877	-0.216598	0.496995	-0.201296	0.844083	0	0	0
58033	0	0	0	0	0	5.130471	-2.434972	8.230018	0.166375	-0.191032	-0.524171	-0.528809	-0.301025	-0.736084	0.012655	-0.258331	0.107327	-0.959993	-14.146903	-29.556055	-174.739792	-0.866210	-0.079749	0.493275	-0.031154	-0.976641	-0.212605	0.498708	-0.199528	0.843492	0	0	0
58034	0	0	0	0	0	4.920234	-2.088306	8.441558	0.048486	-0.258331	-0.550412	-0.523193	-0.298096	-0.739014	0.010107	-0.259860	0.106390	-0.959714	-13.964780	-29.777408	-175.063288	-0.864742	-0.074693	0.496632	-0.035893	-0.977158	-0.209461	0.500933	-0.198956	0.842308	0	0	0
58035	0	0	0	0	0	4.474981	-1.838426	8.659212	0.096333	-0.296697	-0.556087	-0.521484	-0.303223	-0.742188	0.007697	-0.261580	0.105191	-0.959402	-13.754518	-30.019954	-175.376031	-0.863033	-0.069801	0.500302	-0.040262	-0.977751	-0.205867	0.503540	-0.197813	0.841021	0	0	0
58036	0	0	0	0	0	4.875516	-1.516930	8.619419	0.082708	-0.348635	-0.542489	-0.523926	-0.306396	-0.727051	0.005266	-0.263528	0.104099	-0.959004	-13.558599	-30.288426	-175.685173	-0.861050	-0.064967	0.504353	-0.044765	-0.978271	-0.202438	0.506546	-0.196887	0.839432	0	0	0
58037	0	0	0	0	0	4.939804	-1.578635	8.496801	0.022378	-0.382598	-0.522287	-0.526855	-0.310059	-0.728027	0.002966	-0.265640	0.103293	-0.958518	-13.404209	-30.572523	-175.966308	-0.858853	-0.060564	0.508629	-0.049191	-0.978643	-0.199593	0.509854	-0.196441	0.837532	0	0	0
58038	0	0	0	0	0	4.813884	-1.570995	8.420200	-0.011046	-0.401890	-0.506945	-0.535645	-0.316406	-0.725586	0.000627	-0.267825	0.102689	-0.957979	-13.273562	-30.864763	-176.245543	-0.856538	-0.056207	0.513013	-0.053804	-0.978909	-0.197085	0.513271	-0.196413	0.835449	0	0	0
58039	0	0	0	0	0	4.982400	-1.539940	8.285455	-0.068947	-0.412085	-0.491161	-0.526855	-0.311279	-0.732422	-0.001630	-0.270057	0.102361	-0.957386	-13.180170	-31.160146	-176.505084	-0.854133	-0.052165	0.517432	-0.058408	-0.979039	-0.195117	0.516764	-0.196878	0.833183	0	0	0
58040	0	0	0	0	0	4.994334	-0.535500	8.309183	-0.161791	-0.427348	-0.449216	-0.534668	-0.316895	-0.722412	-0.003885	-0.272328	0.102556	-0.956715	-13.153791	-31.458322	-176.745644	-0.851644	-0.048425	0.521878	-0.063291	-0.978934	-0.194118	0.520285	-0.198350	0.830639	0	0	0
58041	0	0	0	0	0	4.787806	-0.048298	8.664030	-0.424528	-0.442891	-0.344700	-0.534912	-0.315430	-0.719971	-0.005909	-0.274621	0.104126	-0.955880	-13.313752	-31.751703	-176.906123	-0.849097	-0.045894	0.526239	-0.068486	-0.978246	-0.195818	0.523778	-0.202309	0.827483	0	0	0
58042	0	0	0	0	0	4.996061	-1.139683	8.906400	-0.586963	-0.474135	-0.214316	-0.543701	-0.306396	-0.723633	-0.007589	-0.276979	0.106672	-0.954907	-13.614386	-32.045753	-176.983919	-0.846451	-0.044599	0.530596	-0.073584	-0.977127	-0.199519	0.527358	-0.207927	0.823808	0	0	0
58043	0	0	0	0	0	4.741730	-2.663867	8.935498	-0.521520	-0.556306	-0.145572	-0.540771	-0.310059	-0.715820	-0.008733	-0.279697	0.108981	-0.953843	-13.909175	-32.376357	-176.993011	-0.843386	-0.044303	0.535478	-0.077623	-0.976094	-0.203016	0.531671	-0.212786	0.819785	0	0	0
58044	0	0	0	0	0	4.680528	-4.621330	8.538811	-0.184562	-0.682904	-0.187993	-0.543457	-0.310547	-0.713623	-0.009606	-0.283048	0.109649	-0.952769	-14.007891	-32.783382	-177.015873	-0.839584	-0.043767	0.541464	-0.080376	-0.975770	-0.203502	0.537251	-0.214377	0.815723	0	0	0
58045	0	0	0	0	0	4.790372	-3.296875	9.031346	0.103754	-0.853232	-0.267815	-0.550049	-0.310791	-0.707275	-0.010291	-0.287268	0.108815	-0.951594	-13.927540	-33.296013	-177.055726	-0.834742	-0.042933	0.548965	-0.082104	-0.976107	-0.201184	0.544485	-0.213008	0.811272	0	0	0
58046	0	0	0	0	0	5.198482	-3.072620	8.543256	0.219713	-0.983825	-0.334988	-0.553711	-0.320801	-0.708740	-0.011132	-0.292138	0.107360	-0.950266	-13.766602	-33.890531	-177.129433	-0.829063	-0.041572	0.557608	-0.083885	-0.976700	-0.197538	0.552827	-0.210546	0.806258	0	0	0
58047	0	0	0	0	0	5.315895	-2.674292	8.136360	0.234541	-1.043907	-0.397516	-0.561523	-0.317871	-0.699463	-0.012142	-0.297327	0.105722	-0.948827	-13.576998	-34.526701	-177.229121	-0.822899	-0.039827	0.566790	-0.085908	-0.977351	-0.193403	0.561656	-0.207843	0.800840	0	0	0
58048	0	0	0	0	0	5.615578	-2.390491	7.644882	0.262212	-1.053256	-0.459070	-0.568115	-0.329102	-0.688232	-0.013485	-0.302573	0.103884	-0.947352	-13.345407	-35.175867	-177.383375	-0.816535	-0.037316	0.576088	-0.088414	-0.978052	-0.188670	0.570485	-0.204990	0.795315	0	0	0
58049	0	0	0	0	0	5.818341	-2.118922	7.331821	0.207060	-0.994733	-0.525321	-0.570557	-0.322021	-0.687256	-0.015167	-0.307574	0.102174	-0.945901	-13.109878	-35.800708	-177.586144	-0.810337	-0.034159	0.584968	-0.091545	-0.978661	-0.183963	0.578769	-0.202623	0.789918	0	0	0
58050	0	0	0	0	0	6.083766	-1.770178	7.152079	0.147492	-0.956803	-0.582939	-0.577881	-0.332764	-0.676514	-0.017311	-0.312401	0.100677	-0.944442	-12.876911	-36.411130	-177.849084	-0.804211	-0.030205	0.593575	-0.095601	-0.979129	-0.179351	0.586604	-0.200983	0.784539	0	0	0
58051	0	0	0	0	0	6.050451	-1.285354	7.329002	-0.005818	-0.911161	-0.609951	-0.581055	-0.338867	-0.677979	-0.019766	-0.317013	0.099828	-0.942946	-12.711305	-36.998748	-178.133113	-0.798225	-0.026018	0.601798	-0.100569	-0.979287	-0.175734	0.593905	-0.200797	0.779075	0	0	0
58052	0	0	0	0	0	6.125274	-0.772357	7.580950	-0.168116	-0.887996	-0.591145	-0.586670	-0.337891	-0.669922	-0.022480	-0.321471	0.099796	-0.941377	-12.639811	-37.570618	-178.421122	-0.792302	-0.021839	0.609739	-0.106488	-0.979071	-0.173438	0.600765	-0.202345	0.773394	0	0	0
58053	0	0	0	0	0	6.222676	-0.633307	7.767165	-0.311051	-0.873462	-0.522701	-0.595703	-0.340332	-0.668457	-0.025028	-0.325811	0.100516	-0.939743	-12.675050	-38.125662	-178.655498	-0.786442	-0.018458	0.617388	-0.112539	-0.978540	-0.172610	0.607325	-0.205228	0.767488	0	0	0
58054	0	0	0	0	0	5.815975	-1.231382	7.912319	-0.331553	-0.879373	-0.428415	-0.591064	-0.339600	-0.666504	-0.027235	-0.330113	0.101510	-0.938072	-12.762173	-38.672505	-178.831374	-0.780568	-0.015923	0.624868	-0.118116	-0.977908	-0.172467	0.613810	-0.208429	0.761443	0	0	0
58055	0	0	0	0	0	6.009606	-2.200213	7.443729	0.011320	-0.912738	-0.391396	-0.601563	-0.345703	-0.647217	-0.028613	-0.334596	0.100933	-0.936504	-12.670690	-39.233130	-178.967886	-0.774453	-0.013952	0.632477	-0.121135	-0.977988	-0.169902	0.620925	-0.208196	0.755715	0	0	0
58056	0	0	0	0	0	5.864585	-1.046666	7.885513	0.138693	-0.954348	-0.286524	-0.609131	-0.346924	-0.645996	-0.029340	-0.339226	0.099964	-0.934918	-12.556027	-39.803935	-179.033345	-0.768130	-0.012961	0.640162	-0.122681	-0.978293	-0.167011	0.628431	-0.206822	0.749866	0	0	0
58057	0	0	0	0	0	6.044284	-1.399163	7.428062	0.274401	-0.987072	-0.178642	-0.605469	-0.344238	-0.638916	-0.029239	-0.343971	0.098521	-0.933339	-12.416309	-40.379356	-179.007448	-0.761657	-0.013196	0.647845	-0.122357	-0.978878	-0.163791	0.636323	-0.204021	0.743955	0	0	0
58058	0	0	0	0	0	6.347225	-1.193677	7.216040	0.329869	-0.995262	-0.096759	-0.612549	-0.348633	-0.629639	-0.028724	-0.348710	0.096982	-0.931757	-12.284234	-40.949787	-178.929567	-0.755152	-0.014110	0.655397	-0.121165	-0.979539	-0.160695	0.644254	-0.200761	0.737991	0	0	0
58059	0	0	0	0	0	6.620105	-1.462152	6.763355	0.387434	-0.974146	-0.036528	-0.624756	-0.351563	-0.638428	-0.027770	-0.353323	0.095251	-0.930225	-12.146408	-41.500829	-178.803118	-0.748783	-0.015644	0.662631	-0.118974	-0.980312	-0.157586	0.652050	-0.196833	0.732180	0	0	0
58060	0	0	0	0	0	6.855068	-1.525738	6.551211	0.395470	-0.899671	-0.015616	-0.635986	-0.355225	-0.614258	-0.026820	-0.357563	0.093540	-0.928805	-12.007248	-42.007688	-178.683528	-0.742859	-0.017072	0.669230	-0.116715	-0.981062	-0.154582	0.659195	-0.192942	0.726798	0	0	0
58061	0	0	0	0	0	6.915980	-1.716896	6.357912	0.396808	-0.813939	-0.021400	-0.637451	-0.361816	-0.620850	-0.025853	-0.361409	0.091766	-0.927521	-11.855057	-42.467593	-178.572940	-0.737431	-0.018371	0.675173	-0.114289	-0.981821	-0.151542	0.665683	-0.188917	0.721925	0	0	0
58062	0	0	0	0	0	7.034207	-1.807495	6.416847	0.383249	-0.721986	-0.053119	-0.638428	-0.356689	-0.611328	-0.025158	-0.364835	0.090007	-0.926370	-11.684487	-42.880667	-178.509216	-0.732525	-0.019064	0.680474	-0.112287	-0.982532	-0.148403	0.671416	-0.185117	0.717588	0	0	0
58063	0	0	0	0	0	7.239316	-1.756416	6.322830	0.361505	-0.622269	-0.088478	-0.643799	-0.362549	-0.606445	-0.024653	-0.367807	0.088247	-0.925377	-11.496339	-43.241193	-178.482628	-0.728221	-0.019290	0.685071	-0.110542	-0.983209	-0.145189	0.676369	-0.181459	0.713861	0	0	0
58064	0	0	0	0	0	7.137763	-1.474204	6.373160	0.302525	-0.527323	-0.126657	-0.646484	-0.372803	-0.605469	-0.024546	-0.370338	0.086713	-0.924515	-11.311672	-43.552770	-178.510437	-0.724495	-0.018840	0.689022	-0.109613	-0.983757	-0.142155	0.680508	-0.178517	0.710662	0	0	0
58065	0	0	0	0	0	7.211687	-1.443760	6.397675	0.208254	-0.443556	-0.168938	-0.646240	-0.370361	-0.596924	-0.024773	-0.372492	0.085490	-0.923757	-11.147324	-43.821955	-178.576822	-0.721272	-0.017919	0.692420	-0.109458	-0.984155	-0.139488	0.683948	-0.176400	0.707883	0	0	0
58066	0	0	0	0	0	6.876548	-1.056428	6.680428	0.119864	-0.383816	-0.193525	-0.651123	-0.364258	-0.590820	-0.025388	-0.374360	0.084652	-0.923063	-11.012376	-44.060124	-178.683407	-0.718421	-0.016511	0.695413	-0.110250	-0.984379	-0.137270	0.686816	-0.175286	0.705378	0	0	0
58067	0	0	0	0	0	6.680924	-0.955898	6.859420	0.027228	-0.379507	-0.200764	-0.641357	-0.376709	-0.583740	-0.026127	-0.376205	0.084196	-0.922333	-10.925585	-44.296531	-178.786745	-0.715575	-0.015155	0.698372	-0.111546	-0.984457	-0.135656	0.689573	-0.174972	0.702762	0	0	0
58068	0	0	0	0	0	6.706722	-0.748554	7.124517	-0.026043	-0.399167	-0.168233	-0.650635	-0.370361	-0.581055	-0.026876	-0.378117	0.084078	-0.921540	-10.888480	-44.540943	-178.870724	-0.712611	-0.014047	0.701419	-0.113117	-0.984417	-0.134637	0.692380	-0.175286	0.699918	0	0	0
58069	0	0	0	0	0	6.589414	-0.747807	7.426724	-0.036543	-0.451990	-0.116825	-0.658447	-0.376709	-0.585449	-0.027318	-0.380249	0.084083	-0.920649	-10.891097	-44.808943	-178.897956	-0.709330	-0.013645	0.704745	-0.114245	-0.984367	-0.134048	0.695557	-0.175598	0.696682	0	0	0
58070	0	0	0	0	0	6.739349	-0.661922	7.519301	-0.022248	-0.532446	-0.063620	-0.652588	-0.378418	-0.583252	-0.027512	-0.382731	0.084160	-0.919607	-10.924281	-45.117413	-178.877683	-0.705521	-0.013822	0.708554	-0.115022	-0.984320	-0.133730	0.699293	-0.175848	0.692869	0	0	0
58071	0	0	0	0	0	6.665590	-0.730510	7.751914	-0.016723	-0.622100	0.003841	-0.657227	-0.377686	-0.577637	-0.027288	-0.385591	0.084328	-0.918403	-11.002772	-45.467975	-178.781887	-0.701149	-0.014909	0.712859	-0.115155	-0.984288	-0.133849	0.703654	-0.175938	0.688416	0	0	0
58072	0	0	0	0	0	6.389192	-0.849771	7.688324	0.042367	-0.741172	0.082508	-0.662598	-0.373291	-0.571777	-0.026629	-0.388960	0.084420	-0.916992	-11.106281	-45.876608	-178.614385	-0.696002	-0.016835	0.717842	-0.114509	-0.984328	-0.134110	0.708850	-0.175540	0.683167	0	0	0
58073	0	0	0	0	0	6.366752	-1.193868	7.463690	0.097571	-0.839104	0.139532	-0.670166	-0.385498	-0.569092	-0.025469	-0.392764	0.084352	-0.915408	-11.226837	-46.333854	-178.370658	-0.690176	-0.019632	0.723375	-0.112890	-0.984472	-0.134427	0.714782	-0.174441	0.677243	0	0	0
58074	0	0	0	0	0	6.738055	-1.403165	6.927743	0.179101	-0.923903	0.168575	-0.673340	-0.378906	-0.561035	-0.024065	-0.396940	0.084004	-0.913676	-11.330229	-46.835371	-178.097258	-0.683720	-0.022714	0.729391	-0.110664	-0.984728	-0.134400	0.721305	-0.172609	0.670765	0	0	0
58075	0	0	0	0	0	7.040090	-1.393117	6.464072	0.224500	-0.952286	0.174551	-0.680908	-0.376465	-0.546387	-0.022446	-0.401245	0.083436	-0.911887	-11.420952	-47.351615	-177.798916	-0.676997	-0.026020	0.735525	-0.107892	-0.985069	-0.134155	0.728034	-0.170180	0.664082	0	0	0
58076	0	0	0	0	0	7.302241	-1.517964	6.214353	0.216819	-0.956406	0.157425	-0.687256	-0.380371	-0.543457	-0.020994	-0.405564	0.082890	-0.910059	-11.509398	-47.872468	-177.520259	-0.670155	-0.029022	0.741654	-0.105446	-0.985377	-0.133840	0.734693	-0.167899	0.657295	0	0	0
58077	0	0	0	0	0	7.459460	-1.778588	6.127560	0.173058	-0.929986	0.101502	-0.694336	-0.375244	-0.541748	-0.019820	-0.409773	0.082402	-0.908242	-11.590818	-48.383953	-177.278869	-0.663387	-0.031530	0.747612	-0.103535	-0.985634	-0.133439	0.741079	-0.165925	0.650592	0	0	0
58078	0	0	0	0	0	7.495804	-2.210512	6.113509	0.141949	-0.929120	0.013713	-0.706299	-0.375488	-0.533447	-0.019187	-0.413997	0.081903	-0.906383	-11.636921	-48.905215	-177.119266	-0.656476	-0.033034	0.753623	-0.102596	-0.985847	-0.132585	0.747337	-0.164358	0.643796	0	0	0
58079	0	0	0	0	0	7.444062	-2.452955	6.236155	0.138170	-0.935241	-0.103910	-0.712646	-0.373779	-0.525391	-0.019012	-0.418293	0.081148	-0.904480	-11.613116	-49.443152	-177.047196	-0.649339	-0.033494	0.759761	-0.102280	-0.986107	-0.130887	0.753590	-0.162698	0.636892	0	0	0
58080	0	0	0	0	0	7.249923	-2.682428	6.426984	0.159750	-0.986910	-0.254705	-0.709473	-0.392822	-0.516113	-0.019501	-0.422880	0.080018	-0.902435	-11.486784	-50.028587	-177.101887	-0.641584	-0.032480	0.766365	-0.102873	-0.986434	-0.127930	0.760123	-0.160916	0.629538	0	0	0
58081	0	0	0	0	0	6.703375	-2.663134	6.490150	0.228599	-1.063849	-0.411925	-0.713867	-0.382324	-0.509033	-0.020474	-0.427867	0.078215	-0.900219	-11.219115	-50.673729	-177.280482	-0.633022	-0.030069	0.773550	-0.103794	-0.986926	-0.123301	0.767144	-0.158341	0.621625	0	0	0
58082	0	0	0	0	0	7.106469	-2.321525	6.398776	0.300908	-1.168560	-0.550449	-0.714844	-0.391113	-0.500244	-0.021949	-0.433370	0.075820	-0.897753	-10.817834	-51.393205	-177.583697	-0.623417	-0.026307	0.781446	-0.105126	-0.987539	-0.117112	0.774790	-0.155160	0.612884	0	0	0
58083	0	0	0	0	0	7.488488	-1.631533	6.327184	0.312821	-1.254749	-0.674209	-0.715576	-0.398682	-0.482910	-0.023845	-0.439286	0.073087	-0.895051	-10.321374	-52.171819	-177.988501	-0.612918	-0.021527	0.789853	-0.106898	-0.988179	-0.109884	0.782882	-0.151784	0.603371	0	0	0
58084	0	0	0	0	0	7.643220	-1.371114	6.320606	0.283840	-1.382729	-0.768084	-0.709961	-0.406250	-0.471680	-0.026251	-0.445781	0.070316	-0.891990	-9.768680	-53.030478	-178.488835	-0.601181	-0.015860	0.798956	-0.109523	-0.988733	-0.102038	0.791572	-0.148847	0.592670	0	0	0
58085	0	0	0	0	0	7.469295	-1.404812	6.439045	0.296651	-1.499282	-0.849661	-0.726074	-0.412598	-0.461670	-0.028875	-0.452794	0.067290	-0.888604	-9.137823	-53.958786	-179.063222	-0.588288	-0.009619	0.808594	-0.112254	-0.989277	-0.093438	0.800822	-0.145737	0.580900	0	0	0
58086	0	0	0	0	0	7.423536	-1.104494	6.486558	0.342146	-1.630094	-0.899622	-0.734375	-0.414551	-0.453857	-0.031653	-0.460374	0.063983	-0.884850	-8.421967	-54.962362	-179.710962	-0.574107	-0.002896	0.818775	-0.114928	-0.989809	-0.084086	0.810674	-0.142375	0.567923	0	0	0
58087	0	0	0	0	0	7.608859	-0.755580	6.531066	0.378927	-1.802778	-0.936694	-0.736328	-0.435059	-0.434082	-0.034370	-0.468691	0.060428	-0.880623	-7.638331	-56.061056	179.600749	-0.558296	0.003890	0.829633	-0.117178	-0.990334	-0.074210	0.821325	-0.138646	0.553355	0	0	0
58088	0	0	0	0	0	7.650417	-0.757152	6.613483	0.409574	-2.019477	-0.975618	-0.730957	-0.431885	-0.420410	-0.037176	-0.477930	0.056709	-0.875777	-6.778125	-57.281447	178.843433	-0.540403	0.010910	0.841336	-0.119322	-0.990804	-0.063794	0.832903	-0.134864	0.536735	0	0	0
58089	0	0	0	0	0	6.601150	-1.327690	6.419955	0.483618	-2.161788	-0.981368	-0.745361	-0.452881	-0.407471	-0.039726	-0.487734	0.052639	-0.870498	-5.822608	-58.575151	178.041921	-0.521075	0.017815	0.853325	-0.120510	-0.991302	-0.052893	0.844960	-0.130396	0.518690	0	0	0
58090	0	0	0	0	0	6.843305	-0.816880	5.876633	0.611315	-2.286363	-0.933258	-0.749023	-0.453125	-0.379150	-0.041803	-0.498006	0.048191	-0.864824	-4.775738	-59.928913	177.219729	-0.500484	0.024305	0.865404	-0.120303	-0.991860	-0.041717	0.857346	-0.124989	0.499334	0	0	0
58091	0	0	0	0	0	8.443482	-0.010445	5.154443	0.655121	-2.334993	-0.896621	-0.750977	-0.464600	-0.358643	-0.043506	-0.508419	0.043604	-0.858904	-3.661365	-61.301705	176.370737	-0.479234	0.030397	0.877160	-0.119074	-0.992412	-0.030665	0.869572	-0.119142	0.479217	0	0	0
58092	0	0	0	0	0	8.324825	0.061322	4.517079	0.651320	-2.323351	-0.862035	-0.761475	-0.474609	-0.339844	-0.045117	-0.518703	0.039146	-0.852865	-2.491865	-62.660390	175.460745	-0.457823	0.036347	0.888300	-0.117567	-0.992864	-0.019968	0.881235	-0.113577	0.458829	0	0	0
58093	0	0	0	0	0	8.656673	0.265163	4.079864	0.672172	-2.310030	-0.808973	-0.760742	-0.488281	-0.321289	-0.046391	-0.528826	0.034693	-0.846751	-1.266262	-63.999098	174.519364	-0.436381	0.041870	0.898787	-0.115257	-0.993288	-0.009688	0.892349	-0.107819	0.438278	0	0	0
58094	0	0	0	0	0	8.941967	0.439947	3.743861	0.620319	-2.276157	-0.765426	-0.765869	-0.495605	-0.291260	-0.047682	-0.538714	0.030591	-0.840582	-0.007498	-65.310313	173.511591	-0.415028	0.047201	0.908583	-0.113120	-0.993581	-0.000055	0.902749	-0.102802	0.417704	0	0	0
58095	0	0	0	0	0	8.900814	0.396062	3.547082	0.588006	-2.241128	-0.735592	-0.767090	-0.499512	-0.280273	-0.048867	-0.548350	0.026664	-0.834394	1.311840	-66.590070	172.434952	-0.393849	0.052306	0.917686	-0.110791	-0.993802	0.009096	0.912474	-0.098089	0.397203	0	0	0
58096	0	0	0	0	0	9.085463	0.373728	3.478109	0.557203	-2.239241	-0.731058	-0.768311	-0.499756	-0.255127	-0.050167	-0.557917	0.022885	-0.828063	2.749637	-67.861621	171.216143	-0.372425	0.057547	0.926276	-0.108618	-0.993919	0.018078	0.921684	-0.093877	0.376411	0	0	0
58097	0	0	0	0	0	9.115225	-0.011945	3.520310	0.523455	-2.263328	-0.767525	-0.774414	-0.516602	-0.248291	-0.051645	-0.567469	0.019135	-0.821551	4.374240	-69.129053	169.791570	-0.350624	0.063141	0.934385	-0.106575	-0.993933	0.027173	0.930432	-0.090055	0.355227	0	0	0
58098	0	0	0	0	0	8.483711	-0.651005	3.563286	0.536164	-2.307936	-0.814917	-0.765869	-0.524902	-0.219238	-0.053333	-0.577124	0.015262	-0.814770	6.280183	-70.402983	168.077130	-0.328167	0.069292	0.942075	-0.104524	-0.993845	0.036690	0.938819	-0.086429	0.333390	0	0	0
58099	0	0	0	0	0	8.335753	-0.554804	3.120738	0.650253	-2.283117	-0.855975	-0.770020	-0.531494	-0.191406	-0.054789	-0.586621	0.010743	-0.807934	8.565517	-71.637163	166.053679	-0.305747	0.075927	0.949081	-0.101135	-0.993766	0.046921	0.946726	-0.081639	0.311520	0	0	0
58100	0	0	0	0	0	9.266921	0.249055	2.540250	0.678018	-2.243890	-0.878416	-0.766357	-0.537842	-0.175781	-0.056332	-0.595898	0.006033	-0.801059	11.219295	-72.819436	163.668310	-0.283465	0.083061	0.955379	-0.097441	-0.993581	0.057471	0.954019	-0.076802	0.289739	0	0	0
58101	0	0	0	0	0	9.329658	0.626344	2.129093	0.639197	-2.166887	-0.886992	-0.768555	-0.545410	-0.149902	-0.057934	-0.604743	0.001432	-0.794310	14.167470	-73.919186	160.972970	-0.261859	0.090304	0.960872	-0.093767	-0.993283	0.067796	0.960540	-0.072345	0.268568	0	0	0
58102	0	0	0	0	0	9.246871	0.985810	1.931321	0.569138	-2.160170	-0.903936	-0.771729	-0.551025	-0.125000	-0.059873	-0.613482	-0.002937	-0.787430	17.526359	-74.971504	157.818947	-0.240110	0.097895	0.965797	-0.090688	-0.992813	0.078087	0.966500	-0.068837	0.247262	0	0	0
58103	0	0	0	0	0	9.550519	1.194147	1.583072	0.482613	-2.062549	-0.890990	-0.761719	-0.567871	-0.119141	-0.061950	-0.621696	-0.006961	-0.780774	21.176362	-75.917377	154.332943	-0.219311	0.105392	0.969946	-0.088083	-0.992228	0.087897	0.971671	-0.066159	0.226890	0	0	0
58104	0	0	0	0	0	9.362731	1.407156	1.422119	0.448788	-2.015485	-0.851032	-0.760986	-0.567383	-0.099854	-0.064022	-0.629683	-0.010748	-0.774135	25.193471	-76.791028	150.459962	-0.198800	0.112659	0.973543	-0.085587	-0.991571	0.097268	0.976296	-0.063986	0.206767	0	0	0
58105	0	0	0	0	0	9.875028	1.851976	1.384812	0.421892	-1.962862	-0.775062	-0.765137	-0.579834	-0.085205	-0.065818	-0.637340	-0.014202	-0.767635	29.451999	-77.586106	146.339959	-0.178930	0.119151	0.976620	-0.082947	-0.990933	0.105701	0.980359	-0.062094	0.187191	0	0	0
58106	0	0	0	0	0	9.484381	1.773266	1.059174	0.350787	-1.903690	-0.714775	-0.756348	-0.585205	-0.060059	-0.067679	-0.644686	-0.017175	-0.761252	33.995515	-78.297011	141.889850	-0.159598	0.125187	0.979212	-0.080898	-0.990249	0.113413	0.983862	-0.061115	0.168170	0	0	0
58107	0	0	0	0	0	9.551455	1.722947	1.235985	0.359242	-1.876551	-0.632972	-0.758301	-0.591064	-0.044922	-0.069111	-0.651866	-0.019956	-0.754915	38.836299	-78.946323	137.161319	-0.140589	0.130363	0.981448	-0.078329	-0.989651	0.120232	0.986965	-0.059972	0.149345	0	0	0
58108	0	0	0	0	0	9.434538	1.731094	1.165154	0.415241	-1.849029	-0.571480	-0.758545	-0.593994	-0.037598	-0.070187	-0.658953	-0.022777	-0.748556	44.125369	-79.523341	132.016275	-0.121710	0.135095	0.983329	-0.075059	-0.989110	0.126599	0.989724	-0.058399	0.130524	0	0	0
58109	0	0	0	0	0	9.708513	1.700201	0.886412	0.422825	-1.798339	-0.515813	-0.751221	-0.601563	-0.013184	-0.070948	-0.665745	-0.025437	-0.742363	49.667269	-80.010563	126.630317	-0.103499	0.139207	0.984840	-0.071470	-0.988639	0.132233	0.992059	-0.056700	0.112272	0	0	0
58110	0	0	0	0	0	9.667610	1.978876	0.721182	0.440566	-1.766565	-0.464055	-0.754395	-0.601074	-0.002930	-0.071533	-0.672385	-0.027978	-0.736205	55.555384	-80.409800	120.902535	-0.085562	0.142950	0.986025	-0.067701	-0.988201	0.137391	0.994030	-0.054999	0.094231	0	0	0
58111	0	0	0	0	0	9.454777	1.726843	0.555217	0.371962	-1.750859	-0.414989	-0.742188	-0.601563	0.018555	-0.072074	-0.678879	-0.030126	-0.730083	61.682914	-80.727584	114.906420	-0.067857	0.146143	0.986933	-0.064337	-0.987796	0.141847	0.995618	-0.053870	0.076432	0	0	0
58112	0	0	0	0	0	9.758943	1.561744	0.453074	0.398506	-1.738215	-0.398930	-0.749756	-0.599854	0.028564	-0.072517	-0.685306	-0.032286	-0.723916	68.140300	-80.940566	108.589213	-0.050195	0.149244	0.987526	-0.060740	-0.987398	0.146137	0.996891	-0.052647	0.058627	0	0	0
58113	0	0	0	0	0	9.805225	1.552357	0.426597	0.354373	-1.735438	-0.402380	-0.744873	-0.612061	0.041016	-0.073058	-0.691625	-0.034328	-0.717732	74.761171	-81.036069	102.090517	-0.032636	0.152356	0.987787	-0.057389	-0.986968	0.150334	0.997818	-0.051782	0.040954	0	0	0
58114	0	0	0	0	0	9.471271	1.138703	0.242649	0.342111	-1.733558	-0.418186	-0.740967	-0.617676	0.064941	-0.073733	-0.697869	-0.036293	-0.711495	81.418830	-81.007434	95.537792	-0.015084	0.155577	0.987709	-0.054265	-0.986493	0.154557	0.998413	-0.051267	0.023323	0	0	0
58115	0	0	0	0	0	9.749659	1.310876	0.112349	0.361005	-1.715132	-0.453354	-0.744629	-0.613770	0.076904	-0.074416	-0.703995	-0.038537	-0.705243	87.908238	-80.837294	89.174880	0.002293	0.159222	0.987240	-0.050704	-0.985954	0.159133	0.998711	-0.050422	0.005812	0	0	0
58116	0	0	0	0	0	9.867572	1.366729	-0.178650	0.329933	-1.699835	-0.493411	-0.720459	-0.623779	0.091309	-0.075362	-0.710030	-0.040772	-0.698939	94.048600	-80.536274	83.138798	0.019643	0.163246	0.986390	-0.047448	-0.985316	0.164013	0.998681	-0.050023	-0.011609	0	0	0
58117	0	0	0	0	0	9.842563	1.259691	-0.516182	0.310922	-1.654604	-0.543948	-0.729248	-0.621094	0.103271	-0.076515	-0.715792	-0.043176	-0.692765	99.534163	-80.111475	77.754102	0.036426	0.167824	0.985144	-0.044203	-0.984563	0.169360	0.998358	-0.049716	-0.028445	0	0	0
58118	0	0	0	0	0	9.612989	1.538663	-0.550568	0.292827	-1.622746	-0.573769	-0.718506	-0.634277	0.125732	-0.077914	-0.721396	-0.045620	-0.686612	104.412013	-79.586651	72.960248	0.052966	0.172814	0.983529	-0.041172	-0.983696	0.175060	0.997747	-0.049766	-0.044987	0	0	0
58119	0	0	0	0	0	10.066889	1.462950	-0.855350	0.264291	-1.581345	-0.594824	-0.708252	-0.635498	0.127930	-0.079382	-0.726767	-0.048067	-0.680586	108.643340	-78.999039	68.807338	0.068984	0.177920	0.981624	-0.038185	-0.982776	0.180812	0.996887	-0.049956	-0.061002	0	0	0
58120	0	0	0	0	0	10.005550	1.780633	-0.897415	0.224496	-1.541215	-0.606900	-0.710449	-0.629883	0.144287	-0.081130	-0.731964	-0.050454	-0.674612	112.301182	-78.349197	65.200087	0.084707	0.183323	0.979397	-0.035602	-0.981745	0.186841	0.995770	-0.050695	-0.076634	0	0	0
58121	0	0	0	0	0	9.513549	1.550379	-0.930701	0.183041	-1.515560	-0.608330	-0.706543	-0.639160	0.148926	-0.082913	-0.736973	-0.052693	-0.668744	115.477381	-77.675906	62.059541	0.100009	0.188561	0.976956	-0.033228	-0.980698	0.192685	0.994432	-0.051733	-0.091813	0	0	0
58122	0	0	0	0	0	9.052500	1.625523	-1.150469	0.198621	-1.500407	-0.611867	-0.697266	-0.640381	0.169434	-0.084669	-0.741884	-0.054902	-0.662891	118.294702	-76.977110	59.277522	0.115122	0.193714	0.974280	-0.030790	-0.979634	0.198417	0.992874	-0.052840	-0.106813	0	0	0
58123	0	0	0	0	0	9.317050	1.880270	-1.512527	0.199925	-1.464741	-0.607100	-0.691406	-0.648193	0.177490	-0.086360	-0.746634	-0.057207	-0.657120	120.753993	-76.258084	56.866556	0.129842	0.198923	0.971376	-0.028072	-0.978539	0.204143	0.991137	-0.053774	-0.121471	0	0	0
58124	0	0	0	0	0	9.461677	1.998041	-1.700643	0.144483	-1.424890	-0.593278	-0.683350	-0.652100	0.186279	-0.088231	-0.751205	-0.059230	-0.651458	122.891065	-75.536220	54.739951	0.144188	0.203946	0.968306	-0.025971	-0.977414	0.209731	0.989209	-0.055389	-0.135635	0	0	0
58125	0	0	0	0	0	9.454523	2.112365	-1.863109	0.153096	-1.352631	-0.596158	-0.678711	-0.656250	0.191162	-0.090018	-0.755482	-0.061382	-0.646046	124.690091	-74.818684	52.968928	0.157713	0.209057	0.965102	-0.023565	-0.976258	0.215324	0.987204	-0.056702	-0.149043	0	0	0
58126	0	0	0	0	0	9.389934	2.230163	-1.900730	0.132926	-1.298288	-0.581621	-0.669922	-0.664551	0.211426	-0.091897	-0.759519	-0.063357	-0.640837	126.228103	-74.114581	51.436746	0.170628	0.214023	0.961811	-0.021541	-0.975082	0.220797	0.985100	-0.058393	-0.161766	0	0	0
58127	0	0	0	0	0	9.646784	2.380974	-2.062678	0.121236	-1.235560	-0.568385	-0.668457	-0.670410	0.215088	-0.093668	-0.763336	-0.065347	-0.635825	127.565930	-73.426585	50.114911	0.182912	0.218877	0.958455	-0.019349	-0.973912	0.226099	0.982939	-0.059902	-0.173906	0	0	0
58128	0	0	0	0	0	9.777291	2.497385	-2.011484	0.102128	-1.181985	-0.544047	-0.660400	-0.666260	0.228027	-0.095501	-0.766956	-0.067168	-0.630988	128.729807	-72.756138	48.948006	0.194685	0.223549	0.955052	-0.017490	-0.972736	0.231254	0.980710	-0.061726	-0.185467	0	0	0
58129	0	0	0	0	0	9.417421	2.483658	-1.965988	0.076182	-1.152520	-0.499630	-0.653564	-0.667480	0.230469	-0.097191	-0.770446	-0.068785	-0.626287	129.811129	-72.114063	47.858742	0.206068	0.227730	0.951670	-0.015748	-0.971645	0.235919	0.978411	-0.063602	-0.196638	0	0	0
58130	0	0	0	0	0	9.326654	2.585328	-1.947964	0.091879	-1.134623	-0.478742	-0.649414	-0.679932	0.238037	-0.098782	-0.773872	-0.070300	-0.621629	130.831040	-71.483686	46.830466	0.217272	0.231618	0.948233	-0.014005	-0.970600	0.240290	0.976011	-0.065489	-0.207640	0	0	0
58131	0	0	0	0	0	9.119630	2.634588	-2.006651	0.090059	-1.126553	-0.440977	-0.644531	-0.668701	0.251953	-0.100219	-0.777249	-0.071742	-0.617003	131.810362	-70.865330	45.849458	0.228321	0.235193	0.944751	-0.012149	-0.969619	0.244320	0.973510	-0.067261	-0.218527	0	0	0
58132	0	0	0	0	0	9.116030	2.693436	-2.081313	0.135883	-1.119193	-0.411685	-0.637207	-0.668213	0.258789	-0.101423	-0.780611	-0.073131	-0.612382	132.779575	-70.259112	44.893403	0.239281	0.238393	0.941230	-0.010045	-0.968731	0.247912	0.970898	-0.068775	-0.229405	0	0	0
58133	0	0	0	0	0	9.283688	2.909884	-2.334498	0.170439	-1.101445	-0.373566	-0.626953	-0.683105	0.262939	-0.102323	-0.783921	-0.074565	-0.607815	133.730565	-69.668415	43.984230	0.250003	0.241292	0.937698	-0.007481	-0.967940	0.251069	0.968216	-0.069783	-0.240183	0	0	0
58134	0	0	0	0	0	9.124459	2.958593	-2.565939	0.164291	-1.063075	-0.314007	-0.625732	-0.676025	0.277344	-0.103088	-0.787115	-0.075690	-0.603401	134.651267	-69.113286	43.091180	0.260356	0.243562	0.934287	-0.005253	-0.967287	0.253628	0.965498	-0.070942	-0.250560	0	0	0
58135	0	0	0	0	0	8.929604	2.863569	-2.689576	0.182781	-1.041765	-0.261899	-0.614014	-0.687500	0.278809	-0.103572	-0.790242	-0.076748	-0.599082	135.565237	-68.582208	42.222603	0.270420	0.245396	0.930942	-0.002797	-0.966765	0.255651	0.962738	-0.071737	-0.260746	0	0	0
58136	0	0	0	0	0	9.154582	2.808925	-2.850855	0.204023	-1.008270	-0.230778	-0.617432	-0.687744	0.287354	-0.103927	-0.793285	-0.077716	-0.594860	136.446626	-68.068837	41.389930	0.280204	0.246946	0.927633	-0.000342	-0.966319	0.257347	0.959940	-0.072427	-0.270682	0	0	0
58137	0	0	0	0	0	9.228238	2.786020	-2.996142	0.205922	-0.953632	-0.194974	-0.617432	-0.686279	0.295898	-0.104079	-0.796143	-0.078619	-0.590883	137.276668	-67.591489	40.620146	0.289353	0.248182	0.924489	0.002187	-0.965973	0.258634	0.957220	-0.072814	-0.280050	0	0	0
58138	0	0	0	0	0	8.914592	2.617163	-3.083537	0.185302	-0.905775	-0.170316	-0.609619	-0.685547	0.302979	-0.104281	-0.798836	-0.079308	-0.587109	138.039232	-67.141431	39.896214	0.298028	0.249156	0.921467	0.004260	-0.965672	0.259731	0.954548	-0.073482	-0.288858	0	0	0
58139	0	0	0	0	0	8.751813	2.498694	-3.164560	0.193058	-0.860249	-0.167337	-0.613037	-0.681152	0.317139	-0.104361	-0.801388	-0.080108	-0.583497	138.745077	-66.707018	39.248326	0.306228	0.250184	0.918495	0.006606	-0.965383	0.260753	0.951935	-0.073782	-0.297280	0	0	0
58140	0	0	0	0	0	8.832474	2.503471	-3.285453	0.190033	-0.817988	-0.159600	-0.597900	-0.674561	0.310059	-0.104405	-0.803824	-0.080804	-0.580033	139.411893	-66.293275	38.634041	0.314065	0.251021	0.915615	0.008788	-0.965141	0.261584	0.949361	-0.074108	-0.305323	0	0	0
58141	0	0	0	0	0	8.842430	2.574618	-3.290215	0.168475	-0.787843	-0.131269	-0.598389	-0.692627	0.315674	-0.104445	-0.806137	-0.081423	-0.576719	140.032685	-65.898097	38.059693	0.321531	0.251747	0.912821	0.010804	-0.964923	0.262311	0.946838	-0.074479	-0.312972	0	0	0
58142	0	0	0	0	0	9.234045	2.603920	-3.280216	0.193074	-0.746360	-0.130753	-0.601318	-0.692871	0.333984	-0.104447	-0.808315	-0.082041	-0.573574	140.605908	-65.521852	37.536287	0.328563	0.252446	0.910119	0.012814	-0.964720	0.262965	0.944395	-0.074738	-0.320206	0	0	0
58143	0	0	0	0	0	9.110267	2.546831	-3.398439	0.181763	-0.692053	-0.133762	-0.589600	-0.680908	0.332520	-0.104399	-0.810334	-0.082756	-0.570624	141.121099	-65.163787	37.083095	0.335081	0.253264	0.907512	0.014974	-0.964505	0.263640	0.942070	-0.074751	-0.326979	0	0	0
58144	0	0	0	0	0	8.872150	2.418494	-3.392724	0.189388	-0.659083	-0.140403	-0.595215	-0.691895	0.342529	-0.104350	-0.812269	-0.083469	-0.567770	141.602520	-64.815753	36.663776	0.341341	0.254092	0.904944	0.017105	-0.964288	0.264303	0.939784	-0.074738	-0.333497	0	0	0
58145	0	0	0	0	0	8.993255	2.247703	-3.480065	0.192176	-0.629276	-0.155207	-0.589600	-0.682617	0.338867	-0.104292	-0.814087	-0.084331	-0.565044	142.030865	-64.475272	36.310708	0.347227	0.255164	0.902399	0.019446	-0.964023	0.265106	0.937579	-0.074504	-0.339697	0	0	0
58146	0	0	0	0	0	9.201496	2.394894	-3.510062	0.190749	-0.582528	-0.182944	-0.586670	-0.689697	0.343994	-0.104328	-0.815751	-0.085232	-0.562496	142.391541	-64.148675	36.020872	0.352668	0.256425	0.899929	0.021688	-0.963702	0.266097	0.935497	-0.074326	-0.345429	0	0	0
58147	0	0	0	0	0	8.992738	2.208040	-3.602264	0.165965	-0.545998	-0.201317	-0.578125	-0.684082	0.355713	-0.104469	-0.817284	-0.086250	-0.560085	142.684381	-63.828122	35.799919	0.357733	0.258004	0.897475	0.023958	-0.963294	0.267376	0.933517	-0.074148	-0.350783	0	0	0
58148	0	0	0	0	0	8.976091	2.373925	-3.620880	0.167457	-0.503562	-0.224641	-0.576172	-0.682373	0.360352	-0.104693	-0.818688	-0.087312	-0.557823	142.922207	-63.519133	35.630935	0.362421	0.259764	0.895083	0.026162	-0.962832	0.268832	0.931647	-0.074013	-0.355746	0	0	0
58149	0	0	0	0	0	9.058539	2.449496	-3.678918	0.152864	-0.465919	-0.256180	-0.560547	-0.686768	0.366943	-0.105005	-0.819952	-0.088558	-0.555707	143.091838	-63.215531	35.538228	0.366695	0.261930	0.892708	0.028523	-0.962263	0.270622	0.929904	-0.073773	-0.360328	0	0	0
58150	0	0	0	0	0	9.087479	2.575382	-3.613997	0.142102	-0.433835	-0.268212	-0.568115	-0.693848	0.365723	-0.105403	-0.821147	-0.089804	-0.553663	143.228319	-62.916826	35.471517	0.370785	0.264200	0.890347	0.030769	-0.961651	0.272545	0.928209	-0.073661	-0.364694	0	0	0
58151	0	0	0	0	0	9.035768	2.603964	-3.671910	0.129160	-0.407429	-0.284150	-0.561279	-0.686035	0.367920	-0.105862	-0.822212	-0.091128	-0.551775	143.315624	-62.630311	35.455630	0.374480	0.266677	0.888059	0.033030	-0.960978	0.274646	0.926647	-0.073517	-0.368675	0	0	0
58152	0	0	0	0	0	8.716626	2.624352	-3.687567	0.103621	-0.386493	-0.280610	-0.559082	-0.693604	0.373047	-0.106456	-0.823215	-0.092316	-0.549965	143.376547	-62.353048	35.443471	0.378033	0.269086	0.885824	0.034897	-0.960290	0.276814	0.925134	-0.073732	-0.372412	0	0	0
58153	0	0	0	0	0	8.484831	2.571127	-3.747319	0.096196	-0.393351	-0.259989	-0.565430	-0.699951	0.374512	-0.106976	-0.824226	-0.093456	-0.548155	143.455243	-62.081242	35.415888	0.381583	0.271336	0.883612	0.036779	-0.959644	0.278801	0.923603	-0.073888	-0.376163	0	0	0
58154	0	0	0	0	0	8.863726	2.786333	-3.712125	0.101959	-0.376384	-0.251969	-0.557129	-0.687256	0.369629	-0.107494	-0.825198	-0.094517	-0.546406	143.530972	-61.819811	35.384816	0.385013	0.273461	0.881467	0.038518	-0.959023	0.280697	0.922107	-0.074119	-0.379770	0	0	0
58155	0	0	0	0	0	8.862665	2.803487	-3.821673	0.098676	-0.347268	-0.248229	-0.545654	-0.701660	0.382568	-0.107949	-0.826080	-0.095639	-0.544786	143.590227	-61.573218	35.380792	0.388122	0.275628	0.879426	0.040392	-0.958401	0.282554	0.920722	-0.074143	-0.383110	0	0	0
58156	0	0	0	0	0	8.590809	2.775170	-3.893864	0.098759	-0.317185	-0.240137	-0.544922	-0.698486	0.380371	-0.108425	-0.826886	-0.096673	-0.543285	143.634555	-61.342876	35.382652	0.390992	0.277686	0.877505	0.042064	-0.957797	0.284351	0.919432	-0.074268	-0.386172	0	0	0
58157	0	0	0	0	0	8.432470	2.753202	-3.981577	0.096592	-0.297750	-0.236000	-0.542725	-0.705322	0.384277	-0.108829	-0.827631	-0.097765	-0.541872	143.671476	-61.123284	35.402728	0.393634	0.279769	0.875661	0.043883	-0.957197	0.286093	0.918219	-0.074189	-0.389062	0	0	0
58158	0	0	0	0	0	8.689653	2.729008	-4.057841	0.073944	-0.274664	-0.239405	-0.543701	-0.695068	0.381592	-0.109410	-0.828305	-0.098771	-0.540541	143.671041	-60.909512	35.438348	0.396119	0.281906	0.873853	0.045344	-0.956548	0.288029	0.917079	-0.074470	-0.391689	0	0	0
58159	0	0	0	0	0	8.668470	2.714111	-4.090096	0.042096	-0.237925	-0.237065	-0.539795	-0.701904	0.385742	-0.110013	-0.828852	-0.099751	-0.539399	143.639776	-60.717168	35.500842	0.398197	0.284040	0.872216	0.046677	-0.955894	0.289980	0.916112	-0.074757	-0.393892	0	0	0
58160	0	0	0	0	0	8.554390	2.680272	-4.061697	0.025572	-0.201418	-0.253432	-0.528809	-0.708740	0.386963	-0.110758	-0.829282	-0.100689	-0.538410	143.563183	-60.538157	35.593237	0.399952	0.286266	0.870683	0.047733	-0.955189	0.292124	0.915292	-0.075275	-0.395694	0	0	0
58161	0	0	0	0	0	8.572123	2.656138	-4.125004	0.013305	-0.168553	-0.275180	-0.532715	-0.704590	0.386719	-0.111548	-0.829603	-0.101788	-0.537546	143.444450	-60.364698	35.737536	0.401368	0.288811	0.869190	0.048963	-0.954393	0.294512	0.914607	-0.075649	-0.397204	0	0	0
58162	0	0	0	0	0	8.473709	2.712027	-4.150580	-0.040725	-0.132214	-0.282273	-0.532715	-0.707764	0.393311	-0.112658	-0.829797	-0.102743	-0.536832	143.259388	-60.201008	35.909288	0.402510	0.291468	0.867774	0.049555	-0.953504	0.297277	0.914073	-0.076654	-0.398239	0	0	0
58163	0	0	0	0	0	8.442703	2.845663	-4.149283	-0.058264	-0.102709	-0.293879	-0.533691	-0.707764	0.386230	-0.113760	-0.829887	-0.103763	-0.536264	143.048829	-60.050883	36.112662	0.403308	0.294234	0.866469	0.050213	-0.952584	0.300105	0.913685	-0.077527	-0.398959	0	0	0
58164	0	0	0	0	0	8.479905	2.937467	-4.143395	-0.107543	-0.074918	-0.302885	-0.533936	-0.704102	0.383545	-0.115115	-0.829874	-0.104622	-0.535828	142.789534	-59.911605	36.330039	0.403885	0.297009	0.865253	0.050282	-0.951606	0.303180	0.913427	-0.078943	-0.399273	0	0	0
58165	0	0	0	0	0	8.410947	3.029280	-4.080339	-0.132578	-0.052920	-0.291759	-0.526611	-0.715332	0.382324	-0.116493	-0.829785	-0.105462	-0.535503	142.512508	-59.784010	36.561611	0.404228	0.299786	0.864134	0.050256	-0.950614	0.306279	0.913277	-0.080378	-0.399331	0	0	0
58166	0	0	0	0	0	8.497536	3.199655	-3.970634	-0.146185	-0.035627	-0.280710	-0.523682	-0.708984	0.384766	-0.117939	-0.829632	-0.106118	-0.535295	142.224465	-59.673737	36.783088	0.404397	0.302342	0.863164	0.049813	-0.949659	0.309301	0.913226	-0.082084	-0.399100	0	0	0
58167	0	0	0	0	0	8.337998	3.242779	-3.821790	-0.176708	-0.038868	-0.251406	-0.517578	-0.712646	0.388184	-0.119385	-0.829496	-0.106680	-0.535072	141.948808	-59.565562	36.984303	0.404634	0.304740	0.862209	0.049222	-0.948733	0.312221	0.913153	-0.083896	-0.398890	0	0	0
58168	0	0	0	0	0	8.179074	3.364246	-3.713380	-0.170448	-0.058778	-0.210151	-0.515625	-0.716309	0.379639	-0.120732	-0.829454	-0.107005	-0.534771	141.725966	-59.462617	37.121012	0.405140	0.306639	0.861298	0.048383	-0.947948	0.314729	0.912973	-0.085837	-0.398888	0	0	0
58169	0	0	0	0	0	8.254342	3.368721	-3.614903	-0.168729	-0.103650	-0.153881	-0.518799	-0.717041	0.382324	-0.121918	-0.829545	-0.107144	-0.534332	141.570813	-59.359231	37.187986	0.406019	0.308051	0.860380	0.047473	-0.947312	0.316774	0.912631	-0.087771	-0.399251	0	0	0
58170	0	0	0	0	0	8.281623	3.458263	-3.499839	-0.145731	-0.133171	-0.119618	-0.521973	-0.721680	0.385254	-0.122995	-0.829747	-0.107105	-0.533779	141.469097	-59.255682	37.195573	0.407216	0.309044	0.859457	0.046436	-0.946802	0.318450	0.912151	-0.089768	-0.399904	0	0	0
58171	0	0	0	0	0	8.580837	3.477143	-3.649766	-0.102469	-0.162844	-0.086280	-0.515137	-0.717041	0.379150	-0.123756	-0.830071	-0.107104	-0.533099	141.439252	-59.149790	37.161008	0.408668	0.309758	0.858511	0.045860	-0.946426	0.319648	0.911530	-0.091259	-0.400979	0	0	0
58172	0	0	0	0	0	8.494735	3.334866	-3.734415	-0.094738	-0.170701	-0.057720	-0.521484	-0.721191	0.391846	-0.124448	-0.830437	-0.106908	-0.532407	141.440991	-59.053964	37.084244	0.410227	0.310075	0.857652	0.045046	-0.946167	0.320530	0.910870	-0.092856	-0.402111	0	0	0
58173	0	0	0	0	0	8.415404	3.104381	-3.834868	-0.087672	-0.186706	-0.052739	-0.512695	-0.714600	0.388916	-0.125072	-0.830850	-0.106793	-0.531639	141.458598	-58.949357	37.004140	0.411910	0.310443	0.856712	0.044471	-0.945905	0.321382	0.910139	-0.094281	-0.403434	0	0	0
58174	0	0	0	0	0	8.544347	3.013573	-3.935824	-0.080228	-0.190917	-0.050791	-0.518311	-0.720703	0.385498	-0.125629	-0.831312	-0.106614	-0.530822	141.500430	-58.844810	36.899938	0.413724	0.310632	0.855769	0.043885	-0.945702	0.322060	0.909344	-0.095689	-0.404891	0	0	0
58175	0	0	0	0	0	8.578424	2.911875	-4.089931	-0.084633	-0.170237	-0.076616	-0.508789	-0.718994	0.385986	-0.126294	-0.831668	-0.106616	-0.530105	141.491704	-58.739037	36.852481	0.415244	0.311236	0.854813	0.043439	-0.945366	0.323105	0.908672	-0.097035	-0.406077	0	0	0
58176	0	0	0	0	0	8.554936	2.860542	-4.262298	-0.105279	-0.138136	-0.105083	-0.519043	-0.719482	0.388916	-0.127120	-0.831922	-0.106616	-0.529508	141.436673	-58.639909	36.837675	0.416508	0.312015	0.853913	0.042771	-0.944947	0.324416	0.908126	-0.098599	-0.406923	0	0	0
58177	0	0	0	0	0	8.481112	2.798777	-4.292290	-0.162564	-0.113146	-0.118997	-0.512451	-0.720947	0.391602	-0.128190	-0.832053	-0.106624	-0.529042	141.318827	-58.544587	36.865654	0.417491	0.313070	0.853047	0.041798	-0.944397	0.326140	0.907719	-0.100505	-0.407363	0	0	0
58178	0	0	0	0	0	8.506455	2.996514	-4.239203	-0.185550	-0.085073	-0.146486	-0.501221	-0.732910	0.383057	-0.129370	-0.832104	-0.106608	-0.528678	141.169106	-58.456891	36.914236	0.418269	0.314208	0.852247	0.040627	-0.943796	0.328021	0.907414	-0.102577	-0.407526	0	0	0
58179	0	0	0	0	0	8.464206	2.946348	-4.161018	-0.228979	-0.068894	-0.158349	-0.506592	-0.728760	0.387939	-0.130797	-0.832052	-0.106632	-0.528404	140.959789	-58.367043	37.004978	0.418838	0.315674	0.851425	0.039219	-0.943044	0.330349	0.907214	-0.104971	-0.407362	0	0	0
58180	0	0	0	0	0	8.369460	3.094101	-4.120966	-0.226023	-0.037386	-0.181815	-0.507080	-0.729736	0.382080	-0.132333	-0.831921	-0.106743	-0.528206	140.713194	-58.276959	37.131086	0.419208	0.317403	0.850600	0.037805	-0.942187	0.332947	0.907103	-0.107417	-0.406973	0	0	0
58181	0	0	0	0	0	8.262066	3.110489	-4.114962	-0.249867	-0.029895	-0.188430	-0.502930	-0.732422	0.380859	-0.133905	-0.831732	-0.106863	-0.528083	140.449249	-58.193032	37.272176	0.419417	0.319188	0.849829	0.036336	-0.941300	0.335611	0.907066	-0.109882	-0.406395	0	0	0
58182	0	0	0	0	0	8.201562	3.354692	-3.974853	-0.255574	-0.037212	-0.165463	-0.511475	-0.734131	0.370117	-0.135482	-0.831578	-0.106789	-0.527938	140.205024	-58.114760	37.376886	0.419755	0.320659	0.849108	0.034555	-0.940482	0.338083	0.906980	-0.112571	-0.405852	0	0	0
58183	0	0	0	0	0	8.248923	3.530527	-3.764661	-0.236259	-0.044553	-0.148783	-0.502686	-0.733398	0.377686	-0.136899	-0.831454	-0.106769	-0.527771	139.987376	-58.038336	37.472857	0.420116	0.322050	0.848402	0.033044	-0.939718	0.340350	0.906869	-0.114952	-0.405432	0	0	0
58184	0	0	0	0	0	8.362767	3.674850	-3.668070	-0.213029	-0.059334	-0.119576	-0.500244	-0.739014	0.379883	-0.138187	-0.831387	-0.106554	-0.527585	139.811766	-57.973877	37.521379	0.420599	0.322987	0.847806	0.031365	-0.939101	0.342207	0.906704	-0.117341	-0.405116	0	0	0
58185	0	0	0	0	0	8.003506	3.774879	-3.662652	-0.159731	-0.076034	-0.088642	-0.496094	-0.736084	0.373779	-0.139144	-0.831428	-0.106464	-0.527287	139.699723	-57.905647	37.544623	0.421269	0.323772	0.847174	0.030297	-0.938609	0.343651	0.906430	-0.119103	-0.405216	0	0	0
58186	0	0	0	0	0	8.110673	3.589726	-3.709176	-0.107426	-0.104934	-0.051722	-0.498047	-0.742432	0.363037	-0.139844	-0.831620	-0.106282	-0.526836	139.662461	-57.836066	37.507059	0.422297	0.324122	0.846528	0.029424	-0.938296	0.344580	0.905980	-0.120607	-0.405776	0	0	0
58187	0	0	0	0	0	8.255137	3.739755	-3.883496	-0.053534	-0.106098	-0.035074	-0.492920	-0.743164	0.372070	-0.140234	-0.831842	-0.106228	-0.526392	139.666406	-57.774552	37.465176	0.423255	0.324366	0.845956	0.029094	-0.938100	0.345140	0.905544	-0.121470	-0.406492	0	0	0
58188	0	0	0	0	0	8.023264	3.426478	-3.973100	-0.080114	-0.129785	0.016514	-0.499023	-0.744141	0.369141	-0.140694	-0.832107	-0.105866	-0.525924	139.687384	-57.721298	37.374369	0.424393	0.324172	0.845460	0.028194	-0.937995	0.345500	0.905039	-0.122791	-0.407218	0	0	0
58189	0	0	0	0	0	8.223420	3.559075	-3.815316	-0.045929	-0.140481	0.025629	-0.503174	-0.739990	0.375244	-0.140911	-0.832456	-0.105554	-0.525375	139.757542	-57.667217	37.259251	0.425678	0.323802	0.844956	0.027676	-0.938004	0.345517	0.904451	-0.123694	-0.408250	0	0	0
58190	0	0	0	0	0	8.300792	3.416646	-3.986293	-0.022724	-0.134929	0.037211	-0.498535	-0.743652	0.375977	-0.141003	-0.832797	-0.105232	-0.524875	139.842647	-57.624028	37.138849	0.426865	0.323291	0.844553	0.027255	-0.938089	0.345320	0.903904	-0.124387	-0.409249	0	0	0
58191	0	0	0	0	0	8.201623	3.401934	-4.048748	-0.014776	-0.130727	0.039526	-0.492676	-0.741699	0.378906	-0.141048	-0.833149	-0.104951	-0.524360	139.933982	-57.579173	37.019672	0.428065	0.322800	0.844133	0.026960	-0.938181	0.345093	0.903346	-0.124964	-0.410305	0	0	0
58192	0	0	0	0	0	8.165165	3.441575	-4.009320	-0.003448	-0.128836	0.044351	-0.495117	-0.740723	0.384766	-0.141039	-0.833516	-0.104702	-0.523829	140.033952	-57.533547	36.899105	0.429280	0.322302	0.843706	0.026781	-0.938291	0.344808	0.902774	-0.125424	-0.411421	0	0	0
58193	0	0	0	0	0	8.226052	3.456825	-3.982405	0.020417	-0.129273	0.042582	-0.502686	-0.743652	0.375732	-0.140929	-0.833890	-0.104502	-0.523303	140.146126	-57.490230	36.779010	0.430466	0.321784	0.843300	0.026790	-0.938437	0.344411	0.902209	-0.125665	-0.412585	0	0	0
58194	0	0	0	0	0	8.267510	3.482791	-3.991336	0.017208	-0.129470	0.066552	-0.496582	-0.737305	0.367676	-0.140746	-0.834283	-0.104196	-0.522787	140.277812	-57.455442	36.636675	0.431675	0.321019	0.842973	0.026698	-0.938667	0.343789	0.901634	-0.125899	-0.413769	0	0	0
58195	0	0	0	0	0	8.183130	3.548691	-3.914772	0.036210	-0.123337	0.068623	-0.502197	-0.735840	0.374512	-0.140499	-0.834665	-0.103933	-0.522295	140.413040	-57.423978	36.499866	0.432812	0.320262	0.842678	0.026736	-0.938916	0.343106	0.901088	-0.125971	-0.414936	0	0	0
58196	0	0	0	0	0	8.322168	3.385732	-4.059902	0.060537	-0.120330	0.067050	-0.496582	-0.739746	0.383545	-0.140164	-0.835027	-0.103693	-0.521855	140.553614	-57.400507	36.367106	0.433831	0.319463	0.842457	0.026883	-0.939204	0.342306	0.900593	-0.125855	-0.416044	0	0	0
58197	0	0	0	0	0	8.275652	3.462473	-4.101428	0.075795	-0.097171	0.068664	-0.500977	-0.736084	0.383545	-0.139737	-0.835368	-0.103551	-0.521451	140.696226	-57.380288	36.248382	0.434732	0.318739	0.842267	0.027275	-0.939501	0.341458	0.900147	-0.125470	-0.417124	0	0	0
58198	0	0	0	0	0	8.019628	3.363518	-4.149803	0.089408	-0.074143	0.058211	-0.493896	-0.738281	0.387451	-0.139234	-0.835665	-0.103508	-0.521118	140.833495	-57.366452	36.149884	0.435443	0.318112	0.842137	0.027882	-0.939800	0.340586	0.899784	-0.124826	-0.418099	0	0	0
58199	0	0	0	0	0	8.005635	3.490852	-4.188897	0.091539	-0.065567	0.070653	-0.505371	-0.735107	0.392334	-0.138720	-0.835935	-0.103421	-0.520840	140.968421	-57.360696	36.050964	0.436060	0.317409	0.842083	0.028405	-0.940121	0.339654	0.899469	-0.124190	-0.418965	0	0	0
58200	0	0	0	0	0	8.085271	3.385781	-4.207095	0.076010	-0.062865	0.088049	-0.498535	-0.737305	0.377686	-0.138167	-0.836220	-0.103238	-0.520564	141.117550	-57.360946	35.933121	0.436709	0.316509	0.842085	0.028811	-0.940504	0.338560	0.899141	-0.123591	-0.419845	0	0	0
58201	0	0	0	0	0	8.092920	3.430499	-4.030472	0.072681	-0.057485	0.093925	-0.488770	-0.738525	0.380615	-0.137667	-0.836468	-0.103011	-0.520345	141.253317	-57.366891	35.820371	0.437260	0.315598	0.842141	0.029061	-0.940873	0.337510	0.898865	-0.123106	-0.420578	0	0	0
58202	0	0	0	0	0	8.256802	3.377605	-4.077436	0.076151	-0.068546	0.112683	-0.500000	-0.728027	0.386230	-0.137177	-0.836739	-0.102713	-0.520097	141.397273	-57.372192	35.692710	0.437899	0.314578	0.842191	0.029197	-0.941265	0.336403	0.898550	-0.122721	-0.421364	0	0	0
58203	0	0	0	0	0	8.326320	3.416960	-4.039341	0.068795	-0.072789	0.120460	-0.501465	-0.729004	0.386719	-0.136632	-0.837036	-0.102353	-0.519833	141.558018	-57.380436	35.547675	0.438595	0.313398	0.842268	0.029295	-0.941711	0.335144	0.898207	-0.122318	-0.422211	0	0	0
58204	0	0	0	0	0	8.187407	3.256598	-3.984978	0.059156	-0.091014	0.128829	-0.501465	-0.735596	0.392334	-0.136069	-0.837382	-0.101905	-0.519511	141.737364	-57.386543	35.378011	0.439448	0.312046	0.842326	0.029288	-0.942201	0.333766	0.897790	-0.122003	-0.423188	0	0	0
58205	0	0	0	0	0	8.518883	3.109015	-4.027040	0.071189	-0.103696	0.129952	-0.493652	-0.731445	0.394043	-0.135505	-0.837765	-0.101491	-0.519122	141.923383	-57.383745	35.204612	0.440424	0.310738	0.842300	0.029363	-0.942676	0.332415	0.897310	-0.121671	-0.424301	0	0	0
58206	0	0	0	0	0	8.661730	3.029400	-4.175884	0.072363	-0.085942	0.104313	-0.501709	-0.721924	0.384766	-0.134985	-0.838108	-0.101231	-0.518755	142.085779	-57.374866	35.064181	0.441291	0.309733	0.842216	0.029637	-0.943063	0.331291	0.896874	-0.121236	-0.425345	0	0	0
58207	0	0	0	0	0	8.388121	2.823099	-4.281402	0.055762	-0.072345	0.082083	-0.503418	-0.727539	0.387207	-0.134594	-0.838374	-0.100998	-0.518472	142.211816	-57.368902	34.951484	0.441971	0.308914	0.842160	0.029782	-0.943368	0.330409	0.896535	-0.120950	-0.426142	0	0	0
58208	0	0	0	0	0	8.103989	2.767916	-4.328773	0.040516	-0.061191	0.045284	-0.498291	-0.729248	0.381836	-0.134339	-0.838570	-0.100855	-0.518248	142.298583	-57.360186	34.874076	0.442493	0.308390	0.842078	0.029906	-0.943563	0.329841	0.896273	-0.120769	-0.426743	0	0	0
58209	0	0	0	0	0	8.221204	2.806724	-4.404369	0.038504	-0.037485	0.005794	-0.493652	-0.723877	0.388672	-0.134200	-0.838695	-0.100921	-0.518069	142.341582	-57.343130	34.848230	0.442838	0.308334	0.841917	0.030234	-0.943611	0.329674	0.896092	-0.120538	-0.427189	0	0	0
58210	0	0	0	0	0	8.418964	2.963593	-4.467414	0.009845	-0.004350	-0.025612	-0.500000	-0.728760	0.389893	-0.134283	-0.838689	-0.101066	-0.518029	142.320634	-57.329437	34.874406	0.442862	0.308651	0.841788	0.030402	-0.943508	0.329953	0.896074	-0.120532	-0.427228	0	0	0
58211	0	0	0	0	0	8.203413	3.043475	-4.333670	-0.001439	0.032528	-0.052289	-0.495361	-0.732666	0.388428	-0.134426	-0.838577	-0.101319	-0.518125	142.261430	-57.323769	34.942780	0.442562	0.309227	0.841735	0.030628	-0.943328	0.330446	0.896215	-0.120462	-0.426952	0	0	0
58212	0	0	0	0	0	8.169151	3.117246	-4.303833	-0.004023	0.057104	-0.072077	-0.494141	-0.736084	0.390381	-0.134646	-0.838385	-0.101672	-0.518309	142.168614	-57.320587	35.046867	0.442038	0.310057	0.841705	0.030905	-0.943066	0.331165	0.896464	-0.120375	-0.426453	0	0	0
58213	0	0	0	0	0	8.189092	3.148245	-4.199736	-0.020764	0.065070	-0.074654	-0.492188	-0.727051	0.386230	-0.134912	-0.838163	-0.101991	-0.518535	142.064761	-57.321654	35.155136	0.441438	0.310883	0.841715	0.031057	-0.942793	0.331928	0.896754	-0.120385	-0.425840	0	0	0
58214	0	0	0	0	0	8.247590	3.201968	-4.126539	-0.001483	0.067990	-0.076055	-0.495117	-0.727051	0.384033	-0.135140	-0.837947	-0.102391	-0.518746	141.962709	-57.318983	35.271694	0.440837	0.311803	0.841690	0.031389	-0.942507	0.332710	0.897038	-0.120251	-0.425279	0	0	0
58215	0	0	0	0	0	8.424934	3.203840	-4.172522	0.004535	0.074891	-0.075910	-0.495117	-0.730713	0.382324	-0.135298	-0.837716	-0.102787	-0.519000	141.867051	-57.323829	35.387448	0.440148	0.312652	0.841735	0.031772	-0.942258	0.333376	0.897363	-0.119991	-0.424667	0	0	0
58216	0	0	0	0	0	8.363741	3.166270	-4.178882	0.000002	0.088316	-0.075080	-0.499756	-0.728027	0.394775	-0.135496	-0.837434	-0.103167	-0.519328	141.755454	-57.335825	35.514526	0.439310	0.313525	0.841848	0.032057	-0.941995	0.334093	0.897763	-0.119784	-0.423878	0	0	0
58217	0	0	0	0	0	8.199052	3.180997	-4.141309	0.001582	0.090181	-0.064692	-0.493164	-0.735352	0.382080	-0.135630	-0.837167	-0.103518	-0.519654	141.657395	-57.351302	35.631094	0.438486	0.314286	0.841994	0.032363	-0.941777	0.334677	0.898155	-0.119502	-0.423128	0	0	0
58218	0	0	0	0	0	8.450185	3.172997	-4.178737	0.006547	0.096816	-0.066490	-0.500977	-0.726318	0.390137	-0.135742	-0.836887	-0.103900	-0.519998	141.557830	-57.368139	35.753564	0.437613	0.315078	0.842153	0.032735	-0.941557	0.335258	0.898567	-0.119146	-0.422352	0	0	0
58219	0	0	0	0	0	8.446594	3.228778	-4.216980	-0.002348	0.122416	-0.076414	-0.502197	-0.734619	0.383545	-0.135906	-0.836527	-0.104313	-0.520453	141.431110	-57.393656	35.901438	0.436494	0.315986	0.842393	0.033055	-0.941297	0.335958	0.899100	-0.118798	-0.421316	0	0	0
58220	0	0	0	0	0	8.368977	3.156829	-4.152783	0.001029	0.141909	-0.081579	-0.500732	-0.738525	0.385254	-0.136026	-0.836110	-0.104744	-0.521004	141.296478	-57.430391	36.062602	0.435167	0.316894	0.842738	0.033415	-0.941052	0.336609	0.899729	-0.118321	-0.420104	0	0	0
58221	0	0	0	0	0	8.372834	3.222213	-4.154643	-0.004715	0.158646	-0.092617	-0.502197	-0.734619	0.384277	-0.136222	-0.835644	-0.105242	-0.521600	141.136181	-57.465886	36.248590	0.433715	0.317997	0.843071	0.033782	-0.940735	0.337455	0.900417	-0.117879	-0.418754	0	0	0
58222	0	0	0	0	0	8.574866	3.330833	-4.184188	-0.013456	0.178821	-0.084502	-0.495850	-0.723633	0.388428	-0.136473	-0.835121	-0.105605	-0.522298	140.962894	-57.515788	36.431758	0.432105	0.318945	0.843539	0.033828	-0.940445	0.338258	0.901188	-0.117628	-0.417161	0	0	0
58223	0	0	0	0	0	8.543934	3.395296	-4.228185	-0.022768	0.217104	-0.077682	-0.499512	-0.743896	0.376953	-0.136675	-0.834496	-0.106034	-0.523156	140.768499	-57.582051	36.645689	0.430128	0.319974	0.844160	0.033965	-0.940154	0.339054	0.902129	-0.117165	-0.415255	0	0	0
58224	0	0	0	0	0	8.258602	3.347179	-4.230145	-0.037332	0.256877	-0.065660	-0.503906	-0.731689	0.380615	-0.136928	-0.833770	-0.106324	-0.524188	140.550673	-57.670593	36.867207	0.427844	0.320852	0.844987	0.033747	-0.939892	0.339801	0.903222	-0.116866	-0.412955	0	0	0
58225	0	0	0	0	0	8.307478	3.434390	-4.251394	-0.033672	0.292524	-0.048797	-0.499268	-0.734863	0.372070	-0.137060	-0.832953	-0.106654	-0.525385	140.324642	-57.779851	37.110749	0.425191	0.321694	0.846006	0.033658	-0.939679	0.340398	0.904478	-0.116259	-0.410370	0	0	0
58226	0	0	0	0	0	8.283563	3.496256	-4.285214	-0.049430	0.346799	-0.031817	-0.491943	-0.734375	0.375244	-0.137223	-0.831983	-0.106806	-0.526846	140.066957	-57.923709	37.368303	0.422051	0.322312	0.847342	0.033129	-0.939525	0.340875	0.905967	-0.115795	-0.407205	0	0	0
58227	0	0	0	0	0	8.126716	3.557494	-4.273349	-0.067327	0.389892	0.005746	-0.495850	-0.733154	0.372314	-0.137299	-0.830910	-0.106887	-0.528501	139.798630	-58.094627	37.638221	0.418524	0.322752	0.848922	0.032502	-0.939448	0.341146	0.907624	-0.115186	-0.403672	0	0	0
58228	0	0	0	0	0	8.232723	3.703732	-4.269372	-0.063394	0.445290	0.039726	-0.506592	-0.730225	0.369873	-0.137313	-0.829721	-0.106826	-0.530374	139.516291	-58.297435	37.915532	0.414584	0.322925	0.850788	0.031617	-0.939467	0.341178	0.909462	-0.114547	-0.399698	0	0	0
58229	0	0	0	0	0	8.280303	3.755329	-4.173446	-0.072301	0.496024	0.094797	-0.508301	-0.727539	0.371826	-0.137115	-0.828403	-0.106596	-0.532527	139.237307	-58.546332	38.193411	0.410104	0.322644	0.853062	0.030574	-0.939674	0.340703	0.911526	-0.113642	-0.395229	0	0	0
58230	0	0	0	0	0	8.008499	3.823439	-4.044925	-0.096333	0.534950	0.163397	-0.511475	-0.730713	0.364258	-0.136797	-0.827010	-0.105951	-0.534898	138.975582	-58.842113	38.429450	0.405316	0.321589	0.855745	0.028900	-0.940122	0.339610	0.913720	-0.112919	-0.390341	0	0	0
58231	0	0	0	0	0	8.213931	3.829530	-3.868036	-0.065620	0.551844	0.233766	-0.510254	-0.733643	0.355713	-0.136169	-0.825608	-0.105201	-0.537366	138.756059	-59.166169	38.640717	0.400341	0.320054	0.858657	0.027363	-0.940782	0.337907	0.915958	-0.111782	-0.385391	0	0	0
58232	0	0	0	0	0	8.443386	3.794260	-3.826266	-0.066704	0.580390	0.296839	-0.518066	-0.738037	0.362305	-0.135413	-0.824152	-0.104116	-0.539997	138.556459	-59.528490	38.814926	0.395127	0.317860	0.861881	0.025369	-0.941646	0.335647	0.918276	-0.110758	-0.380134	0	0	0
58233	0	0	0	0	0	8.423264	3.707896	-3.733587	-0.046250	0.607713	0.361124	-0.525391	-0.732422	0.347412	-0.134331	-0.822662	-0.102929	-0.542760	138.396220	-59.924139	38.968828	0.389635	0.315170	0.865363	0.023532	-0.942722	0.332749	0.920669	-0.109287	-0.374734	0	0	0
58234	0	0	0	0	0	8.330856	3.524458	-3.733216	-0.034142	0.629727	0.402743	-0.525635	-0.723145	0.347412	-0.133139	-0.821128	-0.101531	-0.545632	138.250500	-60.346343	39.099886	0.383954	0.312030	0.869032	0.021450	-0.943931	0.329446	0.923103	-0.107851	-0.369119	0	0	0
58235	0	0	0	0	0	8.405107	3.421350	-3.702578	-0.025187	0.657460	0.448460	-0.526123	-0.731689	0.341553	-0.131704	-0.819538	-0.100073	-0.548632	138.126618	-60.796203	39.224603	0.377977	0.308540	0.872890	0.019513	-0.945279	0.325678	0.925610	-0.106066	-0.363314	0	0	0
58236	0	0	0	0	0	8.458651	3.362668	-3.642372	-0.012205	0.681970	0.478563	-0.536133	-0.725342	0.337158	-0.130207	-0.817888	-0.098468	-0.551734	138.003900	-61.267086	39.341126	0.371787	0.304750	0.876870	0.017393	-0.946701	0.321645	0.928155	-0.104332	-0.357272	0	0	0
58237	0	0	0	0	0	8.514075	3.282155	-3.699643	-0.012949	0.725710	0.506366	-0.547852	-0.725098	0.340088	-0.128523	-0.816118	-0.096848	-0.555026	137.876235	-61.767934	39.476992	0.365133	0.300746	0.881039	0.015411	-0.948204	0.317287	0.930828	-0.102274	-0.350856	0	0	0
58238	0	0	0	0	0	8.620746	3.230145	-3.569586	-0.004179	0.764364	0.530181	-0.552002	-0.713379	0.336182	-0.126790	-0.814237	-0.095095	-0.558480	137.733666	-62.295297	39.620953	0.358115	0.296479	0.885355	0.013240	-0.949763	0.312691	0.933584	-0.100257	-0.344049	0	0	0
58239	0	0	0	0	0	8.665672	3.183545	-3.502037	-0.005687	0.795031	0.552146	-0.555176	-0.713623	0.323730	-0.124911	-0.812266	-0.093349	-0.562057	137.585842	-62.842847	39.782900	0.350757	0.292062	0.889758	0.011233	-0.951366	0.307857	0.936399	-0.097988	-0.336979	0	0	0
58240	0	0	0	0	0	8.652099	3.050985	-3.370291	-0.003967	0.828592	0.571683	-0.562012	-0.706787	0.320068	-0.122992	-0.810192	-0.091461	-0.565771	137.423785	-63.414652	39.950717	0.343075	0.287372	0.894269	0.009031	-0.953016	0.302786	0.939264	-0.095803	-0.329552	0	0	0
58241	0	0	0	0	0	8.598063	3.021849	-3.328448	0.004444	0.856129	0.581489	-0.565186	-0.707764	0.320801	-0.120956	-0.808027	-0.089657	-0.569581	137.245222	-63.998906	40.151804	0.335077	0.282679	0.898786	0.007103	-0.954663	0.297605	0.942164	-0.093336	-0.321894	0	0	0
58242	0	0	0	0	0	8.617426	2.961977	-3.214195	0.006252	0.873358	0.600638	-0.579834	-0.709717	0.319580	-0.118905	-0.805806	-0.087720	-0.573449	137.059573	-64.597473	40.349918	0.326924	0.277742	0.903316	0.004998	-0.956334	0.292234	0.945037	-0.091023	-0.314036	0	0	0
58243	0	0	0	0	0	8.626583	2.928928	-3.068936	0.001026	0.886943	0.624019	-0.586914	-0.692383	0.306152	-0.116741	-0.803525	-0.085749	-0.577378	136.873442	-65.210677	40.555187	0.318563	0.272609	0.907856	0.002995	-0.958038	0.286627	0.947897	-0.088589	-0.306012	0	0	0
58244	0	0	0	0	0	8.726006	2.985065	-3.020941	0.018524	0.907494	0.638290	-0.581299	-0.695068	0.303223	-0.114475	-0.801183	-0.083695	-0.581374	136.688117	-65.840905	40.761164	0.309998	0.267217	0.912413	0.001005	-0.959781	0.280748	0.950737	-0.086114	-0.297799	0	0	0
58245	0	0	0	0	0	8.889935	2.846909	-2.965386	0.015234	0.928758	0.663799	-0.599609	-0.697021	0.300537	-0.112114	-0.798757	-0.081625	-0.585453	136.490032	-66.486590	40.986358	0.301164	0.261672	0.916967	-0.000878	-0.961536	0.274679	0.953572	-0.083528	-0.289350	0	0	0
58246	0	0	0	0	0	9.002261	2.867777	-2.939570	0.020965	0.957918	0.685596	-0.614258	-0.692139	0.294189	-0.109729	-0.796242	-0.079448	-0.589616	136.272623	-67.149033	41.223931	0.292083	0.255914	0.921518	-0.002877	-0.963295	0.268428	0.956389	-0.081054	-0.280626	0	0	0
58247	0	0	0	0	0	9.128747	2.658681	-2.946287	0.011323	0.992959	0.703474	-0.617676	-0.690186	0.285889	-0.107233	-0.793586	-0.077238	-0.593934	136.024742	-67.836275	41.498375	0.282554	0.249968	0.926110	-0.004790	-0.965071	0.261946	0.959239	-0.078450	-0.271487	0	0	0
58248	0	0	0	0	0	9.187819	2.572585	-2.849769	0.010668	1.025721	0.707590	-0.619629	-0.678467	0.288330	-0.104766	-0.790797	-0.074934	-0.598372	135.728156	-68.541157	41.811409	0.272671	0.243894	0.930681	-0.006863	-0.966818	0.255375	0.962083	-0.076020	-0.261949	0	0	0
58249	0	0	0	0	0	9.258745	2.378310	-2.759855	-0.002417	1.071945	0.703521	-0.627686	-0.680176	0.274658	-0.102287	-0.787836	-0.072719	-0.602962	135.352682	-69.259567	42.211489	0.262297	0.237932	0.935194	-0.008769	-0.968498	0.248865	0.964947	-0.073477	-0.251948	0	0	0
