// General information: 
//  MT Manager version: 2022.2.0 
//  XDA version: 2022.2.0 build 7381 rev 124627 built on 2023-07-19
// Device information: 
//  DeviceId: 10B426F5
//  ProductCode: MTW2-3A7G6
//  Firmware Version: 4.14.0
//  Hardware Version: 3.0.0
// Device settings: 
//  Filter Profile: human(46.1)
//  Option Flags: Orientation Smoother Disabled, Position/Velocity Smoother Disabled, Continuous Zero Rotation Update Disabled, AHS Disabled, ICC Disabled
// Coordinate system: ENU
PacketCounter	SampleTimeFine	Year	Month	Day	Second	Acc_X	Acc_Y	Acc_Z	Gyr_X	Gyr_Y	Gyr_Z	Mag_X	Mag_Y	Mag_Z	Quat_q0	Quat_q1	Quat_q2	Quat_q3	Roll	Pitch	Yaw	Mat[1][1]	Mat[2][1]	Mat[3][1]	Mat[1][2]	Mat[2][2]	Mat[3][2]	Mat[1][3]	Mat[2][3]	Mat[3][3]	Vel_E	Vel_N	Vel_U
57802	0	0	0	0	0	9.708397	0.043350	-1.278562	0.001105	-0.001459	0.000379	-0.732910	0.355469	0.366699	0.278445	-0.679391	-0.321242	-0.598080	177.387495	-82.549351	52.906347	0.078208	0.103433	0.991557	0.769563	-0.638544	0.005911	0.633764	0.762603	-0.129537	0	0	0
57803	0	0	0	0	0	9.742858	0.041866	-1.303175	-0.002529	-0.002366	-0.000047	-0.733887	0.345947	0.367432	0.278437	-0.679404	-0.321209	-0.598087	177.400651	-82.549886	52.889472	0.078233	0.103403	0.991558	0.769520	-0.638595	0.005880	0.633812	0.762564	-0.129530	0	0	0
57804	0	0	0	0	0	9.735652	-0.004843	-1.237337	0.003140	0.002176	0.002821	-0.734375	0.346191	0.366211	0.278461	-0.679400	-0.321177	-0.598097	177.427760	-82.552985	52.861543	0.078251	0.103322	0.991565	0.769509	-0.638610	0.005817	0.633824	0.762563	-0.129479	0	0	0
57805	0	0	0	0	0	9.756529	0.017544	-1.282236	0.007703	0.002728	-0.000981	-0.729248	0.344482	0.366699	0.278488	-0.679383	-0.321168	-0.598109	177.440166	-82.556399	52.850660	0.078235	0.103260	0.991573	0.769525	-0.638591	0.005786	0.633807	0.762587	-0.129421	0	0	0
57806	0	0	0	0	0	9.741830	-0.034641	-1.275327	0.009912	-0.000190	-0.000223	-0.735107	0.345459	0.360840	0.278523	-0.679373	-0.321169	-0.598104	177.458316	-82.558064	52.835678	0.078244	0.103216	0.991577	0.769558	-0.638551	0.005744	0.633765	0.762627	-0.129394	0	0	0
57807	0	0	0	0	0	9.741546	0.028339	-1.230597	0.016510	0.003998	-0.001585	-0.733887	0.346191	0.371338	0.278581	-0.679338	-0.321188	-0.598106	177.472874	-82.562233	52.827902	0.078215	0.103148	0.991586	0.769632	-0.638462	0.005708	0.633679	0.762710	-0.129323	0	0	0
57808	0	0	0	0	0	9.699609	0.024276	-1.264810	0.016945	0.004914	-0.003419	-0.728271	0.349854	0.367432	0.278638	-0.679297	-0.321214	-0.598112	177.480069	-82.566738	52.828032	0.078167	0.103086	0.991596	0.769713	-0.638365	0.005688	0.633586	0.762800	-0.129246	0	0	0
57809	0	0	0	0	0	9.727989	0.052349	-1.250679	0.019822	-0.000377	-0.000450	-0.727295	0.346191	0.366211	0.278702	-0.679275	-0.321243	-0.598092	177.503028	-82.568289	52.813330	0.078178	0.103045	0.991600	0.769803	-0.638257	0.005635	0.633476	0.762896	-0.129222	0	0	0
57810	0	0	0	0	0	9.771377	0.069413	-1.288033	0.016566	0.001816	-0.002150	-0.721436	0.345703	0.364746	0.278757	-0.679246	-0.321268	-0.598086	177.516191	-82.571053	52.807223	0.078160	0.102998	0.991606	0.769880	-0.638164	0.005603	0.633384	0.762980	-0.129175	0	0	0
57811	0	0	0	0	0	9.731048	0.037441	-1.269923	0.010027	-0.004557	-0.001347	-0.738281	0.349121	0.365234	0.278779	-0.679247	-0.321277	-0.598069	177.530562	-82.570201	52.795659	0.078189	0.102994	0.991604	0.769911	-0.638128	0.005572	0.633344	0.763011	-0.129191	0	0	0
57812	0	0	0	0	0	9.721832	0.082036	-1.212500	0.012264	0.003283	-0.004789	-0.727783	0.345459	0.368408	0.278813	-0.679216	-0.321296	-0.598079	177.529401	-82.573738	52.801512	0.078142	0.102954	0.991612	0.769963	-0.638065	0.005572	0.633286	0.763069	-0.129130	0	0	0
57813	0	0	0	0	0	9.693507	0.054438	-1.226178	0.001801	0.001473	-0.007896	-0.731689	0.351074	0.363281	0.278798	-0.679200	-0.321294	-0.598105	177.508664	-82.576236	52.820650	0.078081	0.102945	0.991618	0.769946	-0.638084	0.005616	0.633313	0.763054	-0.129085	0	0	0
57814	0	0	0	0	0	9.739931	0.057148	-1.282921	0.007440	-0.004738	-0.000832	-0.728516	0.344482	0.369873	0.278815	-0.679205	-0.321297	-0.598089	177.523642	-82.575281	52.807439	0.078115	0.102940	0.991616	0.769965	-0.638062	0.005583	0.633287	0.763073	-0.129103	0	0	0
57815	0	0	0	0	0	9.739903	0.057297	-1.283128	0.004562	0.000553	-0.003804	-0.729004	0.349609	0.365723	0.278820	-0.679195	-0.321291	-0.598102	177.522986	-82.577325	52.807950	0.078093	0.102913	0.991620	0.769963	-0.638064	0.005583	0.633291	0.763075	-0.129067	0	0	0
57816	0	0	0	0	0	9.742980	0.042793	-1.302237	0.004562	0.000553	-0.003805	-0.731934	0.344238	0.363037	0.278826	-0.679184	-0.321287	-0.598113	177.522250	-82.579324	52.808923	0.078070	0.102887	0.991625	0.769966	-0.638061	0.005583	0.633291	0.763081	-0.129033	0	0	0
57817	0	0	0	0	0	9.753550	0.033904	-1.262354	0.005667	-0.000905	-0.003425	-0.725830	0.351318	0.360107	0.278835	-0.679176	-0.321286	-0.598118	177.523983	-82.580594	52.807817	0.078059	0.102868	0.991627	0.769973	-0.638053	0.005579	0.633284	0.763091	-0.129011	0	0	0
57818	0	0	0	0	0	9.731023	0.039414	-1.270051	0.004068	0.001823	-0.001411	-0.737305	0.345459	0.362549	0.278849	-0.679166	-0.321272	-0.598132	177.533248	-82.583380	52.798419	0.078046	0.102817	0.991634	0.769970	-0.638056	0.005556	0.633289	0.763095	-0.128964	0	0	0
57819	0	0	0	0	0	9.750481	0.048976	-1.243163	0.002645	-0.002002	-0.001075	-0.726318	0.348389	0.376465	0.278855	-0.679168	-0.321257	-0.598134	177.543984	-82.584156	52.786915	0.078059	0.102790	0.991636	0.769961	-0.638067	0.005531	0.633299	0.763089	-0.128951	0	0	0
57820	0	0	0	0	0	9.750454	0.048900	-1.243377	0.000669	-0.002373	0.002214	-0.722412	0.344482	0.367188	0.278862	-0.679181	-0.321226	-0.598133	177.568045	-82.584627	52.760634	0.078101	0.102748	0.991637	0.769934	-0.638100	0.005476	0.633326	0.763067	-0.128945	0	0	0
57821	0	0	0	0	0	9.747366	0.063548	-1.224356	0.007324	-0.000367	0.000287	-0.734131	0.347656	0.368896	0.278883	-0.679179	-0.321212	-0.598133	177.587385	-82.586062	52.741851	0.078120	0.102702	0.991640	0.769938	-0.638095	0.005432	0.633318	0.763077	-0.128922	0	0	0
57822	0	0	0	0	0	9.733713	0.087399	-1.245159	0.002151	-0.000732	0.001319	-0.738281	0.349854	0.369385	0.278895	-0.679183	-0.321185	-0.598137	177.608064	-82.587449	52.719836	0.078145	0.102653	0.991643	0.769922	-0.638116	0.005384	0.633336	0.763067	-0.128900	0	0	0
57823	0	0	0	0	0	9.714244	0.077897	-1.272119	0.001540	-0.000544	-0.001455	-0.735596	0.351563	0.367676	0.278894	-0.679185	-0.321163	-0.598148	177.615896	-82.588925	52.709900	0.078147	0.102619	0.991646	0.769898	-0.638145	0.005366	0.633365	0.763047	-0.128876	0	0	0
57824	0	0	0	0	0	9.739834	0.057915	-1.283624	0.000494	-0.001270	-0.002394	-0.730469	0.348877	0.372803	0.278888	-0.679187	-0.321146	-0.598157	177.619395	-82.589915	52.704252	0.078147	0.102598	0.991648	0.769873	-0.638174	0.005357	0.633394	0.763025	-0.128859	0	0	0
57825	0	0	0	0	0	9.748714	0.076629	-1.296659	0.001046	0.000727	0.000939	-0.731445	0.357178	0.367920	0.278894	-0.679190	-0.321112	-0.598169	177.637798	-82.592117	52.683340	0.078161	0.102539	0.991653	0.769844	-0.638210	0.005314	0.633428	0.763003	-0.128822	0	0	0
57826	0	0	0	0	0	9.705348	0.059427	-1.259192	0.000000	0.000000	-0.000000	-0.726563	0.345703	0.363525	0.278896	-0.679193	-0.321083	-0.598181	177.651333	-82.593890	52.667286	0.078171	0.102493	0.991657	0.769814	-0.638246	0.005282	0.633463	0.762979	-0.128793	0	0	0
57827	0	0	0	0	0	9.762401	0.052762	-1.275609	-0.000292	0.005472	-0.003489	-0.729980	0.348633	0.360352	0.278896	-0.679174	-0.321056	-0.598216	177.649181	-82.598762	52.666838	0.078121	0.102425	0.991668	0.769785	-0.638281	0.005284	0.633504	0.762959	-0.128709	0	0	0
57828	0	0	0	0	0	9.731023	0.039554	-1.270049	-0.001540	0.000544	0.001455	-0.733398	0.341064	0.371338	0.278898	-0.679180	-0.321016	-0.598230	177.668168	-82.600879	52.644397	0.078139	0.102366	0.991673	0.769745	-0.638330	0.005240	0.633551	0.762926	-0.128674	0	0	0
57829	0	0	0	0	0	9.762466	0.052941	-1.275108	-0.004360	0.003649	-0.002078	-0.737793	0.346680	0.361572	0.278881	-0.679176	-0.320973	-0.598266	177.668790	-82.604763	52.638294	0.078109	0.102304	0.991682	0.769684	-0.638404	0.005236	0.633629	0.762873	-0.128607	0	0	0
57830	0	0	0	0	0	9.741623	0.030455	-1.229940	0.004360	-0.003649	0.002078	-0.731689	0.344238	0.364014	0.278898	-0.679187	-0.320955	-0.598255	177.694672	-82.604493	52.612308	0.078158	0.102272	0.991681	0.769681	-0.638408	0.005178	0.633627	0.762873	-0.128614	0	0	0
57831	0	0	0	0	0	9.744678	0.015453	-1.249239	0.001046	0.000727	0.000939	-0.731201	0.352051	0.359863	0.278906	-0.679187	-0.320923	-0.598268	177.712116	-82.606871	52.592757	0.078168	0.102213	0.991687	0.769655	-0.638439	0.005137	0.633656	0.762855	-0.128574	0	0	0
57832	0	0	0	0	0	9.719072	0.035549	-1.237843	0.006277	-0.001093	-0.000652	-0.730225	0.347168	0.367188	0.278926	-0.679184	-0.320917	-0.598266	177.726610	-82.608001	52.579364	0.078180	0.102179	0.991689	0.769666	-0.638426	0.005104	0.633641	0.762871	-0.128556	0	0	0
57833	0	0	0	0	0	9.730995	0.039295	-1.270274	0.003314	-0.004375	0.001138	-0.724365	0.344971	0.367676	0.278936	-0.679196	-0.320899	-0.598256	177.748257	-82.607400	52.557080	0.078226	0.102157	0.991688	0.769658	-0.638437	0.005055	0.633646	0.762865	-0.128568	0	0	0
57834	0	0	0	0	0	9.736771	0.072668	-1.264414	0.001105	-0.001458	0.000379	-0.733887	0.353027	0.372070	0.278940	-0.679203	-0.320874	-0.598261	177.764411	-82.608342	52.539025	0.078248	0.102119	0.991690	0.769635	-0.638464	0.005018	0.633671	0.762847	-0.128553	0	0	0
57835	0	0	0	0	0	9.739822	0.057777	-1.283727	-0.004068	-0.001824	0.001412	-0.729980	0.354492	0.368164	0.278926	-0.679222	-0.320826	-0.598272	177.782593	-82.609048	52.515253	0.078283	0.102077	0.991691	0.769571	-0.638542	0.004977	0.633744	0.762788	-0.128543	0	0	0
57836	0	0	0	0	0	9.736744	0.072226	-1.264644	0.002268	0.000351	0.006486	-0.730713	0.345459	0.364746	0.278955	-0.679231	-0.320781	-0.598272	177.826073	-82.611159	52.470313	0.078341	0.101987	0.991696	0.769551	-0.638567	0.004878	0.633762	0.762779	-0.128510	0	0	0
57837	0	0	0	0	0	9.722073	0.019918	-1.257568	0.000813	0.004013	-0.003109	-0.736572	0.349365	0.360596	0.278956	-0.679216	-0.320757	-0.598300	177.826192	-82.615196	52.468015	0.078303	0.101928	0.991705	0.769527	-0.638596	0.004875	0.633796	0.762762	-0.128440	0	0	0
57838	0	0	0	0	0	9.741563	0.029370	-1.230443	0.004243	0.000722	0.003196	-0.735596	0.346924	0.364014	0.278983	-0.679216	-0.320729	-0.598303	177.856258	-82.617444	52.437745	0.078333	0.101856	0.991710	0.769522	-0.638603	0.004807	0.633798	0.762766	-0.128404	0	0	0
57839	0	0	0	0	0	9.749081	0.034887	-1.171271	0.001482	0.001641	-0.000896	-0.734863	0.353516	0.368408	0.278991	-0.679209	-0.320705	-0.598320	177.866131	-82.620321	52.426326	0.078323	0.101801	0.991717	0.769504	-0.638625	0.004783	0.633822	0.762755	-0.128355	0	0	0
57840	0	0	0	0	0	9.727930	0.053148	-1.251100	0.005841	-0.002007	0.001182	-0.731445	0.355713	0.366211	0.279013	-0.679212	-0.320692	-0.598314	177.888682	-82.620961	52.404557	0.078355	0.101762	0.991718	0.769510	-0.638617	0.004732	0.633809	0.762767	-0.128346	0	0	0
57841	0	0	0	0	0	9.738490	0.043967	-1.211313	0.004126	-0.000361	-0.001971	-0.728027	0.345947	0.372070	0.279023	-0.679207	-0.320682	-0.598320	177.897105	-82.622524	52.396081	0.078353	0.101729	0.991722	0.769509	-0.638619	0.004712	0.633811	0.762770	-0.128319	0	0	0
57842	0	0	0	0	0	9.727903	0.053299	-1.251307	-0.002092	-0.001454	-0.001878	-0.733154	0.346191	0.373535	0.279010	-0.679215	-0.320655	-0.598332	177.901499	-82.623416	52.388036	0.078358	0.101706	0.991724	0.769468	-0.638668	0.004701	0.633861	0.762731	-0.128304	0	0	0
57843	0	0	0	0	0	9.718965	0.034816	-1.238701	-0.004998	-0.006920	-0.000646	-0.729736	0.340088	0.362061	0.278974	-0.679248	-0.320616	-0.598332	177.910207	-82.621101	52.372733	0.078410	0.101717	0.991719	0.769394	-0.638758	0.004683	0.633944	0.762655	-0.128345	0	0	0
57844	0	0	0	0	0	9.738368	0.044498	-1.212274	-0.010898	-0.002728	-0.001268	-0.729980	0.347900	0.363770	0.278931	-0.679272	-0.320562	-0.598353	177.912456	-82.621275	52.361764	0.078427	0.101699	0.991719	0.769296	-0.638875	0.004678	0.634060	0.762559	-0.128342	0	0	0
57845	0	0	0	0	0	9.710007	0.016544	-1.226269	-0.007323	0.000366	-0.000286	-0.731689	0.343506	0.362061	0.278906	-0.679284	-0.320509	-0.598380	177.919949	-82.623357	52.347204	0.078431	0.101651	0.991724	0.769217	-0.638971	0.004660	0.634156	0.762485	-0.128307	0	0	0
57846	0	0	0	0	0	9.747539	0.000401	-1.270019	-0.004621	-0.003820	-0.001922	-0.738525	0.351318	0.372803	0.278880	-0.679302	-0.320478	-0.598388	177.923081	-82.622892	52.338971	0.078451	0.101646	0.991723	0.769160	-0.639040	0.004653	0.634223	0.762428	-0.128315	0	0	0
57847	0	0	0	0	0	9.770040	-0.004697	-1.262531	0.000494	-0.001270	-0.002394	-0.727539	0.347900	0.373535	0.278871	-0.679305	-0.320457	-0.598400	177.926219	-82.623948	52.333193	0.078450	0.101624	0.991725	0.769130	-0.639076	0.004646	0.634259	0.762401	-0.128297	0	0	0
57848	0	0	0	0	0	9.738614	-0.017841	-1.257348	0.001540	-0.000544	-0.001455	-0.730225	0.349609	0.371826	0.278873	-0.679305	-0.320438	-0.598409	177.934423	-82.625369	52.323406	0.078452	0.101591	0.991728	0.769111	-0.639098	0.004626	0.634281	0.762386	-0.128273	0	0	0
57849	0	0	0	0	0	9.693549	-0.007078	-1.272812	0.010345	0.000731	-0.002065	-0.727783	0.351807	0.371826	0.278900	-0.679292	-0.320440	-0.598411	177.945139	-82.627394	52.315184	0.078445	0.101552	0.991733	0.769138	-0.639066	0.004601	0.634250	0.762419	-0.128239	0	0	0
57850	0	0	0	0	0	9.735554	-0.002770	-1.238119	0.017057	0.000553	-0.004554	-0.734375	0.351563	0.363770	0.278947	-0.679262	-0.320477	-0.598403	177.948354	-82.629379	52.319391	0.078417	0.101530	0.991737	0.769221	-0.638967	0.004593	0.634153	0.762505	-0.128205	0	0	0
57851	0	0	0	0	0	9.727726	0.054804	-1.252620	0.016563	0.001825	-0.002161	-0.738037	0.349854	0.369629	0.279000	-0.679234	-0.320500	-0.598398	177.962412	-82.632161	52.312142	0.078400	0.101482	0.991743	0.769295	-0.638877	0.004560	0.634065	0.762586	-0.128158	0	0	0
57852	0	0	0	0	0	9.729437	0.027099	-1.199615	0.009298	0.000006	-0.003006	-0.733887	0.349365	0.362061	0.279025	-0.679219	-0.320509	-0.598398	177.968125	-82.633864	52.309347	0.078387	0.101455	0.991747	0.769327	-0.638839	0.004546	0.634028	0.762622	-0.128129	0	0	0
57853	0	0	0	0	0	9.727695	0.054811	-1.252853	0.009155	-0.006379	0.002319	-0.735840	0.351563	0.367676	0.279054	-0.679232	-0.320507	-0.598371	177.998246	-82.632132	52.281689	0.078454	0.101441	0.991743	0.769352	-0.638809	0.004479	0.633989	0.762648	-0.128161	0	0	0
57854	0	0	0	0	0	9.727638	0.054817	-1.253301	0.010896	-0.002723	-0.005022	-0.722168	0.349121	0.375977	0.279073	-0.679220	-0.320531	-0.598363	177.996377	-82.632232	52.287463	0.078443	0.101448	0.991743	0.769396	-0.638756	0.004484	0.633937	0.762692	-0.128159	0	0	0
57855	0	0	0	0	0	9.730663	0.040091	-1.272788	0.005900	-0.004190	0.000621	-0.738525	0.351563	0.368896	0.279086	-0.679231	-0.320518	-0.598351	178.017468	-82.631509	52.266386	0.078488	0.101429	0.991742	0.769394	-0.638759	0.004437	0.633934	0.762692	-0.128173	0	0	0
57856	0	0	0	0	0	9.730609	0.040085	-1.273197	0.002703	-0.004186	-0.001636	-0.738525	0.352539	0.360352	0.279085	-0.679240	-0.320508	-0.598347	178.026122	-82.630838	52.256815	0.078512	0.101425	0.991740	0.769383	-0.638772	0.004418	0.633944	0.762682	-0.128186	0	0	0
57857	0	0	0	0	0	9.756179	0.020110	-1.284862	0.003079	-0.001088	-0.002912	-0.735840	0.348633	0.368652	0.279088	-0.679236	-0.320500	-0.598354	178.028993	-82.632085	52.253461	0.078505	0.101403	0.991743	0.769378	-0.638779	0.004411	0.633952	0.762679	-0.128164	0	0	0
57858	0	0	0	0	0	9.765041	0.039007	-1.297986	0.005665	-0.000904	-0.003429	-0.730957	0.351563	0.368896	0.279098	-0.679229	-0.320501	-0.598358	178.030903	-82.633259	52.252404	0.078494	0.101385	0.991746	0.769387	-0.638768	0.004406	0.633942	0.762691	-0.128144	0	0	0
57859	0	0	0	0	0	9.741107	0.031625	-1.233993	0.005347	-0.006187	-0.002713	-0.732178	0.341553	0.371582	0.279097	-0.679240	-0.320502	-0.598345	178.036792	-82.631438	52.246671	0.078524	0.101403	0.991742	0.769388	-0.638766	0.004394	0.633937	0.762690	-0.128176	0	0	0
57860	0	0	0	0	0	9.747216	0.002299	-1.272501	0.007581	0.001651	-0.006162	-0.727539	0.348389	0.370361	0.279109	-0.679217	-0.320514	-0.598358	178.027307	-82.634021	52.258209	0.078476	0.101383	0.991747	0.769412	-0.638738	0.004413	0.633914	0.762716	-0.128131	0	0	0
57861	0	0	0	0	0	9.718532	0.037726	-1.242008	0.010895	-0.002720	-0.005025	-0.740967	0.348633	0.360107	0.279122	-0.679208	-0.320532	-0.598353	178.024937	-82.634054	52.263341	0.078466	0.101390	0.991748	0.769443	-0.638700	0.004419	0.633877	0.762746	-0.128130	0	0	0
57862	0	0	0	0	0	9.727366	0.056433	-1.255336	0.009532	-0.003276	0.001040	-0.730957	0.349609	0.366455	0.279154	-0.679210	-0.320532	-0.598336	178.049219	-82.633957	52.241959	0.078505	0.101362	0.991747	0.769473	-0.638664	0.004364	0.633836	0.762780	-0.128134	0	0	0
57863	0	0	0	0	0	9.756002	0.021487	-1.286182	0.008309	-0.002904	-0.004508	-0.732910	0.345947	0.369385	0.279166	-0.679201	-0.320547	-0.598332	178.047975	-82.634132	52.245648	0.078497	0.101364	0.991748	0.769501	-0.638631	0.004367	0.633804	0.762808	-0.128130	0	0	0
57864	0	0	0	0	0	9.739226	0.060479	-1.288112	0.008920	-0.003090	-0.001735	-0.741943	0.352295	0.360840	0.279188	-0.679198	-0.320555	-0.598321	178.059588	-82.634087	52.236687	0.078513	0.101353	0.991748	0.769529	-0.638597	0.004341	0.633767	0.762838	-0.128132	0	0	0
57865	0	0	0	0	0	9.755928	0.021552	-1.286744	0.013163	-0.002363	0.001458	-0.728027	0.351807	0.366455	0.279235	-0.679192	-0.320562	-0.598302	178.087347	-82.634657	52.213752	0.078548	0.101313	0.991749	0.769581	-0.638535	0.004279	0.633700	0.762895	-0.128124	0	0	0
57866	0	0	0	0	0	9.752857	0.036167	-1.267630	0.009849	0.002008	0.000319	-0.731689	0.352539	0.368896	0.279274	-0.679176	-0.320559	-0.598305	178.107846	-82.637570	52.196367	0.078548	0.101250	0.991755	0.769613	-0.638496	0.004231	0.633660	0.762936	-0.128075	0	0	0
57867	0	0	0	0	0	9.724213	0.070984	-1.236868	0.013481	0.002921	0.000738	-0.735107	0.348145	0.369141	0.279328	-0.679154	-0.320561	-0.598304	178.133040	-82.641009	52.176077	0.078547	0.101175	0.991763	0.769666	-0.638433	0.004173	0.633597	0.762998	-0.128018	0	0	0
57868	0	0	0	0	0	9.722511	0.098832	-1.289621	0.004994	0.001467	-0.005647	-0.733643	0.341553	0.372314	0.279332	-0.679136	-0.320564	-0.598320	178.124402	-82.643499	52.185267	0.078504	0.101153	0.991769	0.769673	-0.638425	0.004191	0.633594	0.763008	-0.127974	0	0	0
57869	0	0	0	0	0	9.716694	0.065449	-1.295824	0.001775	-0.003827	0.002595	-0.735596	0.342285	0.365723	0.279335	-0.679155	-0.320530	-0.598315	178.150322	-82.643085	52.156624	0.078559	0.101120	0.991768	0.769640	-0.638465	0.004133	0.633627	0.762979	-0.127983	0	0	0
57870	0	0	0	0	0	9.730355	0.041628	-1.275092	0.001304	0.002740	-0.005508	-0.725098	0.352051	0.363281	0.279329	-0.679139	-0.320520	-0.598341	178.140007	-82.646307	52.165372	0.078510	0.101088	0.991775	0.769623	-0.638485	0.004154	0.633653	0.762967	-0.127927	0	0	0
57871	0	0	0	0	0	9.727285	0.056621	-1.255953	-0.001916	-0.002555	0.002734	-0.731934	0.349365	0.358643	0.279326	-0.679158	-0.320477	-0.598344	178.165069	-82.646719	52.136249	0.078557	0.101042	0.991776	0.769576	-0.638542	0.004098	0.633705	0.762925	-0.127921	0	0	0
57872	0	0	0	0	0	9.739202	0.060314	-1.288304	-0.006217	-0.001097	0.000100	-0.735596	0.343262	0.364990	0.279306	-0.679173	-0.320431	-0.598362	178.175886	-82.647846	52.119345	0.078574	0.101004	0.991778	0.769507	-0.638625	0.004073	0.633786	0.762860	-0.127903	0	0	0
57873	0	0	0	0	0	9.730322	0.041689	-1.275337	-0.007757	-0.000553	0.001557	-0.735107	0.339844	0.363525	0.279284	-0.679190	-0.320373	-0.598383	178.191667	-82.649476	52.096453	0.078597	0.100950	0.991782	0.769426	-0.638723	0.004037	0.633881	0.762786	-0.127876	0	0	0
57874	0	0	0	0	0	9.730315	0.041628	-1.275396	-0.010342	-0.000737	0.002075	-0.738770	0.351563	0.367920	0.279256	-0.679213	-0.320307	-0.598406	178.208849	-82.650843	52.070748	0.078628	0.100896	0.991785	0.769330	-0.638839	0.003998	0.633995	0.762696	-0.127853	0	0	0
57875	0	0	0	0	0	9.759008	0.006571	-1.305791	-0.003749	0.003458	0.000698	-0.735107	0.345215	0.367432	0.279250	-0.679212	-0.320256	-0.598436	178.222210	-82.654698	52.052200	0.078620	0.100818	0.991794	0.769271	-0.638911	0.003966	0.634067	0.762646	-0.127787	0	0	0
57876	0	0	0	0	0	9.747096	0.002722	-1.273412	0.001046	0.000728	0.000938	-0.732910	0.346924	0.370117	0.279259	-0.679213	-0.320226	-0.598447	178.240688	-82.656883	52.031769	0.078632	0.100760	0.991799	0.769247	-0.638939	0.003924	0.634094	0.762630	-0.127751	0	0	0
57877	0	0	0	0	0	9.760793	-0.021653	-1.252401	0.013599	0.004007	0.005906	-0.729736	0.345703	0.365967	0.279326	-0.679197	-0.320208	-0.598444	178.287445	-82.661039	51.989257	0.078663	0.100645	0.991808	0.769291	-0.638888	0.003818	0.634038	0.762688	-0.127682	0	0	0
57878	0	0	0	0	0	9.724633	0.007233	-1.280594	0.007698	0.002738	-0.000998	-0.731445	0.351318	0.363770	0.279356	-0.679179	-0.320201	-0.598454	178.300895	-82.664339	51.977739	0.078648	0.100584	0.991815	0.769311	-0.638864	0.003786	0.634015	0.762716	-0.127626	0	0	0
57879	0	0	0	0	0	9.744152	0.016686	-1.253323	0.006100	0.005467	0.001016	-0.724121	0.349365	0.368652	0.279389	-0.679159	-0.320177	-0.598474	178.322226	-82.669292	51.957071	0.078631	0.100488	0.991826	0.769316	-0.638857	0.003736	0.634011	0.762734	-0.127542	0	0	0
57880	0	0	0	0	0	9.712787	0.003183	-1.247676	0.004678	0.001641	0.001356	-0.728516	0.346924	0.364258	0.279413	-0.679153	-0.320155	-0.598482	178.344601	-82.672002	51.934809	0.078641	0.100421	0.991832	0.769315	-0.638859	0.003685	0.634010	0.762742	-0.127496	0	0	0
57881	0	0	0	0	0	9.709756	0.017909	-1.228238	0.005054	0.004739	0.000078	-0.732422	0.348633	0.362061	0.279437	-0.679137	-0.320130	-0.598502	178.361570	-82.676437	51.917679	0.078624	0.100337	0.991842	0.769312	-0.638863	0.003645	0.634017	0.762750	-0.127420	0	0	0
57882	0	0	0	0	0	9.761024	-0.022446	-1.250580	0.004008	0.004011	-0.000859	-0.726563	0.350830	0.360840	0.279457	-0.679121	-0.320110	-0.598522	178.373420	-82.680467	51.905642	0.078602	0.100265	0.991851	0.769309	-0.638867	0.003616	0.634023	0.762755	-0.127351	0	0	0
57883	0	0	0	0	0	9.733754	0.025470	-1.291771	0.004008	0.004011	-0.000860	-0.740234	0.348145	0.372559	0.279477	-0.679104	-0.320090	-0.598542	178.385772	-82.684612	51.893221	0.078580	0.100192	0.991860	0.769307	-0.638869	0.003587	0.634029	0.762763	-0.127280	0	0	0
57884	0	0	0	0	0	9.769983	-0.003791	-1.262974	0.008802	0.001282	-0.000619	-0.734131	0.343506	0.363281	0.279509	-0.679090	-0.320088	-0.598544	178.401807	-82.687082	51.879733	0.078577	0.100140	0.991866	0.769334	-0.638837	0.003550	0.633996	0.762797	-0.127239	0	0	0
57885	0	0	0	0	0	9.747502	0.001449	-1.270303	0.010166	0.007294	-0.000403	-0.732910	0.344971	0.363525	0.279551	-0.679058	-0.320076	-0.598567	178.417953	-82.693047	51.866140	0.078537	0.100040	0.991879	0.769361	-0.638805	0.003511	0.633969	0.762837	-0.127136	0	0	0
57886	0	0	0	0	0	9.721988	0.021817	-1.258194	0.011530	0.007848	-0.006471	-0.725830	0.356445	0.365479	0.279585	-0.679011	-0.320092	-0.598596	178.408618	-82.699185	51.879806	0.078447	0.099975	0.991893	0.769409	-0.638746	0.003529	0.633920	0.762895	-0.127030	0	0	0
57887	0	0	0	0	0	9.738813	-0.016781	-1.255820	0.019026	0.006394	-0.001583	-0.738281	0.350098	0.361328	0.279657	-0.678966	-0.320115	-0.598601	178.426295	-82.704603	51.870417	0.078406	0.099888	0.991905	0.769500	-0.638637	0.003487	0.633815	0.762997	-0.126937	0	0	0
57888	0	0	0	0	0	9.752537	-0.040895	-1.234489	0.022280	0.004210	0.000112	-0.735840	0.359863	0.363770	0.279741	-0.678926	-0.320146	-0.598591	178.453024	-82.708760	51.853935	0.078390	0.099809	0.991914	0.769612	-0.638503	0.003426	0.633682	0.763120	-0.126867	0	0	0
57889	0	0	0	0	0	9.742032	-0.032203	-1.273848	0.025852	0.007312	0.001083	-0.732178	0.341797	0.360596	0.279849	-0.678871	-0.320182	-0.598584	178.486640	-82.714861	51.832995	0.078361	0.099698	0.991927	0.769750	-0.638336	0.003349	0.633517	0.763274	-0.126763	0	0	0
57890	0	0	0	0	0	9.708653	0.044954	-1.276558	0.025851	0.007315	0.001080	-0.739258	0.350342	0.362305	0.279953	-0.678817	-0.320216	-0.598578	178.519451	-82.720809	51.812445	0.078333	0.099589	0.991941	0.769884	-0.638176	0.003274	0.633358	0.763422	-0.126662	0	0	0
57891	0	0	0	0	0	9.714569	0.077798	-1.269642	0.018587	0.010949	0.006523	-0.730225	0.349121	0.364502	0.280054	-0.678771	-0.320204	-0.598589	178.571400	-82.729070	51.768174	0.078322	0.099416	0.991959	0.769965	-0.638079	0.003155	0.633262	0.763526	-0.126522	0	0	0
57892	0	0	0	0	0	9.701077	0.100924	-1.289338	0.010162	0.012763	0.005864	-0.739502	0.345215	0.360352	0.280128	-0.678731	-0.320167	-0.598619	178.616228	-82.738201	51.726447	0.078296	0.099234	0.991979	0.769995	-0.638042	0.003053	0.633228	0.763580	-0.126366	0	0	0
57893	0	0	0	0	0	9.714869	0.076367	-1.267435	0.001420	0.009292	0.005931	-0.734863	0.346680	0.359619	0.280166	-0.678714	-0.320107	-0.598653	178.656312	-82.745454	51.684151	0.078292	0.099078	0.991995	0.769967	-0.638077	0.002961	0.633263	0.763571	-0.126243	0	0	0
57894	0	0	0	0	0	9.704443	0.084935	-1.306419	-0.008050	0.010375	0.004336	-0.732178	0.355225	0.367676	0.280170	-0.678704	-0.320025	-0.598707	178.684265	-82.753191	51.648919	0.078269	0.098925	0.992012	0.769883	-0.638178	0.002896	0.633367	0.763507	-0.126110	0	0	0
57895	0	0	0	0	0	9.721338	0.045550	-1.303455	-0.014269	0.014740	0.010714	-0.737793	0.355713	0.363281	0.280178	-0.678701	-0.319894	-0.598777	178.737346	-82.763571	51.584591	0.078269	0.098696	0.992035	0.769753	-0.638336	0.002776	0.633525	0.763405	-0.125933	0	0	0
57896	0	0	0	0	0	9.693208	0.016717	-1.315802	-0.019614	0.015467	0.007140	-0.731201	0.352783	0.366455	0.280160	-0.678696	-0.319760	-0.598862	178.771014	-82.774253	51.536920	0.078236	0.098486	0.992058	0.769594	-0.638528	0.002698	0.633723	0.763271	-0.125750	0	0	0
57897	0	0	0	0	0	9.776078	-0.011038	-1.342125	-0.025776	0.017649	0.012957	-0.734863	0.347168	0.366699	0.280141	-0.678703	-0.319584	-0.598956	178.828218	-82.786291	51.461918	0.078235	0.098221	0.992085	0.769390	-0.638774	0.002568	0.633970	0.763100	-0.125544	0	0	0
57898	0	0	0	0	0	9.751083	-0.055062	-1.373292	-0.036179	0.019103	0.015579	-0.735596	0.346436	0.363037	0.280098	-0.678725	-0.319367	-0.599068	178.890609	-82.799141	51.375731	0.078244	0.097929	0.992113	0.769119	-0.639100	0.002427	0.634297	0.762863	-0.125325	0	0	0
57899	0	0	0	0	0	9.763350	-0.052512	-1.403525	-0.040804	0.020746	0.019932	-0.732666	0.347168	0.368652	0.280050	-0.678756	-0.319115	-0.599190	178.969620	-82.813011	51.269490	0.078275	0.097596	0.992143	0.768809	-0.639475	0.002250	0.634670	0.762592	-0.125088	0	0	0
57900	0	0	0	0	0	9.741134	-0.048632	-1.409166	-0.039821	0.023671	0.021413	-0.746582	0.348389	0.363525	0.280019	-0.678778	-0.318861	-0.599315	179.056713	-82.828506	51.156309	0.078299	0.097233	0.992177	0.768510	-0.639835	0.002055	0.635029	0.762337	-0.124823	0	0	0
57901	0	0	0	0	0	9.723230	-0.024546	-1.336584	-0.042678	0.021487	0.028360	-0.731934	0.350098	0.360596	0.279991	-0.678822	-0.318574	-0.599430	179.173645	-82.842846	51.010771	0.078390	0.096840	0.992208	0.768180	-0.640231	0.001797	0.635417	0.762054	-0.124578	0	0	0
57902	0	0	0	0	0	9.717688	-0.060027	-1.340532	-0.039220	0.023506	0.024161	-0.737061	0.341309	0.357910	0.279970	-0.678848	-0.318312	-0.599549	179.274569	-82.858215	50.884004	0.078436	0.096460	0.992242	0.767882	-0.640589	0.001574	0.635771	0.761801	-0.124315	0	0	0
57903	0	0	0	0	0	9.729674	0.005231	-1.325984	-0.039831	0.023701	0.021376	-0.729492	0.349609	0.366699	0.279937	-0.678869	-0.318057	-0.599676	179.362155	-82.873803	50.770165	0.078457	0.096095	0.992275	0.767581	-0.640950	0.001381	0.636132	0.761544	-0.124047	0	0	0
57904	0	0	0	0	0	9.710633	-0.005787	-1.350265	-0.042158	0.031005	0.021710	-0.736084	0.345703	0.367188	0.279910	-0.678873	-0.317784	-0.599829	179.450772	-82.893404	50.654113	0.078436	0.095673	0.992318	0.767267	-0.641327	0.001186	0.636514	0.761279	-0.123710	0	0	0
57905	0	0	0	0	0	9.709557	0.020432	-1.400194	-0.037426	0.030463	0.022505	-0.732422	0.350586	0.366699	0.279896	-0.678875	-0.317519	-0.599974	179.546130	-82.912633	50.533181	0.078426	0.095251	0.992359	0.766972	-0.641680	0.000977	0.636870	0.761035	-0.123379	0	0	0
57906	0	0	0	0	0	9.723180	0.057990	-1.331894	-0.044314	0.031762	0.020358	-0.737305	0.344727	0.363281	0.279859	-0.678877	-0.317243	-0.600135	179.628385	-82.932618	50.422304	0.078390	0.094832	0.992402	0.766644	-0.642072	0.000798	0.637269	0.760757	-0.123034	0	0	0
57907	0	0	0	0	0	9.737188	0.032641	-1.307615	-0.048790	0.039809	0.019364	-0.732910	0.344238	0.366455	0.279813	-0.678861	-0.316943	-0.600333	179.703448	-82.957205	50.315476	0.078294	0.094358	0.992455	0.766282	-0.642505	0.000635	0.637717	0.760450	-0.122609	0	0	0
57908	0	0	0	0	0	9.737911	0.072165	-1.429235	-0.047736	0.027592	0.023940	-0.732666	0.354492	0.353760	0.279768	-0.678886	-0.316650	-0.600481	179.801614	-82.974769	50.186604	0.078311	0.093948	0.992492	0.765929	-0.642925	0.000423	0.638138	0.760145	-0.122306	0	0	0
57909	0	0	0	0	0	9.759184	0.052516	-1.345959	-0.048522	0.041859	0.012891	-0.731445	0.354248	0.364990	0.279710	-0.678851	-0.316372	-0.600693	179.848412	-83.000557	50.109008	0.078152	0.093499	0.992547	0.765579	-0.643342	0.000322	0.638577	0.759848	-0.121859	0	0	0
57910	0	0	0	0	0	9.704088	0.030630	-1.272230	-0.049644	0.048799	0.018759	-0.733154	0.351318	0.366943	0.279677	-0.678806	-0.316062	-0.600923	179.922299	-83.030229	50.003508	0.077994	0.092961	0.992610	0.765218	-0.643771	0.000165	0.639029	0.759550	-0.121346	0	0	0
57911	0	0	0	0	0	9.696098	0.052378	-1.379893	-0.059434	0.039187	0.011540	-0.737061	0.349121	0.362793	0.279572	-0.678794	-0.315757	-0.601145	179.958229	-83.054321	49.930216	0.077844	0.092542	0.992661	0.764795	-0.644274	0.000088	0.639554	0.759175	-0.120928	0	0	0
57912	0	0	0	0	0	9.751974	0.031994	-1.320007	-0.050965	0.048134	0.008011	-0.734375	0.352539	0.367432	0.279501	-0.678736	-0.315480	-0.601389	179.981881	-83.083589	49.874570	0.077607	0.092078	0.992723	0.764433	-0.644703	0.000038	0.640015	0.758867	-0.120421	0	0	0
57913	0	0	0	0	0	9.709000	0.014621	-1.277898	-0.056328	0.054369	0.010661	-0.730713	0.348145	0.364746	0.279427	-0.678672	-0.315167	-0.601660	-179.984385	-83.116416	49.805249	0.077351	0.091550	0.992792	0.764030	-0.645181	-0.000033	0.640527	0.758525	-0.119852	0	0	0
57914	0	0	0	0	0	9.762756	-0.012520	-1.367781	-0.058188	0.044184	0.006522	-0.730713	0.351074	0.359375	0.279321	-0.678634	-0.314878	-0.601903	-179.971244	-83.143416	49.756029	0.077128	0.091126	0.992848	0.763622	-0.645663	-0.000060	0.641040	0.758166	-0.119385	0	0	0
57915	0	0	0	0	0	9.749322	-0.029568	-1.258762	-0.057161	0.057907	0.003788	-0.742676	0.345947	0.367676	0.279230	-0.678549	-0.314581	-0.602196	-179.969770	-83.178267	49.718871	0.076796	0.090616	0.992921	0.763220	-0.646139	-0.000063	0.641559	0.757822	-0.118781	0	0	0
57916	0	0	0	0	0	9.739772	-0.020096	-1.293338	-0.056296	0.052241	0.010021	-0.735352	0.351563	0.367188	0.279153	-0.678489	-0.314275	-0.602459	-179.938156	-83.209879	49.652145	0.076547	0.090108	0.992986	0.762821	-0.646609	-0.000128	0.642062	0.757481	-0.118233	0	0	0
57917	0	0	0	0	0	9.766090	-0.040186	-1.299478	-0.050832	0.054643	0.002566	-0.741943	0.352783	0.357422	0.279071	-0.678405	-0.314004	-0.602734	-179.939287	-83.242816	49.620725	0.076227	0.089632	0.993054	0.762454	-0.647042	-0.000125	0.642537	0.757167	-0.117662	0	0	0
57918	0	0	0	0	0	9.735351	-0.053116	-1.288814	-0.045897	0.063774	0.003773	-0.730957	0.350098	0.361572	0.279028	-0.678285	-0.313734	-0.603029	-179.931188	-83.281038	49.583686	0.075855	0.089078	0.993132	0.762126	-0.647428	-0.000141	0.642969	0.756903	-0.116999	0	0	0
57919	0	0	0	0	0	9.700345	-0.023162	-1.311346	-0.058358	0.061660	0.003831	-0.746582	0.347412	0.356689	0.278942	-0.678189	-0.313430	-0.603335	-179.929113	-83.318121	49.545656	0.075497	0.088538	0.993207	0.761720	-0.647906	-0.000144	0.643493	0.756557	-0.116357	0	0	0
57920	0	0	0	0	0	9.764744	-0.059078	-1.359979	-0.054733	0.062580	0.004250	-0.735596	0.354004	0.361816	0.278869	-0.678086	-0.313134	-0.603638	-179.923275	-83.355657	49.505804	0.075136	0.087991	0.993284	0.761335	-0.648359	-0.000155	0.643991	0.756233	-0.115706	0	0	0
57921	0	0	0	0	0	9.753352	-0.062936	-1.321355	-0.052456	0.073738	0.006505	-0.741455	0.347168	0.358398	0.278829	-0.677948	-0.312821	-0.603973	-179.904451	-83.399690	49.454293	0.074719	0.087343	0.993372	0.760963	-0.648795	-0.000192	0.644478	0.755934	-0.114942	0	0	0
57922	0	0	0	0	0	9.735119	-0.072165	-1.341512	-0.051811	0.071375	0.008686	-0.743896	0.353271	0.361328	0.278793	-0.677821	-0.312507	-0.604295	-179.874099	-83.442258	49.391456	0.074334	0.086701	0.993457	0.760593	-0.649229	-0.000251	0.644959	0.755636	-0.114204	0	0	0
57923	0	0	0	0	0	9.704568	-0.085560	-1.329654	-0.050394	0.075240	0.008324	-0.737061	0.348877	0.363281	0.278766	-0.677680	-0.312191	-0.604629	-179.844067	-83.487119	49.329719	0.073921	0.086031	0.993546	0.760232	-0.649652	-0.000309	0.645433	0.755348	-0.113426	0	0	0
57924	0	0	0	0	0	9.720577	-0.033443	-1.328236	-0.049632	0.081502	0.005739	-0.736084	0.352295	0.355713	0.278745	-0.677514	-0.311879	-0.604986	-179.825932	-83.535488	49.280445	0.073447	0.085332	0.993642	0.759878	-0.650066	-0.000342	0.645904	0.755071	-0.112587	0	0	0
57925	0	0	0	0	0	9.744070	-0.038803	-1.312246	-0.045561	0.083350	0.004332	-0.742432	0.346436	0.353516	0.278735	-0.677335	-0.311580	-0.605344	-179.811328	-83.584913	49.236972	0.072952	0.084627	0.993739	0.759549	-0.650450	-0.000368	0.646346	0.754820	-0.111730	0	0	0
57926	0	0	0	0	0	9.723663	-0.061396	-1.258859	-0.044538	0.097129	0.001578	-0.742920	0.346680	0.362061	0.278742	-0.677108	-0.311275	-0.605752	-179.810339	-83.642240	49.207899	0.072346	0.083837	0.993850	0.759230	-0.650822	-0.000367	0.646789	0.754587	-0.110736	0	0	0
57927	0	0	0	0	0	9.742387	0.004830	-1.327715	-0.039036	0.089795	0.003505	-0.740479	0.346680	0.358643	0.278760	-0.676899	-0.310989	-0.606124	-179.796613	-83.695432	49.168908	0.071800	0.083089	0.993952	0.758943	-0.651158	-0.000390	0.647187	0.754381	-0.109813	0	0	0
57928	0	0	0	0	0	9.791760	-0.020629	-1.321463	-0.032237	0.103722	0.002559	-0.744629	0.347168	0.359863	0.278822	-0.676636	-0.310708	-0.606533	-179.782624	-83.756534	49.133853	0.071157	0.082244	0.994069	0.758702	-0.651437	-0.000413	0.647540	0.754232	-0.108753	0	0	0
57929	0	0	0	0	0	9.755106	-0.038639	-1.365880	-0.027128	0.106301	0.002098	-0.736572	0.348877	0.362061	0.278901	-0.676359	-0.310439	-0.606944	-179.767958	-83.819110	49.100567	0.070494	0.081382	0.994187	0.758490	-0.651685	-0.000436	0.647861	0.754112	-0.107667	0	0	0
57930	0	0	0	0	0	9.775547	-0.029574	-1.328105	-0.020330	0.107198	0.004816	-0.744385	0.346680	0.359863	0.279015	-0.676072	-0.310182	-0.607342	-179.733969	-83.882195	49.052266	0.069845	0.080495	0.994305	0.758325	-0.651876	-0.000495	0.648124	0.754041	-0.106572	0	0	0
57931	0	0	0	0	0	9.738130	0.014734	-1.326771	-0.019635	0.115692	0.002755	-0.739502	0.352783	0.355469	0.279134	-0.675757	-0.309918	-0.607772	-179.709506	-83.950040	49.013200	0.069127	0.079559	0.994430	0.758158	-0.652071	-0.000534	0.648397	0.753972	-0.105394	0	0	0
57932	0	0	0	0	0	9.691568	0.040462	-1.312415	-0.028091	0.117640	0.001882	-0.747803	0.342773	0.352539	0.279229	-0.675445	-0.309632	-0.608222	-179.694030	-84.019112	48.979056	0.068388	0.078613	0.994557	0.757945	-0.652318	-0.000556	0.648724	0.753857	-0.104195	0	0	0
57933	0	0	0	0	0	9.724273	0.082835	-1.357927	-0.027256	0.118485	-0.006997	-0.747314	0.353516	0.357910	0.279300	-0.675114	-0.309377	-0.608686	-179.726660	-84.088728	48.993584	0.067575	0.077719	0.994683	0.757741	-0.652555	-0.000491	0.649047	0.753745	-0.102987	0	0	0
57934	0	0	0	0	0	9.729397	0.069219	-1.365203	-0.019758	0.127852	-0.006290	-0.743408	0.351318	0.347412	0.279413	-0.674746	-0.309130	-0.609168	-179.751270	-84.163674	49.004546	0.066707	0.076749	0.994816	0.757588	-0.652733	-0.000441	0.649316	0.753690	-0.101686	0	0	0
57935	0	0	0	0	0	9.739207	0.151647	-1.319927	-0.014706	0.129390	-0.011914	-0.740234	0.343262	0.349609	0.279531	-0.674356	-0.308916	-0.609654	-179.804325	-84.239537	49.047184	0.065786	0.075804	0.994950	0.757472	-0.652867	-0.000343	0.649544	0.753670	-0.100369	0	0	0
57936	0	0	0	0	0	9.720898	0.206807	-1.288993	-0.017839	0.140375	-0.018570	-0.747803	0.353271	0.352051	0.279633	-0.673926	-0.308698	-0.610192	-179.899673	-84.321674	49.130340	0.064743	0.074821	0.995093	0.757339	-0.653022	-0.000173	0.649805	0.753634	-0.098943	0	0	0
57937	0	0	0	0	0	9.703762	0.228631	-1.355370	-0.013819	0.141208	-0.025160	-0.746094	0.353271	0.343750	0.279728	-0.673479	-0.308513	-0.610735	179.966418	-84.404268	49.254396	0.063644	0.073874	0.995235	0.757234	-0.653143	0.000057	0.650035	0.753622	-0.097509	0	0	0
57938	0	0	0	0	0	9.735797	0.307660	-1.300179	-0.005427	0.148149	-0.038990	-0.743896	0.341309	0.348877	0.279821	-0.672977	-0.308391	-0.611308	179.750947	-84.490788	49.465362	0.062395	0.072966	0.995381	0.757194	-0.653190	0.000417	0.650203	0.753670	-0.096005	0	0	0
57939	0	0	0	0	0	9.730394	0.369768	-1.299232	0.000224	0.159351	-0.051292	-0.748779	0.344727	0.349854	0.279913	-0.672412	-0.308312	-0.611927	179.457191	-84.583626	49.758245	0.060979	0.072052	0.995535	0.757198	-0.653184	0.000894	0.650332	0.753763	-0.094389	0	0	0
57940	0	0	0	0	0	9.678820	0.506587	-1.269129	0.011367	0.162093	-0.066699	-0.746582	0.340332	0.349365	0.279999	-0.671800	-0.308315	-0.612558	179.064540	-84.677713	50.156771	0.059429	0.071220	0.995689	0.757283	-0.653085	0.001514	0.650377	0.753928	-0.092746	0	0	0
57941	0	0	0	0	0	9.680646	0.542263	-1.305681	0.009266	0.169556	-0.083375	-0.751709	0.345947	0.341553	0.280033	-0.671144	-0.308352	-0.613243	178.549687	-84.775492	50.675936	0.057704	0.070441	0.995846	0.757354	-0.653001	0.002305	0.650450	0.754074	-0.091029	0	0	0
57942	0	0	0	0	0	9.661940	0.604583	-1.271715	0.016765	0.170390	-0.104479	-0.749512	0.339844	0.341309	0.280034	-0.670439	-0.308486	-0.613946	177.885873	-84.872963	51.349716	0.055814	0.069791	0.995999	0.757493	-0.652835	0.003297	0.650453	0.754278	-0.089303	0	0	0
57943	0	0	0	0	0	9.678297	0.667766	-1.260749	0.004331	0.173930	-0.125109	-0.751709	0.341553	0.343506	0.279933	-0.669708	-0.308645	-0.614709	177.052677	-84.971186	52.186173	0.053742	0.069249	0.996151	0.757559	-0.652751	0.004507	0.650550	0.754401	-0.087541	0	0	0
57944	0	0	0	0	0	9.663399	0.608680	-1.317161	-0.000876	0.169417	-0.135282	-0.751221	0.351318	0.339600	0.279778	-0.668982	-0.308829	-0.615478	176.119186	-85.065281	53.120305	0.051624	0.068808	0.996293	0.757596	-0.652698	0.005822	0.650679	0.754487	-0.085823	0	0	0
57945	0	0	0	0	0	9.668317	0.579333	-1.267340	-0.005312	0.171219	-0.148084	-0.758057	0.334473	0.345215	0.279571	-0.668236	-0.309039	-0.616276	175.060356	-85.158380	54.177561	0.049398	0.068436	0.996432	0.757607	-0.652670	0.007268	0.650839	0.754545	-0.084088	0	0	0
57946	0	0	0	0	0	9.649943	0.537061	-1.304355	-0.012986	0.176345	-0.157575	-0.760010	0.345703	0.341309	0.279316	-0.667469	-0.309249	-0.617116	173.886623	-85.252144	55.345554	0.047066	0.068087	0.996569	0.757570	-0.652695	0.008815	0.651055	0.754555	-0.082300	0	0	0
57947	0	0	0	0	0	9.642423	0.562523	-1.327780	-0.007129	0.170175	-0.167338	-0.763428	0.343018	0.338379	0.279037	-0.666699	-0.309515	-0.617941	172.605604	-85.339518	56.623717	0.044699	0.067851	0.996694	0.757563	-0.652678	0.010457	0.651229	0.754591	-0.080575	0	0	0
57948	0	0	0	0	0	9.643603	0.579139	-1.311970	0.009968	0.157895	-0.177661	-0.758301	0.343506	0.341309	0.278767	-0.665925	-0.309888	-0.618710	171.228189	-85.416751	58.008961	0.042334	0.067772	0.996802	0.757677	-0.652516	0.012186	0.651255	0.754738	-0.078973	0	0	0
57949	0	0	0	0	0	9.629644	0.731659	-1.246016	0.031630	0.170441	-0.199946	-0.760498	0.340332	0.331299	0.278519	-0.665046	-0.310384	-0.619518	169.641504	-85.495950	59.616276	0.039719	0.067744	0.996912	0.757934	-0.652178	0.014120	0.651120	0.755033	-0.077250	0	0	0
57950	0	0	0	0	0	9.569596	0.848423	-1.223005	0.062378	0.177744	-0.224259	-0.762207	0.341309	0.336182	0.278310	-0.664063	-0.311045	-0.620335	167.829150	-85.572811	61.467603	0.036871	0.067817	0.997016	0.758398	-0.651589	0.016274	0.650748	0.755535	-0.075457	0	0	0
57951	0	0	0	0	0	9.528012	1.052913	-1.199155	0.085915	0.171261	-0.250471	-0.752441	0.339111	0.323975	0.278088	-0.663024	-0.311876	-0.621128	165.789129	-85.637708	63.560796	0.033867	0.068107	0.997103	0.759019	-0.650801	0.018673	0.650187	0.756188	-0.073735	0	0	0
57952	0	0	0	0	0	9.476373	1.289047	-1.137860	0.109897	0.175828	-0.288279	-0.764404	0.341797	0.331055	0.277833	-0.661877	-0.312899	-0.621950	163.417033	-85.693188	66.000448	0.030544	0.068605	0.997176	0.759798	-0.649806	0.021433	0.649442	0.756997	-0.071974	0	0	0
57953	0	0	0	0	0	9.413846	1.490008	-1.143005	0.142264	0.188755	-0.334986	-0.768799	0.336182	0.325684	0.277563	-0.660568	-0.314161	-0.622825	160.635558	-85.739121	68.869702	0.026784	0.069302	0.997236	0.760796	-0.648523	0.024635	0.648438	0.758033	-0.070095	0	0	0
57954	0	0	0	0	0	9.264874	1.768065	-1.098495	0.178374	0.207459	-0.397447	-0.767090	0.333496	0.332275	0.277242	-0.659051	-0.315711	-0.623791	157.315423	-85.770731	72.299054	0.022423	0.070256	0.997277	0.762021	-0.646927	0.028441	0.647164	0.759309	-0.068043	0	0	0
57955	0	0	0	0	0	9.108229	2.017011	-1.061445	0.198260	0.215609	-0.460744	-0.766602	0.327881	0.319580	0.276800	-0.657377	-0.317518	-0.624835	153.500147	-85.775524	76.236279	0.017526	0.071549	0.997283	0.763368	-0.645127	0.032869	0.645726	0.760718	-0.065925	0	0	0
57956	0	0	0	0	0	9.171453	2.232213	-1.067022	0.200158	0.202080	-0.527574	-0.769531	0.325928	0.316650	0.276132	-0.655631	-0.319567	-0.625920	149.303347	-85.734968	80.557217	0.012201	0.073362	0.997231	0.764710	-0.643255	0.037965	0.644259	0.762129	-0.063950	0	0	0
57957	0	0	0	0	0	9.253931	2.297050	-1.009562	0.166313	0.202903	-0.586200	-0.779785	0.316406	0.314453	0.275171	-0.653827	-0.321701	-0.627136	144.823584	-85.652424	85.143279	0.006418	0.075535	0.997123	0.765813	-0.641579	0.043672	0.643031	0.763329	-0.061963	0	0	0
57958	0	0	0	0	0	9.256700	2.308002	-1.051340	0.100572	0.188907	-0.626332	-0.778809	0.309082	0.312988	0.273841	-0.652088	-0.323773	-0.628461	140.340348	-85.522872	89.695226	0.000415	0.078060	0.996949	0.766454	-0.640364	0.049821	0.642299	0.764094	-0.060095	0	0	0
57959	0	0	0	0	0	9.341851	2.190702	-1.094786	0.025906	0.166438	-0.660264	-0.781250	0.310059	0.313232	0.272120	-0.650458	-0.325750	-0.629875	136.027562	-85.344111	94.034290	-0.005711	0.080970	0.996700	0.766577	-0.639675	0.056358	0.642127	0.764369	-0.058417	0	0	0
57960	0	0	0	0	0	9.536006	2.024066	-1.098632	-0.046897	0.144681	-0.681560	-0.786865	0.300537	0.312744	0.270058	-0.648954	-0.327591	-0.631356	132.030774	-85.123537	98.015571	-0.011854	0.084177	0.996380	0.766189	-0.639505	0.063142	0.642506	0.764164	-0.056915	0	0	0
57961	0	0	0	0	0	9.651727	1.897206	-1.152997	-0.093262	0.109351	-0.693007	-0.791016	0.301270	0.304932	0.267747	-0.647597	-0.329368	-0.632808	128.498119	-84.863440	101.505759	-0.017858	0.087731	0.995984	0.765461	-0.639656	0.070069	0.643234	0.763638	-0.055731	0	0	0
57962	0	0	0	0	0	9.888951	1.746641	-1.122456	-0.126020	0.087166	-0.710312	-0.790771	0.295410	0.320068	0.265237	-0.646319	-0.331121	-0.634256	125.346640	-84.570701	104.595758	-0.023843	0.091564	0.995514	0.764476	-0.640016	0.077176	0.644211	0.762886	-0.054738	0	0	0
57963	0	0	0	0	0	9.935870	1.706933	-1.104407	-0.130759	0.070895	-0.725823	-0.798584	0.283447	0.312256	0.262632	-0.645062	-0.332930	-0.635671	122.548613	-84.250896	107.329787	-0.029839	0.095625	0.994970	0.763416	-0.640365	0.084439	0.645218	0.762095	-0.053894	0	0	0
57964	0	0	0	0	0	10.029021	1.806971	-1.084301	-0.110698	0.036105	-0.754485	-0.798096	0.273438	0.310303	0.259939	-0.643834	-0.334932	-0.636969	120.143188	-83.895095	109.681959	-0.035818	0.100136	0.994329	0.762427	-0.640505	0.091968	0.646082	0.761398	-0.053405	0	0	0
57965	0	0	0	0	0	10.062543	2.172320	-1.029306	-0.070572	0.013909	-0.796104	-0.802734	0.268311	0.307129	0.257197	-0.642544	-0.337222	-0.638175	118.022341	-83.502549	111.772459	-0.041973	0.105087	0.993577	0.761634	-0.640261	0.099893	0.646646	0.760935	-0.053164	0	0	0
57966	0	0	0	0	0	10.084693	2.619199	-1.002935	-0.035359	0.011110	-0.857775	-0.809570	0.267334	0.309570	0.254366	-0.641104	-0.339819	-0.639379	116.049132	-83.070289	113.736474	-0.048566	0.110445	0.992695	0.760992	-0.639642	0.108396	0.646941	0.760697	-0.052983	0	0	0
57967	0	0	0	0	0	10.233166	3.115057	-0.775270	0.036795	0.052292	-0.937816	-0.799805	0.259033	0.305420	0.251576	-0.639288	-0.342847	-0.640684	114.034425	-82.598397	115.786203	-0.056040	0.115996	0.991668	0.760718	-0.638330	0.117654	0.646659	0.760973	-0.052468	0	0	0
57968	0	0	0	0	0	10.063418	3.701820	-0.359791	0.066272	0.084871	-1.018297	-0.808350	0.244873	0.307617	0.248672	-0.637181	-0.346174	-0.642126	112.034248	-82.083047	117.840267	-0.064325	0.121795	0.990469	0.760509	-0.636651	0.127677	0.646134	0.761473	-0.051674	0	0	0
57969	0	0	0	0	0	9.883920	3.961504	-0.041170	-0.022017	0.072111	-1.106168	-0.812256	0.238525	0.313721	0.245174	-0.635052	-0.349507	-0.643772	110.161885	-81.508773	119.717030	-0.073197	0.128239	0.989038	0.759583	-0.635469	0.138610	0.646278	0.761403	-0.050894	0	0	0
57970	0	0	0	0	0	9.945235	4.216516	-0.132725	-0.024378	0.040016	-1.202781	-0.808594	0.233643	0.308838	0.241294	-0.632842	-0.353164	-0.645417	108.527532	-80.868646	121.354325	-0.082575	0.135523	0.987327	0.758465	-0.634105	0.150473	0.646461	0.761279	-0.050428	0	0	0
57971	0	0	0	0	0	10.042610	4.445383	-0.215194	-0.064609	-0.008379	-1.296062	-0.818359	0.218018	0.309814	0.236888	-0.630648	-0.357032	-0.647067	107.148259	-80.162358	122.712586	-0.092335	0.143758	0.985296	0.756888	-0.632824	0.163261	0.646989	0.760833	-0.050376	0	0	0
57972	0	0	0	0	0	10.064490	4.832839	-0.240289	-0.081600	-0.010938	-1.387750	-0.819092	0.209961	0.308350	0.232120	-0.628289	-0.361120	-0.648819	105.873240	-79.400728	123.958195	-0.102746	0.152567	0.982938	0.754983	-0.631426	0.176925	0.647645	0.760279	-0.050309	0	0	0
57973	0	0	0	0	0	10.104458	5.148349	-0.284314	-0.200028	-0.001447	-1.476149	-0.832275	0.194580	0.310791	0.226695	-0.625843	-0.365074	-0.650884	104.610755	-78.586453	125.125132	-0.113858	0.161853	0.980224	0.752063	-0.630661	0.191490	0.649182	0.758993	-0.049918	0	0	0
57974	0	0	0	0	0	10.145962	5.210283	-0.316201	-0.319476	0.003051	-1.558405	-0.833252	0.175293	0.305420	0.220627	-0.623333	-0.368867	-0.653235	103.382192	-77.722933	126.190924	-0.125559	0.171611	0.977131	0.748097	-0.630522	0.206866	0.651603	0.756962	-0.049214	0	0	0
57975	0	0	0	0	0	10.169258	5.226440	-0.246821	-0.452694	-0.018995	-1.617898	-0.831543	0.166748	0.306641	0.213889	-0.620886	-0.372414	-0.655789	102.249653	-76.818248	127.083576	-0.137504	0.181921	0.973652	0.742987	-0.631118	0.222849	0.655029	0.754053	-0.048384	0	0	0
57976	0	0	0	0	0	10.426177	4.727115	-0.377900	-0.580085	-0.075013	-1.677227	-0.828369	0.147705	0.302246	0.206446	-0.618607	-0.375756	-0.658417	101.276672	-75.871113	127.740341	-0.149412	0.193036	0.969749	0.736746	-0.632375	0.239391	0.659456	0.750226	-0.047734	0	0	0
57977	0	0	0	0	0	10.549473	4.233232	-0.598787	-0.666708	-0.084780	-1.731465	-0.835449	0.140869	0.303467	0.198520	-0.616290	-0.378965	-0.661182	100.354798	-74.889411	128.296116	-0.161552	0.204589	0.965424	0.729620	-0.633951	0.256437	0.664496	0.745821	-0.046856	0	0	0
57978	0	0	0	0	0	10.462933	3.830271	-0.722513	-0.782230	-0.078972	-1.763601	-0.833984	0.114990	0.310303	0.190126	-0.613959	-0.381846	-0.664154	99.437573	-73.888592	128.780615	-0.173813	0.216330	0.960724	0.721420	-0.636093	0.273750	0.670330	0.740667	-0.045503	0	0	0
57979	0	0	0	0	0	10.226665	3.437668	-0.896348	-0.830327	-0.087717	-1.761192	-0.845459	0.085449	0.307617	0.181558	-0.611645	-0.384536	-0.667127	98.590324	-72.886109	129.166289	-0.185854	0.228154	0.955722	0.712644	-0.638337	0.290971	0.676458	0.735168	-0.043955	0	0	0
57980	0	0	0	0	0	10.168091	3.107631	-0.897694	-0.840131	-0.117582	-1.725443	-0.846191	0.070801	0.313232	0.173005	-0.609455	-0.387072	-0.669932	97.866520	-71.900397	129.418124	-0.197268	0.240003	0.950518	0.703609	-0.640490	0.307746	0.682657	0.729501	-0.042520	0	0	0
57981	0	0	0	0	0	10.420626	2.733771	-0.786005	-0.827405	-0.142361	-1.659292	-0.846191	0.053467	0.319824	0.164641	-0.607407	-0.389439	-0.672523	97.253328	-70.948497	129.562121	-0.207900	0.251647	0.945226	0.694546	-0.642461	0.323806	0.688755	0.723822	-0.041212	0	0	0
57982	0	0	0	0	0	10.490085	2.537174	-0.936364	-0.817119	-0.164868	-1.596543	-0.848633	0.041748	0.325439	0.156469	-0.605501	-0.391633	-0.674914	96.729146	-70.031380	129.618996	-0.217771	0.263062	0.939880	0.685474	-0.644283	0.339153	0.694767	0.718121	-0.040016	0	0	0
57983	0	0	0	0	0	10.262613	2.128585	-1.205920	-0.798266	-0.163814	-1.531282	-0.846924	0.021484	0.325195	0.148558	-0.603659	-0.393663	-0.677168	96.250176	-69.150739	129.639223	-0.227054	0.274078	0.934520	0.676473	-0.645921	0.353795	0.700593	0.712508	-0.038748	0	0	0
57984	0	0	0	0	0	9.966298	2.156342	-0.926499	-0.707983	-0.204903	-1.476094	-0.843262	0.013428	0.325684	0.141021	-0.601953	-0.395832	-0.679031	95.908203	-68.299630	129.568329	-0.235532	0.285030	0.929130	0.668059	-0.646860	0.367789	0.705848	0.707340	-0.038060	0	0	0
57985	0	0	0	0	0	9.805515	2.235524	-0.538614	-0.622742	-0.235492	-1.422776	-0.843994	-0.007568	0.324951	0.133847	-0.600358	-0.398128	-0.680551	95.673711	-67.476768	129.433533	-0.243312	0.295859	0.923724	0.660217	-0.647158	0.381181	0.710572	0.702605	-0.037870	0	0	0
57986	0	0	0	0	0	9.573211	2.368211	-0.253980	-0.509402	-0.279218	-1.384359	-0.837646	-0.008301	0.323486	0.127053	-0.598876	-0.400699	-0.681649	95.568734	-66.674026	129.228028	-0.250410	0.306726	0.918267	0.653149	-0.646596	0.394093	0.714626	0.698450	-0.038424	0	0	0
57987	0	0	0	0	0	9.212434	2.733666	-0.391041	-0.421678	-0.327543	-1.360178	-0.844727	-0.033691	0.329102	0.120499	-0.597519	-0.403507	-0.682374	95.574447	-65.882011	128.955303	-0.256903	0.317756	0.912706	0.646656	-0.645324	0.406685	0.718218	0.694685	-0.039693	0	0	0
57988	0	0	0	0	0	8.782152	3.112061	-0.715723	-0.441528	-0.377799	-1.323176	-0.837158	-0.033936	0.337891	0.113906	-0.596389	-0.406144	-0.682930	95.626169	-65.108672	128.617825	-0.262692	0.328859	0.907108	0.640018	-0.644146	0.418871	0.722059	0.690600	-0.041264	0	0	0
57989	0	0	0	0	0	8.570946	3.072948	-1.327861	-0.462650	-0.452463	-1.277640	-0.844238	-0.049805	0.333496	0.107245	-0.595587	-0.408596	-0.683245	95.748753	-64.356386	128.186440	-0.267549	0.340160	0.901503	0.633258	-0.643096	0.430596	0.726224	0.686090	-0.043349	0	0	0
57990	0	0	0	0	0	8.465445	2.977721	-1.520971	-0.401752	-0.488226	-1.221564	-0.837646	-0.071289	0.346436	0.100882	-0.594960	-0.411087	-0.683266	95.937565	-63.633933	127.717594	-0.271690	0.351303	0.895975	0.627018	-0.641662	0.441722	0.730091	0.681804	-0.045940	0	0	0
57991	0	0	0	0	0	8.457878	2.930772	-1.236038	-0.262542	-0.511119	-1.163309	-0.841064	-0.073486	0.348145	0.095076	-0.594435	-0.413875	-0.682873	96.220518	-62.941976	127.229709	-0.275216	0.362193	0.890546	0.621893	-0.639336	0.452214	0.733147	0.678281	-0.049290	0	0	0
57992	0	0	0	0	0	8.434825	2.991842	-0.815052	-0.129831	-0.508839	-1.105126	-0.840332	-0.086426	0.341064	0.089869	-0.593936	-0.416924	-0.682158	96.564141	-62.282571	126.756251	-0.278328	0.372642	0.885252	0.617861	-0.636197	0.462062	0.735378	0.675568	-0.053169	0	0	0
57993	0	0	0	0	0	8.357465	3.113131	-0.482455	-0.042182	-0.500294	-1.046471	-0.828613	-0.092529	0.356445	0.085135	-0.593468	-0.420082	-0.681234	96.937399	-61.655368	126.303476	-0.281096	0.382617	0.880108	0.614603	-0.632567	0.471298	0.737054	0.673397	-0.057345	0	0	0
57994	0	0	0	0	0	8.215732	3.249896	-0.334940	-0.016849	-0.488336	-0.983033	-0.826416	-0.109619	0.356934	0.080716	-0.593064	-0.423116	-0.680244	97.303322	-61.064121	125.872827	-0.283519	0.392057	0.875162	0.611683	-0.628915	0.479905	0.738553	0.671384	-0.061506	0	0	0
57995	0	0	0	0	0	7.997179	3.408994	-0.349917	-0.031137	-0.496228	-0.908647	-0.832031	-0.105225	0.368408	0.076485	-0.592835	-0.425874	-0.679211	97.663812	-60.512810	125.436504	-0.285395	0.401048	0.870466	0.608845	-0.625562	0.487832	0.740174	0.669203	-0.065644	0	0	0
57996	0	0	0	0	0	7.916519	3.544027	-0.294607	-0.040555	-0.508905	-0.837734	-0.829834	-0.118408	0.359863	0.072441	-0.592787	-0.428383	-0.678118	98.026636	-59.999861	124.989121	-0.286712	0.409632	0.866024	0.606128	-0.622480	0.495104	0.741893	0.666873	-0.069817	0	0	0
57997	0	0	0	0	0	7.803966	3.630369	-0.266029	-0.057740	-0.516544	-0.745424	-0.822998	-0.123047	0.368896	0.068640	-0.592955	-0.430556	-0.676989	98.387079	-59.536890	124.531009	-0.287385	0.417663	0.861956	0.603538	-0.619821	0.501561	0.743742	0.664364	-0.073949	0	0	0
57998	0	0	0	0	0	7.639902	3.639540	-0.260306	-0.102165	-0.506043	-0.664179	-0.815674	-0.134277	0.371094	0.065006	-0.593268	-0.432323	-0.675947	98.711931	-59.119831	124.082492	-0.287615	0.425085	0.858243	0.600848	-0.617743	0.507323	0.745828	0.661586	-0.077739	0	0	0
57999	0	0	0	0	0	7.429213	3.747393	-0.485523	-0.179316	-0.503802	-0.587998	-0.815186	-0.136475	0.380615	0.061401	-0.593752	-0.433597	-0.675042	98.992137	-58.744509	123.632606	-0.287376	0.432002	0.854862	0.597795	-0.616447	0.512478	0.748369	0.658306	-0.081097	0	0	0
58000	0	0	0	0	0	7.216765	3.753183	-0.555520	-0.225201	-0.488826	-0.518627	-0.813232	-0.139648	0.383301	0.057928	-0.594342	-0.434498	-0.674250	99.234154	-58.409125	123.194994	-0.286803	0.438364	0.851810	0.594597	-0.615712	0.517062	0.751131	0.654779	-0.084062	0	0	0
58001	0	0	0	0	0	7.025037	3.899023	-0.471789	-0.259163	-0.476008	-0.454111	-0.816162	-0.152588	0.385498	0.054596	-0.595032	-0.435084	-0.673542	99.448154	-58.110141	122.765859	-0.285913	0.444232	0.849065	0.591323	-0.615443	0.521122	0.754050	0.651067	-0.086721	0	0	0
58002	0	0	0	0	0	6.901197	4.011737	-0.401820	-0.259863	-0.463576	-0.401552	-0.814941	-0.153076	0.384766	0.051469	-0.595786	-0.435502	-0.672851	99.652537	-57.841576	122.346365	-0.284779	0.449671	0.846580	0.588193	-0.615379	0.524727	0.756921	0.647384	-0.089246	0	0	0
58003	0	0	0	0	0	6.852238	4.092211	-0.288248	-0.212237	-0.427575	-0.351827	-0.808105	-0.153809	0.385986	0.048725	-0.596510	-0.435920	-0.672143	99.854803	-57.603434	121.960444	-0.283604	0.454560	0.844360	0.585561	-0.615200	0.527871	0.759399	0.644131	-0.091699	0	0	0
58004	0	0	0	0	0	6.851503	4.365166	-0.228090	-0.121613	-0.398244	-0.316932	-0.810059	-0.155518	0.401367	0.046436	-0.597184	-0.436526	-0.671312	100.084072	-57.387482	121.603138	-0.282430	0.459027	0.842335	0.583718	-0.614578	0.530629	0.761253	0.641552	-0.094367	0	0	0
58005	0	0	0	0	0	6.977228	4.636163	-0.395819	-0.048890	-0.373302	-0.291516	-0.804443	-0.163818	0.400879	0.044500	-0.597809	-0.437294	-0.670386	100.333472	-57.187252	121.270593	-0.281287	0.463172	0.840446	0.582501	-0.613588	0.533106	0.762607	0.639517	-0.097204	0	0	0
58006	0	0	0	0	0	7.031619	4.842551	-0.376945	0.032643	-0.349288	-0.251982	-0.805420	-0.158936	0.398193	0.042996	-0.598420	-0.438207	-0.669343	100.611453	-57.011315	120.958945	-0.280090	0.466906	0.838778	0.582022	-0.612252	0.535162	0.763414	0.638081	-0.100264	0	0	0
58007	0	0	0	0	0	7.135140	5.095205	-0.386378	0.058234	-0.352940	-0.212398	-0.799316	-0.169678	0.393066	0.041690	-0.599121	-0.439088	-0.668220	100.910851	-56.856055	120.638586	-0.278632	0.470418	0.837300	0.581849	-0.610927	0.536861	0.764078	0.636769	-0.103489	0	0	0
58008	0	0	0	0	0	7.283469	5.254273	-0.374516	0.091666	-0.333266	-0.169250	-0.800049	-0.163086	0.401367	0.040673	-0.599842	-0.439944	-0.667071	101.216936	-56.726663	120.332675	-0.277071	0.473530	0.836063	0.582058	-0.609589	0.538154	0.764487	0.635744	-0.106723	0	0	0
58009	0	0	0	0	0	7.423899	5.647828	-0.370945	0.085673	-0.344744	-0.144591	-0.799072	-0.166992	0.407471	0.039694	-0.600653	-0.440710	-0.665894	101.531401	-56.608558	120.012236	-0.275280	0.476564	0.834930	0.582291	-0.608399	0.539247	0.764956	0.634616	-0.110019	0	0	0
58010	0	0	0	0	0	7.615498	6.214917	-0.605449	0.037508	-0.349089	-0.131043	-0.796143	-0.174072	0.406738	0.038607	-0.601518	-0.441271	-0.664805	101.822183	-56.496983	119.686637	-0.273372	0.479532	0.833857	0.582197	-0.607579	0.540272	0.765712	0.633164	-0.113087	0	0	0
58011	0	0	0	0	0	7.540438	6.699568	-0.497145	-0.012665	-0.314121	-0.123143	-0.797607	-0.163330	0.414063	0.037470	-0.602291	-0.441635	-0.663928	102.054250	-56.392776	119.396495	-0.271684	0.482230	0.832851	0.581740	-0.607109	0.541292	0.766659	0.631564	-0.115591	0	0	0
58012	0	0	0	0	0	7.504228	6.990482	-0.156033	-0.113404	-0.275171	-0.130326	-0.793213	-0.174561	0.412354	0.036095	-0.602936	-0.441676	-0.663391	102.193026	-56.289102	119.148839	-0.270331	0.484716	0.831849	0.580495	-0.607238	0.542483	0.768080	0.629534	-0.117220	0	0	0
58013	0	0	0	0	0	7.388606	7.212473	-0.004043	-0.232976	-0.244048	-0.151795	-0.799805	-0.172119	0.415527	0.034353	-0.603450	-0.441381	-0.663213	102.232254	-56.176561	118.938158	-0.269337	0.487135	0.830757	0.578269	-0.608006	0.543998	0.770106	0.626920	-0.117937	0	0	0
58014	0	0	0	0	0	7.354491	7.145353	-0.118806	-0.329756	-0.201633	-0.180032	-0.796875	-0.175781	0.415039	0.032322	-0.603775	-0.440839	-0.663379	102.174818	-56.053766	118.776880	-0.268821	0.489451	0.829562	0.575219	-0.609233	0.545855	0.772566	0.623917	-0.117767	0	0	0
58015	0	0	0	0	0	7.398445	6.893817	-0.322451	-0.433094	-0.226658	-0.201454	-0.794189	-0.192383	0.412598	0.029851	-0.604149	-0.440022	-0.663697	102.074643	-55.915647	118.595519	-0.268227	0.492054	0.828213	0.571302	-0.610979	0.548014	0.775673	0.620152	-0.117230	0	0	0
58016	0	0	0	0	0	7.334760	6.252978	-0.595716	-0.495617	-0.232827	-0.199774	-0.798096	-0.182617	0.420166	0.027185	-0.604552	-0.438988	-0.664129	101.943744	-55.778376	118.407668	-0.267555	0.494675	0.826868	0.566891	-0.613100	0.550220	0.779133	0.615959	-0.116388	0	0	0
58017	0	0	0	0	0	7.402583	5.773325	-0.930404	-0.503499	-0.228307	-0.222255	-0.791992	-0.183350	0.416748	0.024426	-0.604886	-0.437994	-0.664588	101.800272	-55.628809	118.229142	-0.267033	0.497406	0.825397	0.562339	-0.615130	0.552621	0.782603	0.611721	-0.115451	0	0	0
58018	0	0	0	0	0	7.347533	5.378669	-1.013584	-0.441288	-0.144488	-0.242728	-0.787598	-0.193604	0.416504	0.021975	-0.604885	-0.437252	-0.665163	101.620303	-55.478263	118.137885	-0.267262	0.499741	0.823911	0.558208	-0.616655	0.555103	0.785477	0.608272	-0.114151	0	0	0
58019	0	0	0	0	0	7.430477	5.342368	-0.922274	-0.254527	-0.143072	-0.236280	-0.793213	-0.201660	0.419434	0.020110	-0.604869	-0.437112	-0.665329	101.547216	-55.331143	118.046614	-0.267459	0.502032	0.822453	0.555550	-0.617057	0.557319	0.787293	0.605974	-0.113866	0	0	0
58020	0	0	0	0	0	7.503465	5.620766	-0.834994	-0.193562	-0.134615	-0.208947	-0.781006	-0.204102	0.418701	0.018541	-0.604877	-0.437088	-0.665383	101.506658	-55.200859	117.958113	-0.267560	0.504095	0.821158	0.553443	-0.617221	0.559231	0.788741	0.604092	-0.113845	0	0	0
58021	0	0	0	0	0	7.311655	5.551611	-0.494671	-0.132444	-0.118567	-0.190392	-0.784912	-0.203613	0.417236	0.017250	-0.604865	-0.437210	-0.665348	101.490872	-55.082347	117.881721	-0.267681	0.505952	0.819976	0.551860	-0.617100	0.560926	0.789808	0.602661	-0.114029	0	0	0
58022	0	0	0	0	0	7.468629	5.609301	-0.394258	-0.082891	-0.157625	-0.194848	-0.792236	-0.207275	0.422363	0.016013	-0.604969	-0.437511	-0.665087	101.533875	-54.957360	117.768360	-0.267512	0.508062	0.818725	0.550661	-0.616655	0.562591	0.790702	0.601340	-0.114807	0	0	0
58023	0	0	0	0	0	7.612609	5.519278	-0.745148	-0.027783	-0.109635	-0.175759	-0.776611	-0.210205	0.421875	0.015107	-0.604948	-0.437935	-0.664847	101.572564	-54.848053	117.698565	-0.267619	0.509769	0.817628	0.549944	-0.615969	0.564043	0.791165	0.600598	-0.115500	0	0	0
58024	0	0	0	0	0	7.537634	5.847004	-0.660862	0.124279	-0.061843	-0.150652	-0.789795	-0.202881	0.423584	0.014853	-0.604813	-0.438783	-0.664417	101.664215	-54.758801	117.670627	-0.267961	0.511027	0.816730	0.550501	-0.614497	0.565104	0.790662	0.601036	-0.116659	0	0	0
58025	0	0	0	0	0	7.631450	6.032443	-0.471041	0.107785	-0.052092	-0.135693	-0.791260	-0.204834	0.419434	0.014616	-0.604678	-0.439532	-0.664051	101.740733	-54.678544	117.649407	-0.268302	0.512139	0.815921	0.550961	-0.613196	0.566067	0.790225	0.601418	-0.117647	0	0	0
58026	0	0	0	0	0	7.543118	5.943363	-0.561451	0.104448	-0.039015	-0.132435	-0.791504	-0.212402	0.417236	0.014412	-0.604507	-0.440256	-0.663730	101.805502	-54.602136	117.640443	-0.268727	0.513145	0.815149	0.551408	-0.611933	0.566998	0.789769	0.601847	-0.118509	0	0	0
58027	0	0	0	0	0	7.675147	5.861477	-0.599858	0.182093	-0.032356	-0.129069	-0.787354	-0.205566	0.424072	0.014467	-0.604313	-0.441231	-0.663259	101.909683	-54.527898	117.637776	-0.269193	0.514092	0.814398	0.552473	-0.610213	0.567815	0.788865	0.602785	-0.119758	0	0	0
58028	0	0	0	0	0	7.603683	5.935904	-0.549976	0.255580	0.007743	-0.122903	-0.787354	-0.203369	0.426025	0.014855	-0.603996	-0.442423	-0.662744	102.025493	-54.462371	117.672467	-0.269936	0.514754	0.813734	0.554134	-0.608082	0.568482	0.787445	0.604371	-0.121099	0	0	0
58029	0	0	0	0	0	7.680002	6.058907	-0.516290	0.291012	0.011062	-0.128947	-0.790527	-0.210938	0.421387	0.015334	-0.603648	-0.443753	-0.662161	102.157651	-54.393390	117.712008	-0.270747	0.515434	0.813034	0.556049	-0.605696	0.569159	0.785815	0.606184	-0.122616	0	0	0
58030	0	0	0	0	0	7.623979	6.303250	-0.517838	0.270111	0.028043	-0.118121	-0.785645	-0.198975	0.419434	0.015827	-0.603271	-0.444976	-0.661672	102.266484	-54.333087	117.765584	-0.271627	0.515938	0.812420	0.557826	-0.603492	0.569761	0.784250	0.607952	-0.123879	0	0	0
58031	0	0	0	0	0	7.471539	6.495147	-0.402024	0.229893	0.008621	-0.109909	-0.784180	-0.207764	0.420166	0.016180	-0.602975	-0.446045	-0.661213	102.368490	-54.274555	117.799324	-0.272318	0.516512	0.811824	0.559305	-0.601564	0.570350	0.782957	0.609374	-0.125071	0	0	0
58032	0	0	0	0	0	7.433050	6.842783	-0.484880	0.185021	-0.012319	-0.108812	-0.780273	-0.203857	0.421143	0.016357	-0.602757	-0.446960	-0.660790	102.461423	-54.214600	117.812497	-0.272833	0.517200	0.811213	0.560433	-0.599918	0.570975	0.781970	0.610412	-0.126179	0	0	0
58033	0	0	0	0	0	7.316266	7.435066	-0.649422	0.124928	-0.005179	-0.091707	-0.788330	-0.211914	0.426514	0.016422	-0.602555	-0.447627	-0.660521	102.516965	-54.164565	117.829288	-0.273315	0.517746	0.810702	0.561134	-0.598720	0.571544	0.781299	0.611124	-0.126886	0	0	0
58034	0	0	0	0	0	7.144500	7.854243	-0.608101	0.008952	0.025403	-0.052557	-0.786865	-0.205811	0.418701	0.016338	-0.602352	-0.447788	-0.660599	102.489379	-54.140769	117.866704	-0.273810	0.517865	0.810459	0.561038	-0.598438	0.571934	0.781194	0.611299	-0.126683	0	0	0
58035	0	0	0	0	0	7.011027	8.367461	-0.600899	-0.117595	0.040523	-0.027650	-0.782227	-0.209473	0.415283	0.015987	-0.602162	-0.447457	-0.661005	102.381579	-54.132166	117.913601	-0.274291	0.517749	0.810371	0.560017	-0.599053	0.572290	0.781758	0.610796	-0.125633	0	0	0
58036	0	0	0	0	0	7.015791	8.629340	-0.607440	-0.292871	0.051347	-0.048108	-0.785645	-0.210693	0.424316	0.015067	-0.601906	-0.446604	-0.661836	102.161894	-54.113931	117.974687	-0.274964	0.517684	0.810184	0.557571	-0.600636	0.573019	0.783268	0.609295	-0.123492	0	0	0
58037	0	0	0	0	0	7.143880	8.478011	-0.494767	-0.476099	0.082717	-0.077643	-0.786865	-0.214844	0.419189	0.013564	-0.601489	-0.445233	-0.663170	101.807908	-54.082054	118.071915	-0.276054	0.517614	0.809858	0.553596	-0.603168	0.574213	0.785701	0.606848	-0.120042	0	0	0
58038	0	0	0	0	0	7.120856	8.002144	-0.515077	-0.539223	0.128860	-0.084662	-0.793213	-0.221680	0.415283	0.011955	-0.600906	-0.443663	-0.664779	101.381640	-54.051807	118.213856	-0.277538	0.517305	0.809548	0.549095	-0.606040	0.575509	0.788332	0.604244	-0.115851	0	0	0
58039	0	0	0	0	0	6.906916	7.537908	-0.338008	-0.662365	0.094484	-0.063353	-0.784668	-0.218506	0.409424	0.009966	-0.600483	-0.441622	-0.666551	100.914760	-54.028389	118.318790	-0.278642	0.517087	0.809308	0.543660	-0.609741	0.576759	0.791703	0.600697	-0.111220	0	0	0
58040	0	0	0	0	0	7.135940	6.097915	-0.287742	-0.958693	0.099011	-0.042804	-0.792236	-0.228760	0.410400	0.007170	-0.600098	-0.438520	-0.668978	100.278317	-54.017124	118.423538	-0.279662	0.516717	0.809193	0.535904	-0.615297	0.578115	0.796615	0.595326	-0.104835	0	0	0
58041	0	0	0	0	0	7.873915	3.380823	-0.039467	-1.113229	0.010744	-0.038939	-0.790527	-0.232422	0.409668	0.003726	-0.600002	-0.434885	-0.671460	99.622238	-53.997891	118.443128	-0.279968	0.516860	0.808995	0.526867	-0.621722	0.579545	0.802514	0.588487	-0.098254	0	0	0
58042	0	0	0	0	0	10.056956	0.287529	-2.366866	-0.615057	-0.224428	-0.041687	-0.793213	-0.229736	0.406494	0.001259	-0.600671	-0.432922	-0.672139	99.434608	-53.955435	118.236449	-0.278385	0.518395	0.808560	0.521780	-0.625154	0.580455	0.806379	0.583480	-0.096454	0	0	0
58043	0	0	0	0	0	12.923545	1.685746	-1.753001	-0.021427	-0.090875	-0.101110	-0.786377	-0.237061	0.411865	0.000662	-0.600752	-0.433132	-0.671932	99.475173	-53.891488	118.168142	-0.278193	0.519521	0.807902	0.521299	-0.624792	0.581276	0.806756	0.582866	-0.097013	0	0	0
58044	0	0	0	0	0	12.086910	7.468935	-3.616825	1.254442	-0.108307	-0.261393	-0.784668	-0.235352	0.414551	0.003323	-0.600532	-0.438098	-0.668895	100.238290	-53.735703	118.110207	-0.278702	0.521738	0.806297	0.530629	-0.616118	0.582092	0.800473	0.590075	-0.105137	0	0	0
58045	0	0	0	0	0	12.052438	11.523934	-3.511670	1.475901	-0.314256	-0.409292	-0.782227	-0.230713	0.420410	0.005699	-0.600640	-0.444232	-0.664724	101.260157	-53.473556	117.888073	-0.278399	0.526070	0.803582	0.541224	-0.605251	0.583737	0.793455	0.597430	-0.116220	0	0	0
58046	0	0	0	0	0	13.389052	9.632775	0.074187	1.016309	-0.149042	-0.583952	-0.780518	-0.237793	0.415527	0.006486	-0.599797	-0.449335	-0.662042	101.860722	-53.131082	117.862322	-0.280403	0.530432	0.800010	0.547608	-0.596112	0.587177	0.788353	0.602738	-0.123317	0	0	0
58047	0	0	0	0	0	13.292695	6.196937	2.520975	0.720587	-0.001980	-0.766437	-0.778320	-0.232910	0.421631	0.006108	-0.598046	-0.453990	-0.660451	102.149900	-52.703151	118.014202	-0.284606	0.534947	0.795507	0.551082	-0.587711	0.592372	0.784416	0.606982	-0.127533	0	0	0
58048	0	0	0	0	0	11.360211	4.780380	3.454015	0.510194	0.116423	-0.889887	-0.780518	-0.247314	0.424805	0.004965	-0.595617	-0.458301	-0.659678	102.213397	-52.221282	118.299763	-0.290431	0.539394	0.790383	0.552496	-0.579870	0.598748	0.781280	0.610578	-0.129600	0	0	0
58049	0	0	0	0	0	9.754747	3.402268	1.037571	0.427364	0.067434	-0.865726	-0.773193	-0.240234	0.418701	0.003539	-0.593390	-0.462259	-0.658933	102.271045	-51.746647	118.534058	-0.295751	0.543935	0.785281	0.553264	-0.572609	0.604994	0.778736	0.613396	-0.131590	0	0	0
58050	0	0	0	0	0	8.811853	2.450860	-0.318252	0.800810	0.138060	-0.679486	-0.776123	-0.245850	0.423828	0.004002	-0.591341	-0.466879	-0.657513	102.523310	-51.385839	118.794715	-0.300599	0.546907	0.781366	0.557434	-0.564015	0.609225	0.773892	0.618692	-0.135322	0	0	0
58051	0	0	0	0	0	7.933115	1.368493	-0.734421	0.722991	0.242302	-0.481466	-0.775391	-0.252686	0.418213	0.005127	-0.589397	-0.470647	-0.656564	102.689235	-51.148944	119.109786	-0.305171	0.548063	0.778779	0.561528	-0.556930	0.611977	0.769128	0.624064	-0.137794	0	0	0
58052	0	0	0	0	0	7.389377	0.712367	-0.967419	0.663915	0.140342	-0.252644	-0.774658	-0.245361	0.423828	0.006591	-0.588320	-0.473540	-0.655436	102.928905	-51.028075	119.287573	-0.307673	0.548546	0.777454	0.565826	-0.551433	0.612995	0.764970	0.628506	-0.140720	0	0	0
58053	0	0	0	0	0	7.652437	1.702891	-1.611673	0.765311	0.072943	-0.052764	-0.781982	-0.244385	0.417236	0.008846	-0.587923	-0.476173	-0.653855	103.304346	-51.010217	119.365348	-0.308536	0.548339	0.777258	0.571475	-0.546361	0.612295	0.760409	0.633099	-0.144790	0	0	0
58054	0	0	0	0	0	7.574626	2.471882	-1.734371	0.709061	0.022625	0.089975	-0.771729	-0.240723	0.420654	0.011285	-0.588028	-0.478198	-0.652244	103.706112	-51.065841	119.368061	-0.308192	0.547666	0.777869	0.577109	-0.542398	0.610532	0.756282	0.637076	-0.148901	0	0	0
58055	0	0	0	0	0	7.433831	2.271738	-2.356652	0.556056	-0.043983	0.141767	-0.778076	-0.242676	0.430908	0.013283	-0.588473	-0.479572	-0.650794	104.074984	-51.140839	119.300295	-0.307045	0.547142	0.778691	0.581720	-0.539669	0.608572	0.753210	0.639839	-0.152580	0	0	0
58056	0	0	0	0	0	7.482884	1.757287	-3.147675	0.425953	-0.068091	0.157565	-0.781250	-0.237061	0.429443	0.014893	-0.589043	-0.480473	-0.649579	104.389862	-51.221238	119.206332	-0.305614	0.546690	0.779570	0.585386	-0.537848	0.606666	0.750948	0.641755	-0.155651	0	0	0
58057	0	0	0	0	0	6.908569	2.011389	-3.721422	0.358795	-0.048501	0.197038	-0.772217	-0.229004	0.432861	0.016477	-0.589644	-0.481036	-0.648578	104.660198	-51.325798	119.119973	-0.304097	0.545907	0.780712	0.588653	-0.536666	0.604547	0.749008	0.643409	-0.158151	0	0	0
58058	0	0	0	0	0	6.288144	3.007531	-3.872106	0.390964	-0.114694	0.277991	-0.772217	-0.224854	0.430664	0.018262	-0.590650	-0.481467	-0.647293	105.011104	-51.465435	118.954534	-0.301597	0.545116	0.782232	0.592400	-0.535711	0.601728	0.747062	0.644874	-0.161357	0	0	0
58059	0	0	0	0	0	6.463682	4.442425	-3.068735	0.286059	-0.184039	0.369615	-0.779053	-0.223145	0.418457	0.019865	-0.592107	-0.481292	-0.646044	105.369119	-51.644471	118.703411	-0.298030	0.544286	0.784175	0.595620	-0.535926	0.598348	0.745932	0.645396	-0.164466	0	0	0
58060	0	0	0	0	0	7.176568	5.933189	-2.077916	0.032132	-0.167557	0.453269	-0.784180	-0.218262	0.437988	0.021028	-0.593734	-0.480045	-0.645442	105.589148	-51.871641	118.443666	-0.294076	0.542893	0.786630	0.597182	-0.538230	0.594712	0.746253	0.644651	-0.165925	0	0	0
58061	0	0	0	0	0	8.373181	9.069100	-1.288643	0.074735	-0.158163	0.497909	-0.781738	-0.219482	0.427002	0.022483	-0.595427	-0.478800	-0.644757	105.838541	-52.124045	118.178579	-0.289922	0.541188	0.789342	0.599173	-0.540491	0.590645	0.746282	0.644193	-0.167565	0	0	0
58062	0	0	0	0	0	10.317150	13.849226	-1.192211	0.278059	-0.221498	0.383468	-0.778320	-0.208252	0.432373	0.024023	-0.597026	-0.478553	-0.643405	106.229738	-52.302673	117.882151	-0.285966	0.540503	0.791252	0.602330	-0.540820	0.587121	0.745266	0.644492	-0.170905	0	0	0
58063	0	0	0	0	0	12.852689	14.482248	-0.451407	-0.400723	-0.195759	0.059292	-0.778076	-0.214111	0.433105	0.022555	-0.597842	-0.477086	-0.643790	106.147767	-52.306291	117.692620	-0.284153	0.541402	0.791291	0.599485	-0.543761	0.587317	0.748247	0.641255	-0.170051	0	0	0
58064	0	0	0	0	0	12.548319	6.820187	1.448722	-1.329827	0.174816	-0.300967	-0.777100	-0.228027	0.427734	0.018034	-0.596697	-0.473649	-0.647522	105.197460	-52.169831	117.927877	-0.287256	0.541894	0.789832	0.588605	-0.550663	0.591874	0.755664	0.634918	-0.160780	0	0	0
58065	0	0	0	0	0	8.857608	1.632387	0.972409	-1.119140	0.287762	-0.434178	-0.777344	-0.232666	0.426270	0.013976	-0.594824	-0.471262	-0.651077	104.266246	-51.973387	118.292354	-0.291979	0.542437	0.787725	0.578834	-0.555433	0.597030	0.761380	0.630282	-0.151806	0	0	0
58066	0	0	0	0	0	6.668114	-0.850929	-1.147355	-0.563084	0.288400	-0.402290	-0.779297	-0.229980	0.423096	0.011678	-0.592972	-0.470577	-0.653303	103.664523	-51.792062	118.644069	-0.296497	0.542820	0.785771	0.573336	-0.556841	0.601010	0.763790	0.628709	-0.146116	0	0	0
58067	0	0	0	0	0	4.809602	-0.253864	-2.935319	0.258490	0.274009	-0.318492	-0.768311	-0.239990	0.426514	0.012054	-0.591308	-0.472324	-0.653544	103.560598	-51.653948	118.961914	-0.300420	0.542822	0.784278	0.574333	-0.553529	0.603114	0.761505	0.631624	-0.145470	0	0	0
58068	0	0	0	0	0	4.014435	2.569093	-3.534147	0.768874	0.093183	-0.236592	-0.776611	-0.233154	0.429688	0.013781	-0.590393	-0.475502	-0.652031	103.891315	-51.537405	119.099003	-0.302493	0.543495	0.783014	0.579437	-0.547416	0.603812	0.756803	0.636356	-0.149331	0	0	0
58069	0	0	0	0	0	4.511986	5.207764	-3.038952	0.777774	-0.157803	-0.166147	-0.782227	-0.237549	0.425781	0.015164	-0.590453	-0.478509	-0.649741	104.413790	-51.425291	118.997348	-0.302270	0.545370	0.781796	0.584780	-0.541598	0.603908	0.752772	0.639722	-0.155212	0	0	0
58070	0	0	0	0	0	5.485731	7.131305	-2.679442	0.603186	-0.278996	-0.113057	-0.772461	-0.236572	0.427979	0.015916	-0.591040	-0.480796	-0.647498	104.928648	-51.324632	118.777644	-0.300838	0.547728	0.780699	0.588951	-0.537163	0.603815	0.750089	0.641444	-0.160986	0	0	0
58071	0	0	0	0	0	6.437465	8.806545	-3.333477	0.365123	-0.294302	-0.128582	-0.773193	-0.235596	0.429443	0.015877	-0.591651	-0.482356	-0.645778	105.312872	-51.211817	118.550067	-0.299394	0.550267	0.779467	0.591279	-0.534161	0.604203	0.748834	0.641777	-0.165437	0	0	0
58072	0	0	0	0	0	7.297427	9.081979	-3.457766	0.112831	-0.322774	-0.189920	-0.768555	-0.232178	0.434326	0.014826	-0.592225	-0.483282	-0.644583	105.559092	-51.060210	118.313810	-0.298099	0.553311	0.777807	0.591537	-0.532437	0.605471	0.749147	0.640592	-0.168585	0	0	0
58073	0	0	0	0	0	8.160726	7.990803	-2.451006	-0.253637	-0.284455	-0.271599	-0.772217	-0.248535	0.431396	0.012517	-0.592501	-0.483265	-0.644391	105.552043	-50.868820	118.132619	-0.297572	0.556539	0.775703	0.588802	-0.532596	0.607992	0.751508	0.637656	-0.169206	0	0	0
58074	0	0	0	0	0	7.903966	6.733220	-1.054317	-0.475473	-0.200806	-0.362218	-0.766846	-0.249023	0.433105	0.009463	-0.592299	-0.482792	-0.644983	105.344021	-50.640643	118.046377	-0.298184	0.559708	0.773184	0.584121	-0.533645	0.611576	0.754910	0.633995	-0.167814	0	0	0
58075	0	0	0	0	0	7.445794	5.602925	-0.725216	-0.620206	-0.192426	-0.420484	-0.763916	-0.252197	0.443359	0.005810	-0.591928	-0.482019	-0.645945	105.037273	-50.381453	117.980155	-0.299174	0.563136	0.770307	0.578147	-0.535248	0.615838	0.759105	0.629593	-0.165443	0	0	0
58076	0	0	0	0	0	6.979924	5.392998	-1.451215	-0.579340	-0.093585	-0.428602	-0.766602	-0.260254	0.435547	0.002492	-0.591210	-0.481391	-0.647091	104.688221	-50.132841	117.999309	-0.300929	0.565982	0.767533	0.572432	-0.536512	0.620062	0.762734	0.625955	-0.162534	0	0	0
58077	0	0	0	0	0	6.231114	5.359275	-1.440331	-0.484427	-0.070240	-0.415419	-0.766602	-0.262207	0.427246	-0.000449	-0.590439	-0.481026	-0.648070	104.381973	-49.894522	118.033357	-0.302763	0.568616	0.764860	0.567451	-0.537227	0.624009	0.765725	0.622947	-0.160009	0	0	0
58078	0	0	0	0	0	6.050376	5.137338	-1.149010	-0.422645	-0.086138	-0.422401	-0.772217	-0.266602	0.430908	-0.003266	-0.589698	-0.480877	-0.648848	104.122230	-49.650287	118.053264	-0.304491	0.571383	0.762107	0.562906	-0.537494	0.627884	0.768389	0.620179	-0.157972	0	0	0
58079	0	0	0	0	0	6.058178	4.990659	-0.867941	-0.426231	-0.049302	-0.450348	-0.770020	-0.268311	0.428223	-0.006096	-0.588762	-0.480796	-0.649736	103.833143	-49.395285	118.109201	-0.306644	0.574071	0.759218	0.558227	-0.537595	0.631960	0.770942	0.617603	-0.155612	0	0	0
58080	0	0	0	0	0	6.011662	4.698800	-1.192874	-0.387662	-0.048874	-0.478456	-0.763428	-0.289551	0.433350	-0.008902	-0.587755	-0.480917	-0.650525	103.563545	-49.124789	118.168721	-0.308929	0.576906	0.756137	0.553741	-0.537279	0.636162	0.773262	0.615233	-0.153475	0	0	0
58081	0	0	0	0	0	6.288464	4.821822	-1.752405	-0.165325	-0.117696	-0.499089	-0.760498	-0.283691	0.431641	-0.011289	-0.586926	-0.481816	-0.650572	103.463432	-48.833179	118.172640	-0.310781	0.580270	0.752796	0.550892	-0.535451	0.640164	0.774553	0.613660	-0.153258	0	0	0
58082	0	0	0	0	0	6.632886	5.319604	-1.840174	-0.003607	-0.155596	-0.512659	-0.758057	-0.287109	0.431641	-0.013335	-0.586194	-0.483274	-0.650112	103.478464	-48.529229	118.146696	-0.312398	0.583923	0.749294	0.549246	-0.532536	0.643998	0.775072	0.612730	-0.154354	0	0	0
58083	0	0	0	0	0	6.642520	5.455334	-1.649710	0.046565	-0.180566	-0.535822	-0.752441	-0.292236	0.440186	-0.015371	-0.585484	-0.484959	-0.649451	103.533760	-48.208743	118.105138	-0.313944	0.587838	0.745578	0.547906	-0.529157	0.647914	0.775396	0.611915	-0.155954	0	0	0
58084	0	0	0	0	0	6.681880	5.861323	-1.505970	0.019523	-0.209349	-0.558081	-0.740967	-0.297363	0.442871	-0.017627	-0.584809	-0.486614	-0.648764	103.587593	-47.872246	118.044578	-0.315376	0.592024	0.741651	0.546281	-0.525793	0.652012	0.775961	0.610778	-0.157589	0	0	0
58085	0	0	0	0	0	6.552571	6.683791	-2.071247	-0.054471	-0.196729	-0.570208	-0.752441	-0.300537	0.441162	-0.020111	-0.584051	-0.488060	-0.648288	103.588623	-47.530353	117.997353	-0.316959	0.596180	0.737635	0.544029	-0.522785	0.656299	0.776897	0.609315	-0.158638	0	0	0
58086	0	0	0	0	0	6.378762	7.078599	-2.184819	-0.112045	-0.207982	-0.574354	-0.751465	-0.299561	0.434082	-0.022801	-0.583309	-0.489327	-0.647912	103.562708	-47.184966	117.942066	-0.318462	0.600403	0.733552	0.541312	-0.520078	0.660681	0.778179	0.607482	-0.159381	0	0	0
58087	0	0	0	0	0	6.170110	6.970747	-1.824291	-0.217551	-0.228364	-0.591675	-0.748535	-0.317627	0.440918	-0.025905	-0.582570	-0.490297	-0.647727	103.485660	-46.826942	117.873732	-0.319882	0.604823	0.729290	0.537706	-0.517876	0.665340	0.780094	0.604974	-0.159558	0	0	0
58088	0	0	0	0	0	5.990252	6.406217	-1.499147	-0.362476	-0.209593	-0.616213	-0.735596	-0.313721	0.440430	-0.029463	-0.581686	-0.490863	-0.647940	103.311450	-46.458127	117.824412	-0.321546	0.609237	0.724871	0.532877	-0.516370	0.670376	0.782720	0.601824	-0.158612	0	0	0
58089	0	0	0	0	0	5.830296	6.087249	-1.778973	-0.423553	-0.196374	-0.638048	-0.743164	-0.331543	0.433350	-0.033239	-0.580687	-0.491291	-0.648329	103.092226	-46.078644	117.788470	-0.323395	0.613673	0.720293	0.527474	-0.515056	0.675640	0.785613	0.598434	-0.157130	0	0	0
58090	0	0	0	0	0	5.904133	6.051915	-2.186190	-0.371944	-0.207802	-0.640345	-0.738525	-0.328613	0.440918	-0.036898	-0.579721	-0.491883	-0.648547	102.910056	-45.696832	117.742055	-0.325125	0.618169	0.715654	0.522450	-0.513380	0.680799	0.788251	0.595238	-0.156050	0	0	0
58091	0	0	0	0	0	5.942512	5.828156	-1.556486	-0.372155	-0.213899	-0.639697	-0.733154	-0.335449	0.443604	-0.040571	-0.578765	-0.492465	-0.648740	102.731917	-45.314382	117.689502	-0.326770	0.622683	0.710976	0.517403	-0.511664	0.685926	0.790895	0.592001	-0.154982	0	0	0
58092	0	0	0	0	0	6.118146	5.920895	-1.288551	-0.383655	-0.227066	-0.634078	-0.737793	-0.343750	0.442383	-0.044289	-0.577857	-0.492982	-0.648913	102.556155	-44.933866	117.623963	-0.328240	0.627226	0.706290	0.512266	-0.510014	0.690991	0.793626	0.588620	-0.153900	0	0	0
58093	0	0	0	0	0	6.160501	6.076249	-1.495680	-0.304502	-0.244585	-0.626921	-0.727539	-0.353516	0.440674	-0.047801	-0.577031	-0.493726	-0.648834	102.436529	-44.554966	117.542607	-0.329502	0.631819	0.701593	0.507761	-0.507899	0.695857	0.795995	0.585528	-0.153459	0	0	0
58094	0	0	0	0	0	6.442349	6.268733	-1.301787	-0.278951	-0.296018	-0.620802	-0.726074	-0.360107	0.452393	-0.051342	-0.576386	-0.494514	-0.648535	102.360472	-44.173599	117.419387	-0.330285	0.636658	0.696835	0.503468	-0.505639	0.700606	0.798393	0.582234	-0.153532	0	0	0
58095	0	0	0	0	0	6.675172	6.193717	-1.385757	-0.206258	-0.302367	-0.627773	-0.722168	-0.363770	0.443604	-0.054716	-0.575755	-0.495551	-0.648028	102.327725	-43.787276	117.292686	-0.331024	0.641547	0.691983	0.499718	-0.502870	0.705268	0.800441	0.579257	-0.154131	0	0	0
58096	0	0	0	0	0	6.942080	6.455105	-1.171897	-0.112404	-0.304592	-0.630860	-0.717529	-0.360352	0.451416	-0.057830	-0.575144	-0.496893	-0.647273	102.348583	-43.399322	117.165575	-0.331731	0.646434	0.687079	0.496706	-0.499505	0.709773	0.802021	0.576730	-0.155386	0	0	0
58097	0	0	0	0	0	7.283311	6.476078	-0.870793	-0.197570	-0.281820	-0.630018	-0.718994	-0.374756	0.436035	-0.061132	-0.574426	-0.497959	-0.646787	102.307490	-43.014311	117.056651	-0.332594	0.651161	0.682181	0.493003	-0.496599	0.714379	0.803946	0.573915	-0.155858	0	0	0
58098	0	0	0	0	0	7.244844	6.333526	-0.721916	-0.198028	-0.221774	-0.648195	-0.703613	-0.382813	0.447754	-0.064342	-0.573464	-0.499086	-0.646461	102.232456	-42.626846	116.996604	-0.333998	0.655604	0.677221	0.489227	-0.493547	0.719075	0.805669	0.571485	-0.155896	0	0	0
58099	0	0	0	0	0	7.124882	6.186314	-1.134299	-0.179166	-0.181544	-0.658859	-0.706299	-0.387451	0.452393	-0.067432	-0.572342	-0.500313	-0.646192	102.146210	-42.238035	116.968643	-0.335755	0.659848	0.672212	0.485552	-0.490280	0.723785	0.807160	0.569408	-0.155777	0	0	0
58100	0	0	0	0	0	7.087691	5.930408	-1.410864	-0.168360	-0.180785	-0.653342	-0.699219	-0.390381	0.449219	-0.070469	-0.571230	-0.501551	-0.645892	102.066811	-41.852739	116.939600	-0.337461	0.664033	0.667218	0.481972	-0.486961	0.728404	0.808594	0.567388	-0.155715	0	0	0
58101	0	0	0	0	0	7.091906	6.011794	-1.671728	-0.132664	-0.187120	-0.645698	-0.697998	-0.394287	0.456299	-0.073398	-0.570163	-0.502875	-0.645479	102.011809	-41.470691	116.904100	-0.339055	0.668195	0.662237	0.478688	-0.483458	0.732889	0.809876	0.565494	-0.155938	0	0	0
58102	0	0	0	0	0	7.108150	6.616499	-1.779718	-0.117688	-0.201800	-0.638066	-0.703369	-0.398682	0.459961	-0.076292	-0.569161	-0.504215	-0.644982	101.973537	-41.091498	116.856289	-0.340470	0.672373	0.657263	0.475545	-0.479894	0.737264	0.811133	0.563574	-0.156354	0	0	0
58103	0	0	0	0	0	7.263253	6.515185	-1.675771	-0.222268	-0.205547	-0.647665	-0.690674	-0.413330	0.448730	-0.079526	-0.568101	-0.505237	-0.644727	101.875989	-40.706248	116.806841	-0.341874	0.676596	0.652181	0.471505	-0.476823	0.741837	0.812899	0.561122	-0.156005	0	0	0
58104	0	0	0	0	0	7.189081	6.470103	-2.036786	-0.234141	-0.195677	-0.659193	-0.688721	-0.412109	0.452637	-0.082802	-0.566968	-0.506250	-0.644517	101.766066	-40.316034	116.765867	-0.343383	0.680790	0.647003	0.467320	-0.473709	0.746466	0.814678	0.558681	-0.155484	0	0	0
58105	0	0	0	0	0	7.021122	6.371529	-2.128799	-0.236387	-0.219883	-0.678795	-0.692383	-0.423828	0.451172	-0.086211	-0.565854	-0.507296	-0.644227	101.664467	-39.911817	116.709370	-0.344754	0.685189	0.641608	0.463032	-0.470438	0.751192	0.816545	0.556062	-0.155079	0	0	0
58106	0	0	0	0	0	6.957555	6.317075	-2.166820	-0.223742	-0.242938	-0.698626	-0.685059	-0.429199	0.457031	-0.089702	-0.564762	-0.508420	-0.643822	101.579121	-39.494129	116.638557	-0.345995	0.689777	0.635999	0.458769	-0.466925	0.755985	0.818424	0.553344	-0.154894	0	0	0
58107	0	0	0	0	0	6.986903	6.495800	-2.325829	-0.172447	-0.254373	-0.711897	-0.682373	-0.435059	0.457520	-0.093121	-0.563687	-0.509735	-0.643238	101.526783	-39.067532	116.561202	-0.347172	0.694460	0.630236	0.454864	-0.462997	0.760745	0.820104	0.550781	-0.155146	0	0	0
58108	0	0	0	0	0	7.085527	6.612532	-1.684736	-0.112083	-0.266776	-0.723158	-0.681152	-0.439453	0.450195	-0.096434	-0.562643	-0.511262	-0.642451	101.513177	-38.633441	116.476713	-0.348266	0.699225	0.624336	0.451408	-0.458622	0.765438	0.821548	0.548407	-0.155914	0	0	0
58109	0	0	0	0	0	7.091653	6.856888	-1.578122	-0.108745	-0.234340	-0.733041	-0.674072	-0.448730	0.457520	-0.099686	-0.561463	-0.512837	-0.641733	101.485341	-38.197359	116.417297	-0.349645	0.703821	0.618372	0.447933	-0.454122	0.770149	0.822864	0.546268	-0.156483	0	0	0
58110	0	0	0	0	0	7.057333	7.102867	-1.801201	-0.087223	-0.244835	-0.731630	-0.674561	-0.449951	0.452393	-0.102898	-0.560323	-0.514462	-0.640920	101.474214	-37.761060	116.350289	-0.350901	0.708429	0.612370	0.444631	-0.449481	0.774771	0.824119	0.544147	-0.157266	0	0	0
58111	0	0	0	0	0	6.986416	7.284932	-1.602829	-0.118781	-0.244885	-0.726818	-0.660645	-0.454834	0.461914	-0.106182	-0.559169	-0.515967	-0.640182	101.444819	-37.327336	116.282857	-0.352110	0.712977	0.606368	0.441073	-0.445008	0.779373	0.825514	0.541878	-0.157784	0	0	0
58112	0	0	0	0	0	6.915568	7.447879	-1.843863	-0.181415	-0.254236	-0.725150	-0.664795	-0.453369	0.459229	-0.109658	-0.558010	-0.517252	-0.639571	101.383379	-36.893671	116.208457	-0.353201	0.717531	0.600332	0.436996	-0.440851	0.784019	0.827215	0.539258	-0.157849	0	0	0
58113	0	0	0	0	0	6.834247	7.496795	-1.982579	-0.271535	-0.248512	-0.725354	-0.660889	-0.470459	0.458008	-0.113370	-0.556772	-0.518245	-0.639198	101.267596	-36.460505	116.137715	-0.354304	0.722021	0.594269	0.432158	-0.437138	0.788765	0.829282	0.536280	-0.157147	0	0	0
58114	0	0	0	0	0	6.648501	7.497619	-2.169891	-0.331188	-0.257435	-0.728935	-0.657227	-0.477783	0.464111	-0.117280	-0.555511	-0.519043	-0.638942	101.121173	-36.024587	116.060382	-0.355305	0.726539	0.588132	0.426800	-0.433679	0.793577	0.831625	0.532977	-0.155998	0	0	0
58115	0	0	0	0	0	6.514290	7.253217	-2.136713	-0.410614	-0.256841	-0.743836	-0.657959	-0.478516	0.458984	-0.121455	-0.554153	-0.519620	-0.638873	100.927944	-35.580441	115.984355	-0.356327	0.731086	0.581845	0.420710	-0.430487	0.798551	0.834287	0.529334	-0.154181	0	0	0
58116	0	0	0	0	0	6.264729	7.157480	-2.403001	-0.388384	-0.277920	-0.756134	-0.635498	-0.491455	0.460693	-0.125659	-0.552832	-0.520279	-0.638667	100.755281	-35.127403	115.894052	-0.357173	0.735763	0.575396	0.414745	-0.427039	0.803507	0.836907	0.525634	-0.152627	0	0	0
58117	0	0	0	0	0	6.060341	7.231360	-2.605185	-0.317783	-0.322068	-0.755186	-0.644531	-0.493164	0.462646	-0.129778	-0.551688	-0.521123	-0.638145	100.640348	-34.670306	115.772442	-0.357595	0.740629	0.568853	0.409360	-0.423178	0.808298	0.839375	0.521909	-0.151858	0	0	0
58118	0	0	0	0	0	5.905289	7.521175	-2.539917	-0.241628	-0.365870	-0.768342	-0.630859	-0.506592	0.469727	-0.133840	-0.550689	-0.522207	-0.637282	100.584335	-34.201410	115.622454	-0.357656	0.745736	0.562104	0.404560	-0.418773	0.812995	0.841673	0.518177	-0.151918	0	0	0
58119	0	0	0	0	0	5.896513	7.942654	-2.366944	-0.199566	-0.382801	-0.794163	-0.620605	-0.509521	0.462402	-0.137912	-0.549694	-0.523474	-0.636232	100.555741	-33.716197	115.464540	-0.357633	0.750989	0.555080	0.400014	-0.413910	0.817721	0.843853	0.514484	-0.152379	0	0	0
58120	0	0	0	0	0	6.033494	8.258026	-1.997897	-0.229068	-0.373083	-0.807523	-0.624756	-0.506836	0.465088	-0.142077	-0.548601	-0.524681	-0.635264	100.504314	-33.224653	115.315483	-0.357701	0.756194	0.547923	0.395169	-0.409048	0.822509	0.846104	0.510735	-0.152507	0	0	0
58121	0	0	0	0	0	6.127300	8.279480	-1.704734	-0.277186	-0.345371	-0.816505	-0.621338	-0.520508	0.459961	-0.146328	-0.547351	-0.525768	-0.634478	100.413459	-32.731017	115.186186	-0.357990	0.761243	0.540696	0.389875	-0.404312	0.827363	0.848434	0.506991	-0.152050	0	0	0
58122	0	0	0	0	0	5.916474	8.039983	-1.759998	-0.363647	-0.294305	-0.819714	-0.613525	-0.523438	0.467285	-0.150688	-0.545855	-0.526615	-0.634044	100.253888	-32.241127	115.090913	-0.358671	0.765996	0.533484	0.383826	-0.399939	0.832302	0.850901	0.503287	-0.150563	0	0	0
58123	0	0	0	0	0	5.845667	8.094716	-1.745666	-0.402841	-0.269740	-0.813091	-0.608154	-0.533691	0.465820	-0.155065	-0.544257	-0.527328	-0.633771	100.063602	-31.757676	115.010034	-0.359480	0.770554	0.526328	0.377452	-0.395761	0.837200	0.853407	0.499620	-0.148579	0	0	0
58124	0	0	0	0	0	5.869507	8.197257	-1.494691	-0.432712	-0.247815	-0.791186	-0.601807	-0.539063	0.462891	-0.159393	-0.542612	-0.527891	-0.633639	99.850198	-31.289030	114.939441	-0.360333	0.774874	0.519356	0.370884	-0.391851	0.841961	0.855923	0.496007	-0.146192	0	0	0
58125	0	0	0	0	0	5.899640	8.133435	-1.377564	-0.438450	-0.221639	-0.781876	-0.597656	-0.548096	0.454834	-0.163635	-0.540892	-0.528420	-0.633587	99.625572	-30.828388	114.883313	-0.361319	0.778989	0.512468	0.364283	-0.387992	0.846617	0.858339	0.492582	-0.143583	0	0	0
58126	0	0	0	0	0	6.005499	8.190764	-1.429488	-0.406459	-0.219030	-0.776343	-0.590820	-0.557617	0.463623	-0.167762	-0.539194	-0.529026	-0.633449	99.419201	-30.371327	114.826537	-0.362252	0.783033	0.505602	0.357958	-0.383974	0.851134	0.860604	0.489310	-0.141197	0	0	0
58127	0	0	0	0	0	6.136456	8.329682	-1.586778	-0.345239	-0.214988	-0.780386	-0.590332	-0.566895	0.458008	-0.171723	-0.537513	-0.529831	-0.633144	99.246728	-29.912521	114.771371	-0.363183	0.787032	0.498677	0.352131	-0.379581	0.855524	0.862614	0.486311	-0.139281	0	0	0
58128	0	0	0	0	0	6.164764	8.453123	-1.675949	-0.296117	-0.213935	-0.794173	-0.583984	-0.564941	0.463867	-0.175590	-0.535824	-0.530818	-0.632687	99.101541	-29.446147	114.717118	-0.364123	0.791037	0.491605	0.346663	-0.374800	0.859854	0.864430	0.483514	-0.137750	0	0	0
58129	0	0	0	0	0	6.234367	8.607044	-1.781721	-0.266452	-0.212081	-0.806535	-0.577393	-0.570801	0.460205	-0.179407	-0.534112	-0.531924	-0.632134	98.972275	-28.973092	114.664348	-0.365075	0.795033	0.484399	0.341395	-0.369739	0.864143	0.866123	0.480849	-0.136438	0	0	0
58130	0	0	0	0	0	6.106129	8.631311	-1.839204	-0.250697	-0.215332	-0.809392	-0.572754	-0.585693	0.457520	-0.183197	-0.532407	-0.533075	-0.631516	98.852953	-28.498199	114.608804	-0.365964	0.799010	0.477131	0.336241	-0.364540	0.868362	0.867763	0.478220	-0.135251	0	0	0
58131	0	0	0	0	0	6.123373	8.784483	-1.630968	-0.211617	-0.230951	-0.799202	-0.568604	-0.576172	0.462891	-0.186889	-0.530804	-0.534297	-0.630750	98.761238	-28.027858	114.541476	-0.366639	0.802975	0.469901	0.331454	-0.359197	0.872419	0.869318	0.475613	-0.134453	0	0	0
58132	0	0	0	0	0	6.067601	8.959896	-1.474662	-0.210158	-0.237120	-0.782996	-0.562500	-0.581299	0.461426	-0.190539	-0.529256	-0.535466	-0.629967	98.672683	-27.566191	114.468046	-0.367166	0.806864	0.462773	0.326730	-0.353941	0.876341	0.870883	0.472964	-0.133671	0	0	0
58133	0	0	0	0	0	6.065453	8.882422	-1.440271	-0.229644	-0.235216	-0.762765	-0.550049	-0.596924	0.457520	-0.194168	-0.527728	-0.536513	-0.629251	98.573064	-27.116368	114.393454	-0.367604	0.810626	0.455799	0.321905	-0.348906	0.880137	0.872493	0.470266	-0.132685	0	0	0
58134	0	0	0	0	0	5.998626	8.986812	-1.256595	-0.230968	-0.234849	-0.739725	-0.548340	-0.596680	0.464844	-0.197724	-0.526251	-0.537485	-0.628550	98.473297	-26.679635	114.316189	-0.367931	0.814263	0.449001	0.317145	-0.344029	0.883778	0.874097	0.467568	-0.131660	0	0	0
58135	0	0	0	0	0	5.992968	8.994287	-1.227394	-0.260444	-0.234699	-0.721323	-0.538086	-0.610840	0.457764	-0.201297	-0.524786	-0.538308	-0.627937	98.357173	-26.253582	114.236555	-0.368159	0.817796	0.442345	0.312189	-0.339408	0.887322	0.875783	0.464771	-0.130351	0	0	0
58136	0	0	0	0	0	5.989481	8.813303	-1.062118	-0.246460	-0.226122	-0.710065	-0.536377	-0.614258	0.457520	-0.204771	-0.523329	-0.539146	-0.627310	98.246852	-25.834656	114.160762	-0.368391	0.821211	0.435776	0.307391	-0.334781	0.890748	0.877382	0.462097	-0.129102	0	0	0
58137	0	0	0	0	0	5.900446	8.842137	-1.036532	-0.207298	-0.213394	-0.694796	-0.538330	-0.617676	0.459473	-0.208058	-0.521907	-0.540070	-0.626617	98.155897	-25.425686	114.090873	-0.368649	0.824478	0.429340	0.302988	-0.330072	0.894008	0.878804	0.459661	-0.128126	0	0	0
58138	0	0	0	0	0	5.848181	8.989081	-0.930546	-0.162287	-0.207211	-0.682714	-0.529541	-0.622314	0.458008	-0.211170	-0.520537	-0.541105	-0.625823	98.089215	-25.024020	114.023558	-0.368897	0.827640	0.422998	0.299020	-0.325226	0.897115	0.880058	0.457428	-0.127506	0	0	0
58139	0	0	0	0	0	5.774934	9.100146	-0.882425	-0.137984	-0.180729	-0.671745	-0.532227	-0.618896	0.468506	-0.214108	-0.519133	-0.542207	-0.625036	98.029622	-24.630986	113.971591	-0.369316	0.830606	0.416772	0.295305	-0.320339	0.900099	0.881136	0.455496	-0.126975	0	0	0
58140	0	0	0	0	0	5.631187	9.057897	-0.800559	-0.116556	-0.155481	-0.669706	-0.516357	-0.618164	0.453857	-0.216915	-0.517672	-0.543391	-0.624251	97.975641	-24.240954	113.934878	-0.369926	0.833416	0.410575	0.291779	-0.315347	0.903007	0.882054	0.453843	-0.126518	0	0	0
58141	0	0	0	0	0	5.362131	8.932903	-0.603151	-0.070054	-0.131144	-0.655713	-0.514648	-0.637695	0.453125	-0.219487	-0.516218	-0.544705	-0.623411	97.942495	-23.861087	113.911970	-0.370688	0.836034	0.404521	0.288712	-0.310244	0.905756	0.882743	0.452543	-0.126369	0	0	0
58142	0	0	0	0	0	5.122004	8.990040	-0.657314	-0.056162	-0.097807	-0.636713	-0.517090	-0.641602	0.463867	-0.221873	-0.514721	-0.546044	-0.622632	97.909606	-23.494380	113.907796	-0.371669	0.838411	0.398659	0.285829	-0.305218	0.908374	0.883269	0.451563	-0.126203	0	0	0
58143	0	0	0	0	0	4.842058	9.166209	-0.624531	-0.011573	-0.073541	-0.619697	-0.504150	-0.634277	0.458496	-0.224021	-0.513240	-0.547498	-0.621808	97.896925	-23.139532	113.917049	-0.372798	0.840592	0.392972	0.283399	-0.300122	0.910830	0.883576	0.450924	-0.126338	0	0	0
58144	0	0	0	0	0	4.778390	9.386613	-0.530749	0.011639	-0.045340	-0.599786	-0.508789	-0.646729	0.465332	-0.225970	-0.511746	-0.549001	-0.621008	97.891526	-22.797913	113.941860	-0.374106	0.842557	0.387482	0.281239	-0.295072	0.913147	0.883713	0.450589	-0.126572	0	0	0
58145	0	0	0	0	0	4.696543	9.344277	-0.692271	0.016329	0.005108	-0.583845	-0.503174	-0.638672	0.456299	-0.227716	-0.510142	-0.550528	-0.620339	97.877544	-22.469610	113.996226	-0.375803	0.844216	0.382193	0.279173	-0.290129	0.915362	0.883649	0.450694	-0.126651	0	0	0
58146	0	0	0	0	0	4.573537	9.214073	-0.890041	0.033925	0.032092	-0.570866	-0.498779	-0.646973	0.455322	-0.229301	-0.508504	-0.552105	-0.619698	97.868173	-22.150473	114.065831	-0.377690	0.845690	0.377040	0.277299	-0.285202	0.917477	0.883434	0.451075	-0.126791	0	0	0
58147	0	0	0	0	0	4.487060	9.254445	-1.081586	0.070848	0.044017	-0.555919	-0.490479	-0.645020	0.465088	-0.230709	-0.506908	-0.553766	-0.618999	97.878034	-21.841126	114.141551	-0.379634	0.847035	0.372034	0.275800	-0.280233	0.919459	0.883070	0.451665	-0.127226	0	0	0
58148	0	0	0	0	0	4.467151	9.500678	-1.258166	0.086817	0.055682	-0.544071	-0.489990	-0.644775	0.466553	-0.232009	-0.505324	-0.555457	-0.618293	97.895259	-21.539067	114.223076	-0.381639	0.848271	0.367136	0.274473	-0.275279	0.921350	0.882619	0.452392	-0.127770	0	0	0
58149	0	0	0	0	0	4.389741	9.591910	-1.297552	0.079153	0.058491	-0.532647	-0.476074	-0.650879	0.466797	-0.233282	-0.503752	-0.557093	-0.617626	97.908201	-21.244066	114.305202	-0.383627	0.849434	0.362342	0.273112	-0.270455	0.923181	0.882179	0.453117	-0.128237	0	0	0
58150	0	0	0	0	0	4.213602	9.578271	-1.237612	0.076289	0.056724	-0.518463	-0.483643	-0.658203	0.460449	-0.234522	-0.502216	-0.558680	-0.616972	97.920789	-20.956659	114.385024	-0.385556	0.850544	0.357662	0.271768	-0.265753	0.924942	0.881753	0.453818	-0.128688	0	0	0
58151	0	0	0	0	0	3.976618	9.544230	-1.144902	0.070599	0.062179	-0.489089	-0.480713	-0.651855	0.461914	-0.235670	-0.500738	-0.560176	-0.616380	97.930178	-20.686687	114.465388	-0.387442	0.851527	0.353257	0.270479	-0.261326	0.926580	0.881323	0.454545	-0.129071	0	0	0
58152	0	0	0	0	0	3.584987	9.380327	-1.173995	0.063268	0.058302	-0.449993	-0.476563	-0.659180	0.465088	-0.236725	-0.499368	-0.561546	-0.615840	97.937764	-20.438285	114.540203	-0.389186	0.852405	0.349198	0.269267	-0.257255	0.928071	0.880926	0.455220	-0.129404	0	0	0
58153	0	0	0	0	0	3.372339	9.543676	-1.282432	0.088844	0.046761	-0.415981	-0.483398	-0.667236	0.464600	-0.237641	-0.498158	-0.562892	-0.615239	97.963673	-20.208655	114.605109	-0.390731	0.853229	0.345440	0.268406	-0.253360	0.929391	0.880504	0.455860	-0.130016	0	0	0
58154	0	0	0	0	0	3.313493	9.830370	-1.372741	0.066025	0.052032	-0.382373	-0.476807	-0.653809	0.456543	-0.238496	-0.496996	-0.564089	-0.614750	97.976689	-19.998168	114.670360	-0.392229	0.853931	0.341990	0.267468	-0.249846	0.930612	0.880123	0.456485	-0.130403	0	0	0
58155	0	0	0	0	0	3.236543	9.994796	-1.439625	0.025555	0.057314	-0.356125	-0.465332	-0.667480	0.467529	-0.239353	-0.495842	-0.565101	-0.614421	97.966336	-19.803407	114.736754	-0.393703	0.854527	0.338794	0.266274	-0.246743	0.931781	0.879827	0.457057	-0.130395	0	0	0
58156	0	0	0	0	0	3.115932	9.982786	-1.566322	-0.012096	0.051695	-0.330121	-0.465332	-0.665039	0.461426	-0.240241	-0.494731	-0.565924	-0.614211	97.936641	-19.622524	114.797169	-0.395050	0.855078	0.335822	0.264844	-0.244027	0.932903	0.879655	0.457484	-0.130059	0	0	0
58157	0	0	0	0	0	3.083035	9.802511	-1.588277	-0.021896	0.043260	-0.317775	-0.466309	-0.672119	0.461670	-0.241138	-0.493671	-0.566674	-0.614021	97.903569	-19.448256	114.851093	-0.396282	0.855629	0.332955	0.263373	-0.241466	0.933985	0.879543	0.457813	-0.129660	0	0	0
58158	0	0	0	0	0	3.122444	9.694249	-1.613956	-0.037757	0.044020	-0.303505	-0.467041	-0.664551	0.460449	-0.242029	-0.492626	-0.567341	-0.613894	97.861902	-19.281808	114.904314	-0.397483	0.856134	0.330215	0.261814	-0.239093	0.935034	0.879466	0.458115	-0.129113	0	0	0
58159	0	0	0	0	0	3.033418	9.459182	-1.600999	-0.053109	0.024049	-0.283326	-0.465332	-0.669922	0.458496	-0.242949	-0.491682	-0.567884	-0.613785	97.816081	-19.125560	114.943701	-0.398449	0.856674	0.327639	0.260199	-0.236966	0.936025	0.879508	0.458210	-0.128487	0	0	0
58160	0	0	0	0	0	2.879167	9.391707	-1.634909	-0.036182	0.001945	-0.265577	-0.454590	-0.676758	0.460205	-0.243838	-0.490874	-0.568410	-0.613593	97.784974	-18.977298	114.968180	-0.399172	0.857270	0.325193	0.258800	-0.234907	0.936932	0.879593	0.458157	-0.128093	0	0	0
58161	0	0	0	0	0	2.896375	9.472303	-1.543297	-0.027705	-0.021857	-0.242202	-0.461426	-0.673096	0.461182	-0.244700	-0.490216	-0.568872	-0.613347	97.764022	-18.840765	114.976289	-0.399619	0.857913	0.322939	0.257569	-0.233013	0.937744	0.879752	0.457919	-0.127855	0	0	0
58162	0	0	0	0	0	2.883673	9.515940	-1.461575	-0.035205	-0.033253	-0.228667	-0.460938	-0.675293	0.462891	-0.245573	-0.489621	-0.569265	-0.613109	97.741404	-18.710718	114.976477	-0.399931	0.858574	0.320790	0.256323	-0.231263	0.938518	0.879974	0.457568	-0.127583	0	0	0
58163	0	0	0	0	0	2.824429	9.486134	-1.444872	-0.043782	-0.041324	-0.206956	-0.460693	-0.675293	0.457764	-0.246420	-0.489102	-0.569567	-0.612903	97.715961	-18.592704	114.970033	-0.400112	0.859216	0.318839	0.255090	-0.229741	0.939227	0.880250	0.457129	-0.127255	0	0	0
58164	0	0	0	0	0	2.755194	9.420996	-1.380607	-0.045780	-0.049351	-0.190136	-0.463379	-0.670654	0.455566	-0.247246	-0.488652	-0.569812	-0.612701	97.691379	-18.483298	114.957342	-0.400178	0.859855	0.317028	0.253904	-0.228367	0.939884	0.880563	0.456615	-0.126933	0	0	0
58165	0	0	0	0	0	2.692791	9.370159	-1.517785	-0.063420	-0.053793	-0.176561	-0.457275	-0.680664	0.455566	-0.248082	-0.488231	-0.569964	-0.612558	97.657801	-18.381639	114.941139	-0.400171	0.860477	0.315345	0.252620	-0.227194	0.940514	0.880935	0.456029	-0.126457	0	0	0
58166	0	0	0	0	0	2.636043	9.476806	-1.524679	-0.061585	-0.063983	-0.167495	-0.457031	-0.673828	0.457520	-0.248917	-0.487870	-0.570086	-0.612393	97.627479	-18.283988	114.917770	-0.400046	0.861126	0.313727	0.251385	-0.226084	0.941112	0.881345	0.455355	-0.126031	0	0	0
58167	0	0	0	0	0	2.621653	9.447791	-1.519226	-0.078503	-0.058382	-0.164881	-0.448486	-0.677002	0.461182	-0.249768	-0.487477	-0.570156	-0.612294	97.586410	-18.188599	114.897691	-0.399964	0.861739	0.312146	0.250014	-0.225076	0.941718	0.881772	0.454694	-0.125425	0	0	0
58168	0	0	0	0	0	2.609647	9.313989	-1.614531	-0.093662	-0.061500	-0.156693	-0.450195	-0.678467	0.454834	-0.250641	-0.487098	-0.570156	-0.612239	97.537478	-18.097302	114.874829	-0.399829	0.862349	0.310632	0.248540	-0.224202	0.942317	0.882250	0.453970	-0.124686	0	0	0
58169	0	0	0	0	0	2.541016	9.193418	-1.702019	-0.070892	-0.071572	-0.146982	-0.450684	-0.679688	0.457764	-0.251456	-0.486807	-0.570188	-0.612107	97.503663	-18.011065	114.845134	-0.399578	0.862979	0.309201	0.247306	-0.223311	0.942853	0.882710	0.453210	-0.124190	0	0	0
58170	0	0	0	0	0	2.527996	9.145757	-1.748686	-0.069984	-0.080868	-0.128732	-0.454590	-0.684082	0.461914	-0.252242	-0.486596	-0.570167	-0.611971	97.472511	-17.934233	114.808409	-0.399198	0.863611	0.307925	0.246153	-0.222567	0.943331	0.883204	0.452372	-0.123731	0	0	0
58171	0	0	0	0	0	2.549789	9.170337	-1.683742	-0.059038	-0.096761	-0.116441	-0.448975	-0.678223	0.455078	-0.253005	-0.486482	-0.570129	-0.611782	97.450788	-17.863521	114.761352	-0.398647	0.864283	0.306751	0.245147	-0.221883	0.943754	0.883733	0.451424	-0.123423	0	0	0
58172	0	0	0	0	0	2.767547	9.398733	-1.663079	-0.030673	-0.114063	-0.107605	-0.453369	-0.682617	0.466797	-0.253724	-0.486482	-0.570134	-0.611479	97.448650	-17.796250	114.703144	-0.397919	0.865014	0.305633	0.244425	-0.221142	0.944115	0.884260	0.450386	-0.123434	0	0	0
58173	0	0	0	0	0	2.910233	9.501334	-1.540936	-0.027202	-0.124399	-0.110008	-0.444092	-0.677490	0.463867	-0.254469	-0.486510	-0.570142	-0.611139	97.450249	-17.727146	114.639154	-0.397106	0.865792	0.304484	0.243728	-0.220367	0.944476	0.884818	0.449269	-0.123508	0	0	0
58174	0	0	0	0	0	2.993676	9.548069	-1.385930	-0.042996	-0.134042	-0.105760	-0.450195	-0.683105	0.458496	-0.255269	-0.486560	-0.570079	-0.610825	97.444571	-17.659442	114.568930	-0.396194	0.866605	0.303359	0.242906	-0.219695	0.944844	0.885453	0.448029	-0.123461	0	0	0
58175	0	0	0	0	0	3.020163	9.485582	-1.375609	-0.045133	-0.129934	-0.104594	-0.444092	-0.681885	0.460938	-0.256056	-0.486598	-0.570011	-0.610529	97.436876	-17.593001	114.501224	-0.395316	0.867392	0.302253	0.242073	-0.219045	0.945209	0.886074	0.446823	-0.123380	0	0	0
58176	0	0	0	0	0	3.151992	9.534987	-1.383886	-0.055387	-0.135088	-0.094646	-0.449707	-0.682617	0.463867	-0.256855	-0.486665	-0.569881	-0.610260	97.424384	-17.531553	114.429543	-0.394364	0.868180	0.301231	0.241186	-0.218522	0.945557	0.886739	0.445546	-0.123216	0	0	0
58177	0	0	0	0	0	3.231684	9.529296	-1.255030	-0.068740	-0.135135	-0.090619	-0.443359	-0.684814	0.466553	-0.257672	-0.486728	-0.569700	-0.610036	97.404275	-17.472716	114.357728	-0.393403	0.868955	0.300252	0.240200	-0.218095	0.945906	0.887434	0.444243	-0.122924	0	0	0
58178	0	0	0	0	0	3.276274	9.433376	-1.288949	-0.086224	-0.130321	-0.085692	-0.433838	-0.694336	0.461914	-0.258504	-0.486766	-0.569459	-0.609877	97.373332	-17.416757	114.288193	-0.392468	0.869699	0.299320	0.239075	-0.217783	0.946263	0.888151	0.442938	-0.122450	0	0	0
58179	0	0	0	0	0	3.217183	9.225574	-1.301120	-0.125412	-0.121550	-0.081127	-0.442871	-0.688721	0.465820	-0.259392	-0.486741	-0.569098	-0.609858	97.318460	-17.364325	114.223425	-0.391597	0.870391	0.298447	0.237622	-0.217687	0.946651	0.888925	0.441623	-0.121579	0	0	0
58180	0	0	0	0	0	3.220565	9.161334	-1.317087	-0.116057	-0.113498	-0.076996	-0.440186	-0.688721	0.459229	-0.260223	-0.486714	-0.568766	-0.609835	97.267532	-17.314643	114.163186	-0.390788	0.871038	0.297619	0.236266	-0.217579	0.947015	0.889642	0.440399	-0.120770	0	0	0
58181	0	0	0	0	0	3.332104	9.244576	-1.374937	-0.137577	-0.096898	-0.078803	-0.439209	-0.691406	0.461670	-0.261061	-0.486603	-0.568393	-0.609913	97.201274	-17.265507	114.113063	-0.390130	0.871613	0.296800	0.234715	-0.217552	0.947407	0.890341	0.439275	-0.119707	0	0	0
58182	0	0	0	0	0	3.327025	9.284262	-1.387901	-0.154551	-0.082034	-0.084722	-0.444336	-0.691650	0.450684	-0.261919	-0.486406	-0.568003	-0.610066	97.122493	-17.213812	114.072044	-0.389615	0.872136	0.295938	0.232985	-0.217542	0.947836	0.891021	0.438240	-0.118437	0	0	0
58183	0	0	0	0	0	3.427548	9.333132	-1.395269	-0.159220	-0.088760	-0.085685	-0.435547	-0.690918	0.461426	-0.262806	-0.486221	-0.567591	-0.610215	97.042181	-17.161513	114.027326	-0.389044	0.872686	0.295066	0.231213	-0.217547	0.948269	0.891732	0.437141	-0.117141	0	0	0
58184	0	0	0	0	0	3.415932	9.320967	-1.435916	-0.144034	-0.090642	-0.091853	-0.435059	-0.695557	0.466553	-0.263684	-0.486044	-0.567238	-0.610306	96.970745	-17.105267	113.981583	-0.388464	0.873261	0.294128	0.229549	-0.217425	0.948701	0.892414	0.436053	-0.115994	0	0	0
58185	0	0	0	0	0	3.460958	9.277997	-1.285986	-0.130732	-0.103791	-0.088562	-0.429443	-0.692627	0.454346	-0.264555	-0.485935	-0.566898	-0.610332	96.909336	-17.050335	113.927680	-0.387757	0.873883	0.293212	0.228018	-0.217275	0.949104	0.893114	0.434879	-0.115011	0	0	0
58186	0	0	0	0	0	3.446457	9.229496	-1.180888	-0.092299	-0.107203	-0.090685	-0.432373	-0.700195	0.446045	-0.265350	-0.485878	-0.566677	-0.610237	96.870393	-16.993705	113.871909	-0.387023	0.874525	0.292267	0.226819	-0.216934	0.949470	0.893737	0.433758	-0.114401	0	0	0
58187	0	0	0	0	0	3.496542	9.359564	-1.105585	-0.082118	-0.103298	-0.086753	-0.428223	-0.701172	0.452148	-0.266094	-0.485836	-0.566481	-0.610128	96.836663	-16.939970	113.818280	-0.386315	0.875137	0.291370	0.225730	-0.216586	0.949809	0.894319	0.432696	-0.113874	0	0	0
58188	0	0	0	0	0	3.570050	9.456442	-0.974714	-0.082138	-0.106985	-0.088105	-0.431885	-0.701904	0.449951	-0.266856	-0.485799	-0.566284	-0.610008	96.803467	-16.884888	113.762415	-0.385574	0.875769	0.290450	0.224632	-0.216220	0.950152	0.894915	0.431599	-0.113357	0	0	0
58189	0	0	0	0	0	3.523246	9.404255	-0.880698	-0.091684	-0.082109	-0.087670	-0.434814	-0.697998	0.453613	-0.267566	-0.485676	-0.566089	-0.609976	96.760513	-16.832152	113.721389	-0.385054	0.876289	0.289569	0.223454	-0.215903	0.950502	0.895434	0.430700	-0.112676	0	0	0
58190	0	0	0	0	0	3.414255	9.260327	-0.856518	-0.086857	-0.069926	-0.090858	-0.430176	-0.703369	0.455811	-0.268242	-0.485512	-0.565933	-0.609954	96.718103	-16.778070	113.687695	-0.384649	0.876766	0.288665	0.222304	-0.215531	0.950856	0.895894	0.429917	-0.112005	0	0	0
58191	0	0	0	0	0	3.353221	9.207515	-0.842243	-0.060745	-0.044580	-0.105551	-0.427002	-0.701904	0.459961	-0.268825	-0.485265	-0.565926	-0.609901	96.686015	-16.717771	113.670252	-0.384503	0.877160	0.287658	0.221334	-0.214923	0.951220	0.896197	0.429416	-0.111507	0	0	0
58192	0	0	0	0	0	3.342779	9.211603	-0.839047	-0.034144	-0.025512	-0.114810	-0.427246	-0.701904	0.464111	-0.269320	-0.484967	-0.566048	-0.609806	96.665698	-16.653053	113.664569	-0.384547	0.877496	0.286576	0.220564	-0.214113	0.951581	0.896368	0.429136	-0.111208	0	0	0
58193	0	0	0	0	0	3.217410	9.118448	-0.846330	-0.018018	-0.007829	-0.118535	-0.431396	-0.705811	0.452393	-0.269736	-0.484630	-0.566251	-0.609702	96.651594	-16.587767	113.669536	-0.384753	0.877761	0.285484	0.219927	-0.213206	0.951933	0.896436	0.429045	-0.111011	0	0	0
58194	0	0	0	0	0	3.215876	9.158503	-0.892377	0.008459	0.022056	-0.123623	-0.425537	-0.701416	0.447021	-0.270020	-0.484220	-0.566588	-0.609589	96.647461	-16.521192	113.692678	-0.385241	0.877908	0.284370	0.219503	-0.212135	0.952269	0.896330	0.429273	-0.110981	0	0	0
58195	0	0	0	0	0	3.086358	9.270086	-0.692919	0.021931	0.043267	-0.123968	-0.430908	-0.699707	0.451172	-0.270208	-0.483763	-0.566994	-0.609490	96.647479	-16.456304	113.728668	-0.385922	0.877960	0.283284	0.219203	-0.211009	0.952589	0.896111	0.429721	-0.111018	0	0	0
58196	0	0	0	0	0	3.038251	9.374617	-0.725501	0.034832	0.055468	-0.127287	-0.426270	-0.705322	0.456299	-0.270345	-0.483276	-0.567465	-0.609377	96.652835	-16.389861	113.771872	-0.386716	0.877969	0.282172	0.219000	-0.209793	0.952904	0.895818	0.430299	-0.111145	0	0	0
58197	0	0	0	0	0	2.962901	9.476808	-0.790983	0.033417	0.069525	-0.131124	-0.427002	-0.701660	0.455811	-0.270453	-0.482734	-0.567959	-0.609299	96.654998	-16.322656	113.823895	-0.387646	0.877920	0.281046	0.218773	-0.208555	0.953228	0.895471	0.431000	-0.111220	0	0	0
58198	0	0	0	0	0	2.805758	9.465845	-0.780848	0.022341	0.077899	-0.129617	-0.420166	-0.704102	0.457275	-0.270563	-0.482155	-0.568428	-0.609272	96.649527	-16.256377	113.880532	-0.388645	0.877833	0.279936	0.218447	-0.207371	0.953561	0.895118	0.431748	-0.111166	0	0	0
58199	0	0	0	0	0	2.671889	9.353291	-0.818112	0.019604	0.091892	-0.132462	-0.433105	-0.701416	0.460938	-0.270646	-0.481522	-0.568912	-0.609284	96.640188	-16.189838	113.945667	-0.389775	0.877687	0.278821	0.218087	-0.206181	0.953901	0.894714	0.432614	-0.111048	0	0	0
58200	0	0	0	0	0	2.508699	9.340715	-0.783797	0.023254	0.090998	-0.127387	-0.425049	-0.704102	0.450928	-0.270709	-0.480910	-0.569394	-0.609288	96.633263	-16.125681	114.009855	-0.390884	0.877535	0.277745	0.217775	-0.205013	0.954224	0.894306	0.433477	-0.110969	0	0	0
58201	0	0	0	0	0	2.293276	9.253163	-0.792401	0.021804	0.098049	-0.123591	-0.413574	-0.707764	0.449707	-0.270740	-0.480285	-0.569872	-0.609321	96.624453	-16.064650	114.078210	-0.392052	0.877337	0.276722	0.217468	-0.203892	0.954534	0.893870	0.434405	-0.110856	0	0	0
58202	0	0	0	0	0	2.145964	9.346124	-0.852329	0.034147	0.094279	-0.122214	-0.425537	-0.698242	0.454346	-0.270752	-0.479692	-0.570379	-0.609308	96.623479	-16.003640	114.143931	-0.393178	0.877155	0.275698	0.217270	-0.202722	0.954828	0.893423	0.435319	-0.110874	0	0	0
58203	0	0	0	0	0	2.090448	9.361363	-0.890727	0.031723	0.088055	-0.120588	-0.427490	-0.702881	0.450928	-0.270780	-0.479120	-0.570865	-0.609291	96.622201	-15.943553	114.205877	-0.394244	0.876993	0.274690	0.217059	-0.201583	0.955118	0.893004	0.436174	-0.110886	0	0	0
58204	0	0	0	0	0	2.138002	9.352538	-0.901280	0.023417	0.078747	-0.117622	-0.423584	-0.708496	0.455566	-0.270847	-0.478572	-0.571307	-0.609277	96.617831	-15.884127	114.262046	-0.395221	0.876865	0.273693	0.216781	-0.200501	0.955409	0.892640	0.436929	-0.110846	0	0	0
58205	0	0	0	0	0	2.045762	9.310733	-0.850730	0.031561	0.063452	-0.115245	-0.420898	-0.704590	0.459229	-0.270928	-0.478089	-0.571746	-0.609209	96.620648	-15.825512	114.309230	-0.396058	0.876794	0.272709	0.216588	-0.199410	0.955681	0.892316	0.437570	-0.110925	0	0	0
58206	0	0	0	0	0	2.041089	9.296340	-0.928886	0.053307	0.044828	-0.102088	-0.425293	-0.697266	0.447998	-0.270973	-0.477729	-0.572195	-0.609049	96.639271	-15.772692	114.344248	-0.396697	0.876781	0.271822	0.216636	-0.198332	0.955894	0.892020	0.438087	-0.111265	0	0	0
58207	0	0	0	0	0	2.039498	9.385464	-0.927117	0.043911	0.054152	-0.093426	-0.425049	-0.703613	0.451416	-0.270985	-0.477353	-0.572607	-0.608952	96.651155	-15.725867	114.384409	-0.397403	0.876704	0.271035	0.216638	-0.197378	0.956091	0.891706	0.438670	-0.111489	0	0	0
58208	0	0	0	0	0	2.088353	9.358835	-0.991153	0.037057	0.055509	-0.081508	-0.421143	-0.704590	0.442383	-0.270976	-0.476997	-0.572972	-0.608892	96.659195	-15.685483	114.424330	-0.398093	0.876601	0.270357	0.216621	-0.196551	0.956265	0.891402	0.439247	-0.111645	0	0	0
58209	0	0	0	0	0	2.037139	9.459272	-1.002963	0.050860	0.046106	-0.071078	-0.416016	-0.700195	0.447266	-0.270925	-0.476717	-0.573340	-0.608787	96.676739	-15.650862	114.458350	-0.398681	0.876513	0.269775	0.216772	-0.195762	0.956393	0.891102	0.439775	-0.111957	0	0	0
58210	0	0	0	0	0	2.079147	9.482733	-0.992607	0.048019	0.037102	-0.055875	-0.422119	-0.704590	0.450439	-0.270864	-0.476505	-0.573652	-0.608686	96.694514	-15.623858	114.485626	-0.399151	0.876439	0.269321	0.216954	-0.195112	0.956484	0.890848	0.440212	-0.112268	0	0	0
58211	0	0	0	0	0	2.059876	9.465103	-1.127092	0.026942	0.031947	-0.049740	-0.417969	-0.709229	0.451172	-0.270847	-0.476298	-0.573877	-0.608643	96.701101	-15.600386	114.509647	-0.399564	0.876372	0.268926	0.216976	-0.194614	0.956581	0.890657	0.440566	-0.112391	0	0	0
58212	0	0	0	0	0	2.093024	9.435853	-1.245559	0.007457	0.043016	-0.038865	-0.417236	-0.710938	0.452881	-0.270814	-0.476062	-0.574033	-0.608696	96.695034	-15.583461	114.539238	-0.400049	0.876237	0.268642	0.216865	-0.194291	0.956672	0.890466	0.440975	-0.112299	0	0	0
58213	0	0	0	0	0	1.930981	9.313742	-1.271177	0.038717	0.022457	-0.015339	-0.413818	-0.701904	0.451416	-0.270692	-0.475999	-0.574199	-0.608642	96.710534	-15.578860	114.555113	-0.400301	0.876146	0.268564	0.217128	-0.194042	0.956663	0.890289	0.441266	-0.112560	0	0	0
58214	0	0	0	0	0	1.901576	9.275042	-1.286098	0.083457	0.012391	0.003747	-0.416748	-0.700439	0.451660	-0.270436	-0.476081	-0.574444	-0.608461	96.753672	-15.584142	114.563651	-0.400421	0.876064	0.268653	0.217863	-0.193757	0.956553	0.890055	0.441554	-0.113278	0	0	0
58215	0	0	0	0	0	1.929066	9.363289	-1.233790	0.113351	-0.006069	0.016881	-0.419678	-0.702881	0.447510	-0.270121	-0.476299	-0.574721	-0.608169	96.817116	-15.595982	114.560422	-0.400349	0.876036	0.268852	0.218920	-0.193460	0.956372	0.889829	0.441740	-0.114330	0	0	0
58216	0	0	0	0	0	1.956240	9.520610	-1.207082	0.122687	-0.009348	0.024850	-0.423340	-0.699951	0.461670	-0.269770	-0.476560	-0.575005	-0.607852	96.886588	-15.611800	114.554612	-0.400229	0.876009	0.269118	0.220089	-0.193187	0.956159	0.889594	0.441913	-0.115481	0	0	0
58217	0	0	0	0	0	2.089954	9.689845	-1.303451	0.126185	-0.002962	0.032677	-0.418701	-0.707275	0.449463	-0.269365	-0.476830	-0.575288	-0.607552	96.957169	-15.632899	114.552247	-0.400152	0.875935	0.269473	0.221323	-0.192972	0.955917	0.889323	0.442153	-0.116647	0	0	0
58218	0	0	0	0	0	2.244782	9.686517	-1.528882	0.161460	-0.008473	0.056658	-0.423096	-0.694580	0.457520	-0.268822	-0.477232	-0.575615	-0.607167	97.049356	-15.666853	114.544602	-0.399969	0.875843	0.270043	0.222963	-0.192805	0.955570	0.888995	0.442408	-0.118165	0	0	0
58219	0	0	0	0	0	2.431411	9.806896	-1.466381	0.186260	-0.015432	0.086118	-0.424561	-0.701416	0.457520	-0.268148	-0.477773	-0.575935	-0.606736	97.157378	-15.717358	114.530880	-0.399660	0.875722	0.270892	0.224942	-0.192791	0.955109	0.888635	0.442654	-0.119937	0	0	0
58220	0	0	0	0	0	2.561637	9.919708	-1.323798	0.235393	-0.037666	0.117921	-0.425049	-0.703857	0.458252	-0.267326	-0.478538	-0.576299	-0.606150	97.297902	-15.784000	114.501263	-0.399076	0.875641	0.272012	0.227483	-0.192832	0.954499	0.888251	0.442795	-0.122239	0	0	0
58221	0	0	0	0	0	2.830642	10.011631	-1.272498	0.209188	-0.043986	0.141863	-0.429199	-0.696777	0.460449	-0.266509	-0.479355	-0.576516	-0.605657	97.424943	-15.864033	114.466208	-0.398383	0.875539	0.273355	0.229886	-0.193203	0.953847	0.887944	0.442837	-0.124305	0	0	0
58222	0	0	0	0	0	2.942342	9.825812	-1.116693	0.161270	-0.025425	0.168995	-0.425293	-0.684570	0.468018	-0.265674	-0.480130	-0.576548	-0.605380	97.522269	-15.960480	114.439543	-0.397784	0.875304	0.274974	0.231968	-0.194019	0.953177	0.887670	0.442944	-0.125865	0	0	0
58223	0	0	0	0	0	3.032570	9.824833	-1.266229	0.186870	-0.024057	0.196863	-0.425781	-0.701660	0.457520	-0.264685	-0.481015	-0.576591	-0.605070	97.634783	-16.073189	114.411595	-0.397133	0.875004	0.276865	0.234391	-0.194970	0.952390	0.887325	0.443120	-0.127665	0	0	0
58224	0	0	0	0	0	3.231818	9.918618	-1.513947	0.222478	-0.013012	0.218595	-0.431396	-0.688477	0.466553	-0.263516	-0.481975	-0.576703	-0.604710	97.766459	-16.198648	114.387876	-0.396519	0.874614	0.278968	0.237210	-0.195947	0.951492	0.886850	0.443459	-0.129771	0	0	0
58225	0	0	0	0	0	3.355770	10.090817	-1.582916	0.249702	-0.012371	0.240972	-0.427490	-0.689453	0.460449	-0.262209	-0.483031	-0.576841	-0.604303	97.914157	-16.337098	114.362700	-0.395856	0.874171	0.281288	0.240358	-0.197001	0.950483	0.886299	0.443864	-0.132130	0	0	0
58226	0	0	0	0	0	3.535554	9.975377	-1.415699	0.275241	-0.018597	0.266277	-0.422119	-0.684082	0.467285	-0.260783	-0.484211	-0.576987	-0.603836	98.078427	-16.489048	114.331007	-0.395063	0.873707	0.283832	0.243827	-0.198157	0.949359	0.885705	0.444263	-0.134749	0	0	0
58227	0	0	0	0	0	3.738555	10.084499	-1.344027	0.287522	-0.028513	0.294289	-0.427979	-0.682129	0.469482	-0.259268	-0.485517	-0.577086	-0.603345	98.252275	-16.656231	114.290680	-0.394106	0.873226	0.286629	0.247514	-0.199504	0.948122	0.885109	0.444605	-0.137510	0	0	0
58228	0	0	0	0	0	3.875133	10.216933	-1.418611	0.265058	-0.014830	0.316533	-0.438232	-0.676025	0.468506	-0.257703	-0.486814	-0.577079	-0.602977	98.411784	-16.836803	114.255876	-0.393202	0.872638	0.289647	0.251083	-0.201139	0.946837	0.884505	0.445024	-0.140016	0	0	0
58229	0	0	0	0	0	3.973089	10.191552	-1.349984	0.232070	0.010662	0.336749	-0.437012	-0.672852	0.474854	-0.256078	-0.488049	-0.576953	-0.602792	98.548773	-17.031336	114.234140	-0.392465	0.871885	0.292895	0.254439	-0.203100	0.945522	0.883873	0.445608	-0.142132	0	0	0
58230	0	0	0	0	0	4.022509	10.048680	-1.571483	0.230235	0.023821	0.367565	-0.442627	-0.671875	0.474121	-0.254329	-0.489328	-0.576761	-0.602679	98.683454	-17.243967	114.216656	-0.391751	0.871008	0.296441	0.257892	-0.205327	0.944104	0.883189	0.446303	-0.144189	0	0	0
58231	0	0	0	0	0	4.008092	9.901113	-1.684149	0.247972	0.043868	0.392184	-0.441162	-0.672852	0.471680	-0.252399	-0.490638	-0.576584	-0.602594	98.825703	-17.472755	114.208547	-0.391139	0.869976	0.300252	0.261600	-0.207690	0.942566	0.882369	0.447220	-0.146350	0	0	0
58232	0	0	0	0	0	4.091273	9.848793	-1.720619	0.260092	0.045123	0.416374	-0.446289	-0.676025	0.480225	-0.250366	-0.492025	-0.576384	-0.602503	98.975521	-17.714818	114.198022	-0.390456	0.868883	0.304279	0.265499	-0.210197	0.940919	0.881507	0.448173	-0.148615	0	0	0
58233	0	0	0	0	0	4.187192	9.832785	-1.680033	0.287256	0.051334	0.437166	-0.451660	-0.667969	0.470459	-0.248182	-0.493485	-0.576217	-0.602372	99.140490	-17.969501	114.188706	-0.389756	0.867705	0.308511	0.269713	-0.212760	0.939142	0.880537	0.449246	-0.151107	0	0	0
58234	0	0	0	0	0	4.231792	9.857950	-1.783418	0.293109	0.054309	0.460713	-0.449463	-0.656982	0.472900	-0.245904	-0.495008	-0.576010	-0.602255	99.309404	-18.237423	114.177890	-0.388997	0.866453	0.312955	0.274065	-0.215487	0.937259	0.879528	0.450361	-0.153640	0	0	0
58235	0	0	0	0	0	4.252910	9.732314	-1.686481	0.259290	0.059248	0.482252	-0.447998	-0.665283	0.476318	-0.243624	-0.496531	-0.575648	-0.602273	99.458780	-18.518493	114.167563	-0.388208	0.865112	0.317611	0.278198	-0.218552	0.935329	0.878579	0.451461	-0.155829	0	0	0
58236	0	0	0	0	0	4.299106	9.638472	-1.683999	0.286844	0.058385	0.498380	-0.457031	-0.656250	0.478027	-0.241233	-0.498134	-0.575325	-0.602221	99.625148	-18.808024	114.153802	-0.387339	0.863729	0.322398	0.282627	-0.221615	0.933279	0.877548	0.452613	-0.158274	0	0	0
58237	0	0	0	0	0	4.308651	9.495538	-1.919943	0.289125	0.067825	0.523008	-0.463867	-0.655762	0.483887	-0.238730	-0.499778	-0.574953	-0.602212	99.792099	-19.112711	114.142350	-0.386459	0.862230	0.327428	0.287166	-0.224874	0.931111	0.876462	0.453862	-0.160699	0	0	0
58238	0	0	0	0	0	4.363083	9.356316	-1.735769	0.283372	0.095339	0.537863	-0.467285	-0.642578	0.484131	-0.236118	-0.501370	-0.574555	-0.602298	99.951277	-19.428079	114.144764	-0.385752	0.860556	0.332623	0.291703	-0.228270	0.928871	0.875274	0.455342	-0.162971	0	0	0
58239	0	0	0	0	0	4.277285	9.367945	-1.852300	0.332658	0.086187	0.551350	-0.468018	-0.641602	0.480225	-0.233360	-0.503083	-0.574254	-0.602232	100.141398	-19.750783	114.139507	-0.384901	0.858868	0.337930	0.296721	-0.231552	0.926467	0.873961	0.456869	-0.165720	0	0	0
58240	0	0	0	0	0	4.297778	9.342733	-1.763554	0.358428	0.089384	0.566616	-0.472900	-0.633057	0.479248	-0.230485	-0.504853	-0.573990	-0.602109	100.346571	-20.081764	114.133064	-0.384000	0.857116	0.343361	0.302007	-0.234824	0.923932	0.872545	0.458487	-0.168683	0	0	0
58241	0	0	0	0	0	4.353552	9.393007	-1.874671	0.392613	0.100997	0.578841	-0.473633	-0.631836	0.489258	-0.227446	-0.506657	-0.573804	-0.601927	100.569772	-20.421445	114.131282	-0.383134	0.855255	0.348923	0.307632	-0.238035	0.921250	0.870960	0.460303	-0.171904	0	0	0
58242	0	0	0	0	0	4.350800	9.363674	-1.821664	0.377716	0.118774	0.599174	-0.485596	-0.632324	0.494873	-0.224334	-0.508442	-0.573536	-0.601846	100.782097	-20.773823	114.136131	-0.382322	0.853248	0.354680	0.313190	-0.241462	0.918481	0.869334	0.462238	-0.174912	0	0	0
58243	0	0	0	0	0	4.402371	9.207553	-1.871533	0.373914	0.120869	0.613748	-0.487305	-0.614014	0.490234	-0.221175	-0.510253	-0.573212	-0.601790	100.992957	-21.135218	114.139260	-0.381446	0.851169	0.360570	0.318765	-0.245019	0.915617	0.867691	0.464196	-0.177861	0	0	0
58244	0	0	0	0	0	4.438713	9.156620	-1.881100	0.388709	0.131254	0.627927	-0.481201	-0.617188	0.492920	-0.217907	-0.512082	-0.572902	-0.601724	101.211036	-21.505162	114.145446	-0.380578	0.848985	0.366585	0.324505	-0.248600	0.912631	0.865943	0.466286	-0.180888	0	0	0
58245	0	0	0	0	0	4.554861	9.206907	-1.925909	0.384653	0.141886	0.635724	-0.496582	-0.615234	0.497803	-0.214588	-0.513890	-0.572561	-0.601699	101.425334	-21.881321	114.155739	-0.379737	0.846703	0.372685	0.330233	-0.252251	0.909569	0.864145	0.468470	-0.183820	0	0	0
58246	0	0	0	0	0	4.586491	9.190984	-1.911522	0.333603	0.154347	0.647922	-0.509766	-0.610840	0.497070	-0.211329	-0.515633	-0.572043	-0.601855	101.608509	-22.265164	114.170588	-0.378926	0.844307	0.378894	0.335549	-0.256214	0.906511	0.862451	0.470638	-0.186220	0	0	0
58247	0	0	0	0	0	4.694945	9.092614	-1.840301	0.342222	0.157171	0.659925	-0.508789	-0.609619	0.494385	-0.207994	-0.517403	-0.571513	-0.602001	101.796903	-22.656912	114.184716	-0.378064	0.841831	0.385212	0.340979	-0.260224	0.903336	0.860698	0.472868	-0.188666	0	0	0
58248	0	0	0	0	0	4.746346	8.897967	-1.878585	0.343354	0.168777	0.660314	-0.507568	-0.594727	0.507080	-0.204626	-0.519133	-0.570990	-0.602162	101.983707	-23.049489	114.204126	-0.377258	0.839276	0.391526	0.346404	-0.264197	0.900114	0.858884	0.475201	-0.191058	0	0	0
58249	0	0	0	0	0	4.813408	8.904410	-1.981427	0.363568	0.165710	0.665967	-0.510742	-0.597168	0.498291	-0.201189	-0.520903	-0.570500	-0.602257	102.183563	-23.445601	114.219683	-0.376367	0.836685	0.397878	0.352016	-0.268106	0.896774	0.856991	0.477575	-0.193620	0	0	0
58250	0	0	0	0	0	4.819694	8.768665	-1.935826	0.363360	0.172400	0.669657	-0.513184	-0.592285	0.497803	-0.197724	-0.522653	-0.570000	-0.602361	102.382325	-23.843963	114.237243	-0.375478	0.834027	0.404247	0.357622	-0.272011	0.893374	0.855057	0.480010	-0.196132	0	0	0
58251	0	0	0	0	0	4.851445	8.670203	-2.038641	0.363270	0.182618	0.674610	-0.519043	-0.577393	0.502686	-0.194209	-0.524380	-0.569485	-0.602491	102.579098	-24.246973	114.258977	-0.374617	0.831271	0.410671	0.363235	-0.275940	0.889898	0.853067	0.482541	-0.198575	0	0	0
58252	0	0	0	0	0	4.855060	8.755277	-2.042298	0.379458	0.181899	0.682236	-0.527588	-0.574951	0.503906	-0.190630	-0.526137	-0.568992	-0.602568	102.786382	-24.653664	114.277689	-0.373681	0.828471	0.417132	0.368999	-0.279817	0.886308	0.851001	0.485117	-0.201143	0	0	0
58253	0	0	0	0	0	4.894500	8.698638	-2.225189	0.370206	0.195445	0.686895	-0.525635	-0.566650	0.503418	-0.187015	-0.527851	-0.568460	-0.602704	102.985767	-25.065550	114.302624	-0.372797	0.825554	0.423655	0.374695	-0.283758	0.882658	0.848897	0.487794	-0.203547	0	0	0
58254	0	0	0	0	0	4.914224	8.694967	-2.394292	0.370695	0.200998	0.697958	-0.529297	-0.568604	0.507568	-0.183352	-0.529569	-0.567898	-0.602851	103.185012	-25.483603	114.327832	-0.371877	0.822551	0.430253	0.380415	-0.287747	0.878912	0.846754	0.490522	-0.205904	0	0	0
