// General information: 
//  MT Manager version: 2022.2.0 
//  XDA version: 2022.2.0 build 7381 rev 124627 built on 2023-07-19
// Device information: 
//  DeviceId: 10B426DB
//  ProductCode: MTW2-3A7G6
//  Firmware Version: 4.14.0
//  Hardware Version: 3.0.0
// Device settings: 
//  Filter Profile: human(46.1)
//  Option Flags: Orientation Smoother Disabled, Position/Velocity Smoother Disabled, Continuous Zero Rotation Update Disabled, AHS Disabled, ICC Disabled
// Coordinate system: ENU
PacketCounter	SampleTimeFine	Year	Month	Day	Second	Acc_X	Acc_Y	Acc_Z	Gyr_X	Gyr_Y	Gyr_Z	Mag_X	Mag_Y	Mag_Z	Quat_q0	Quat_q1	Quat_q2	Quat_q3	Roll	Pitch	Yaw	Mat[1][1]	Mat[2][1]	Mat[3][1]	Mat[1][2]	Mat[2][2]	Mat[3][2]	Mat[1][3]	Mat[2][3]	Mat[3][3]	Vel_E	Vel_N	Vel_U
57802	0	0	0	0	0	9.850208	0.196928	0.169679	-0.005094	0.008400	-0.000531	-0.773193	0.378418	-0.309570	0.623772	-0.330290	-0.616783	-0.348421	40.236679	-88.425454	-97.603030	-0.003636	-0.027236	0.999622	0.842104	0.539024	0.017749	-0.539304	0.841850	0.020976	0	0	0
57803	0	0	0	0	0	9.810352	0.190243	0.183186	-0.003706	0.010083	0.004329	-0.770752	0.370850	-0.311035	0.623790	-0.330304	-0.616742	-0.348446	40.086948	-88.422843	-97.456994	-0.003572	-0.027290	0.999621	0.842139	0.538969	0.017723	-0.539249	0.841883	0.021057	0	0	0
57804	0	0	0	0	0	9.816772	0.156204	0.187041	0.001740	0.008586	0.000611	-0.772461	0.372559	-0.312500	0.623809	-0.330286	-0.616725	-0.348460	40.018174	-88.419385	-97.387834	-0.003547	-0.027354	0.999620	0.842136	0.538974	0.017737	-0.539254	0.841878	0.021125	0	0	0
57805	0	0	0	0	0	9.809021	0.156708	0.210908	-0.008337	0.005931	-0.000020	-0.769043	0.370605	-0.309570	0.623802	-0.330302	-0.616699	-0.348502	39.992198	-88.416859	-97.367331	-0.003543	-0.027399	0.999618	0.842187	0.538893	0.017756	-0.539174	0.841928	0.021166	0	0	0
57806	0	0	0	0	0	9.824485	0.155768	0.165162	0.001973	0.005224	-0.002900	-0.773438	0.372070	-0.315430	0.623806	-0.330279	-0.616698	-0.348521	40.024386	-88.413581	-97.399038	-0.003565	-0.027454	0.999617	0.842182	0.538899	0.017804	-0.539181	0.841923	0.021200	0	0	0
57807	0	0	0	0	0	9.856584	0.162758	0.176252	0.000694	0.005358	0.003741	-0.769775	0.373779	-0.306641	0.623819	-0.330279	-0.616683	-0.348522	39.951349	-88.412681	-97.326188	-0.003532	-0.027474	0.999616	0.842184	0.538896	0.017787	-0.539178	0.841924	0.021235	0	0	0
57808	0	0	0	0	0	9.841092	0.163637	0.223265	-0.000227	0.009189	0.000308	-0.768066	0.375732	-0.311523	0.623836	-0.330265	-0.616661	-0.348544	39.879018	-88.408841	-97.254597	-0.003506	-0.027545	0.999614	0.842191	0.538885	0.017804	-0.539167	0.841929	0.021309	0	0	0
57809	0	0	0	0	0	9.833330	0.164155	0.247219	-0.001155	0.007193	0.000079	-0.766602	0.372559	-0.311523	0.623844	-0.330261	-0.616642	-0.348568	39.837636	-88.405868	-97.215067	-0.003494	-0.027599	0.999613	0.842209	0.538857	0.017821	-0.539140	0.841945	0.021361	0	0	0
57810	0	0	0	0	0	9.833314	0.164119	0.247866	0.002783	0.005987	0.000688	-0.760498	0.372559	-0.311523	0.623857	-0.330244	-0.616634	-0.348574	39.803707	-88.403573	-97.180167	-0.003482	-0.027641	0.999612	0.842200	0.538870	0.017834	-0.539154	0.841935	0.021403	0	0	0
57811	0	0	0	0	0	9.814035	0.177279	0.241758	0.001622	0.007354	0.003971	-0.774902	0.375488	-0.313477	0.623878	-0.330240	-0.616614	-0.348575	39.698427	-88.401902	-97.074691	-0.003435	-0.027676	0.999611	0.842199	0.538873	0.017814	-0.539157	0.841932	0.021458	0	0	0
57812	0	0	0	0	0	9.828196	0.142775	0.222313	0.010315	0.008325	-0.000254	-0.767090	0.371826	-0.309570	0.623910	-0.330193	-0.616613	-0.348565	39.653381	-88.398229	-97.024353	-0.003418	-0.027743	0.999609	0.842149	0.538950	0.017838	-0.539234	0.841881	0.021521	0	0	0
57813	0	0	0	0	0	9.821745	0.176643	0.220306	-0.001845	0.010868	-0.001040	-0.768799	0.377441	-0.313477	0.623926	-0.330179	-0.616584	-0.348600	39.582520	-88.393179	-96.955439	-0.003396	-0.027834	0.999607	0.842167	0.538920	0.017867	-0.539206	0.841897	0.021611	0	0	0
57814	0	0	0	0	0	9.802459	0.190096	0.214419	0.003133	0.007063	-0.000355	-0.767334	0.369873	-0.306641	0.623942	-0.330157	-0.616575	-0.348609	39.551854	-88.390025	-96.923602	-0.003387	-0.027891	0.999605	0.842156	0.538937	0.017891	-0.539223	0.841884	0.021663	0	0	0
57815	0	0	0	0	0	9.816620	0.155718	0.195219	-0.002655	0.013310	0.001200	-0.767090	0.374512	-0.313232	0.623968	-0.330149	-0.616533	-0.348644	39.413894	-88.384728	-96.788174	-0.003332	-0.027990	0.999603	0.842181	0.538898	0.017897	-0.539185	0.841906	0.021778	0	0	0
57816	0	0	0	0	0	9.837189	0.175602	0.177155	-0.005780	0.012074	-0.001650	-0.768555	0.370117	-0.314453	0.623982	-0.330141	-0.616495	-0.348694	39.334521	-88.378881	-96.712720	-0.003307	-0.028096	0.999600	0.842218	0.538839	0.017932	-0.539127	0.841940	0.021881	0	0	0
57817	0	0	0	0	0	9.830736	0.209636	0.175353	-0.002071	0.011023	-0.003354	-0.766113	0.376709	-0.317627	0.623996	-0.330118	-0.616470	-0.348735	39.297954	-88.372873	-96.677921	-0.003302	-0.028202	0.999597	0.842234	0.538812	0.017984	-0.539102	0.841954	0.021974	0	0	0
57818	0	0	0	0	0	9.842212	0.197068	0.206304	-0.002420	0.009948	-0.002311	-0.774658	0.372070	-0.314453	0.624008	-0.330102	-0.616445	-0.348772	39.258806	-88.367725	-96.640782	-0.003294	-0.028294	0.999594	0.842253	0.538781	0.018026	-0.539072	0.841971	0.022056	0	0	0
57819	0	0	0	0	0	9.816520	0.156316	0.199724	-0.005549	0.011917	0.000667	-0.765625	0.375000	-0.301514	0.624026	-0.330101	-0.616404	-0.348813	39.146153	-88.362770	-96.531825	-0.003250	-0.028386	0.999592	0.842288	0.538725	0.018037	-0.539017	0.842003	0.022158	0	0	0
57820	0	0	0	0	0	9.842166	0.197099	0.208463	-0.002191	0.009791	0.000005	-0.764648	0.368896	-0.308594	0.624042	-0.330091	-0.616377	-0.348843	39.073878	-88.358526	-96.461414	-0.003224	-0.028463	0.999590	0.842306	0.538697	0.018056	-0.538990	0.842019	0.022238	0	0	0
57821	0	0	0	0	0	9.829306	0.176910	0.205684	-0.010868	0.011440	-0.004805	-0.773926	0.372070	-0.307373	0.624036	-0.330096	-0.616336	-0.348921	39.053696	-88.351921	-96.448935	-0.003230	-0.028578	0.999586	0.842378	0.538582	0.018120	-0.538877	0.842088	0.022334	0	0	0
57822	0	0	0	0	0	9.816448	0.156919	0.202797	-0.005892	0.007635	-0.004119	-0.775635	0.375732	-0.307861	0.624032	-0.330089	-0.616315	-0.348971	39.070580	-88.347145	-96.469841	-0.003250	-0.028660	0.999584	0.842416	0.538521	0.018180	-0.538818	0.842124	0.022393	0	0	0
57823	0	0	0	0	0	9.797163	0.170485	0.197047	-0.009482	0.013122	0.000057	-0.774414	0.378418	-0.312256	0.624043	-0.330101	-0.616263	-0.349032	38.957553	-88.341529	-96.363627	-0.003208	-0.028763	0.999581	0.842480	0.538420	0.018197	-0.538718	0.842186	0.022505	0	0	0
57824	0	0	0	0	0	9.821446	0.178158	0.232110	-0.005423	0.013149	-0.002689	-0.768311	0.374756	-0.306641	0.624059	-0.330087	-0.616224	-0.349085	38.884593	-88.334811	-96.294382	-0.003186	-0.028884	0.999578	0.842515	0.538363	0.018242	-0.538663	0.842218	0.022620	0	0	0
57825	0	0	0	0	0	9.808585	0.157907	0.229489	-0.008091	0.011600	-0.000909	-0.769287	0.383545	-0.310303	0.624066	-0.330095	-0.616181	-0.349143	38.803737	-88.329525	-96.219551	-0.003158	-0.028980	0.999575	0.842572	0.538273	0.018268	-0.538574	0.842272	0.022717	0	0	0
57826	0	0	0	0	0	9.840647	0.165004	0.241147	-0.007051	0.009001	-0.000835	-0.768066	0.371094	-0.312744	0.624070	-0.330099	-0.616149	-0.349188	38.753472	-88.325320	-96.173944	-0.003143	-0.029055	0.999573	0.842616	0.538204	0.018294	-0.538506	0.842314	0.022791	0	0	0
57827	0	0	0	0	0	9.829152	0.177853	0.212139	-0.004505	0.009318	0.000745	-0.766602	0.374512	-0.315430	0.624079	-0.330104	-0.616116	-0.349224	38.675822	-88.321623	-96.100092	-0.003112	-0.029123	0.999571	0.842652	0.538147	0.018303	-0.538449	0.842348	0.022866	0	0	0
57828	0	0	0	0	0	9.848389	0.164350	0.219957	-0.007861	0.011443	0.001407	-0.769531	0.368652	-0.303955	0.624093	-0.330114	-0.616071	-0.349270	38.561752	-88.317124	-95.991117	-0.003065	-0.029207	0.999569	0.842700	0.538072	0.018306	-0.538374	0.842393	0.022964	0	0	0
57829	0	0	0	0	0	9.841935	0.198166	0.218132	-0.008665	0.010680	-0.002181	-0.774902	0.373047	-0.314697	0.624096	-0.330118	-0.616032	-0.349329	38.514049	-88.311728	-95.949365	-0.003054	-0.029303	0.999566	0.842756	0.537983	0.018346	-0.538287	0.842446	0.023052	0	0	0
57830	0	0	0	0	0	9.817615	0.190819	0.185547	-0.009702	0.013278	-0.002255	-0.768799	0.372070	-0.314941	0.624106	-0.330119	-0.615985	-0.349395	38.433483	-88.305091	-95.874963	-0.003027	-0.029422	0.999562	0.842814	0.537890	0.018385	-0.538196	0.842501	0.023169	0	0	0
57831	0	0	0	0	0	9.841876	0.198448	0.220519	-0.008437	0.010523	0.000135	-0.768555	0.378906	-0.315918	0.624113	-0.330127	-0.615944	-0.349444	38.352486	-88.300529	-95.799347	-0.002997	-0.029505	0.999560	0.842865	0.537810	0.018402	-0.538116	0.842550	0.023257	0	0	0
57832	0	0	0	0	0	9.816202	0.157546	0.213908	-0.009825	0.012045	0.001103	-0.767822	0.375244	-0.313232	0.624125	-0.330141	-0.615895	-0.349497	38.236919	-88.295633	-95.689998	-0.002949	-0.029596	0.999558	0.842924	0.537718	0.018408	-0.538025	0.842605	0.023361	0	0	0
57833	0	0	0	0	0	9.829002	0.177889	0.218934	-0.010401	0.011125	-0.000170	-0.763184	0.369385	-0.311523	0.624131	-0.330156	-0.615848	-0.349556	38.149502	-88.290738	-95.609439	-0.002916	-0.029685	0.999555	0.842989	0.537616	0.018425	-0.537923	0.842667	0.023457	0	0	0
57834	0	0	0	0	0	9.848232	0.164420	0.226852	-0.007856	0.011441	0.001410	-0.771729	0.377197	-0.305420	0.624145	-0.330166	-0.615803	-0.349601	38.038754	-88.286211	-95.503782	-0.002868	-0.029769	0.999553	0.843037	0.537540	0.018428	-0.537848	0.842713	0.023554	0	0	0
57835	0	0	0	0	0	9.828955	0.177629	0.221264	-0.004960	0.012834	0.001949	-0.769287	0.381836	-0.310547	0.624166	-0.330169	-0.615757	-0.349641	37.907654	-88.281325	-95.376746	-0.002810	-0.029860	0.999550	0.843076	0.537479	0.018427	-0.537788	0.842748	0.023664	0	0	0
57836	0	0	0	0	0	9.821123	0.177932	0.245531	-0.003922	0.010235	0.002023	-0.769531	0.371826	-0.312500	0.624184	-0.330170	-0.615722	-0.349670	37.805234	-88.277546	-95.277166	-0.002765	-0.029931	0.999548	0.843103	0.537437	0.018425	-0.537746	0.842773	0.023749	0	0	0
57837	0	0	0	0	0	9.836723	0.176884	0.200257	-0.004725	0.009474	-0.001567	-0.776855	0.375244	-0.316162	0.624189	-0.330168	-0.615692	-0.349714	37.765311	-88.272931	-95.241182	-0.002753	-0.030012	0.999546	0.843140	0.537378	0.018458	-0.537688	0.842807	0.023825	0	0	0
57838	0	0	0	0	0	9.814654	0.211711	0.244366	-0.001496	0.006115	0.001128	-0.776367	0.371338	-0.315674	0.624197	-0.330166	-0.615675	-0.349732	37.726292	-88.270699	-95.203640	-0.002737	-0.030053	0.999545	0.843154	0.537355	0.018465	-0.537666	0.842820	0.023869	0	0	0
57839	0	0	0	0	0	9.813243	0.178396	0.271280	-0.008078	0.011598	-0.000904	-0.771973	0.377686	-0.307617	0.624207	-0.330168	-0.615634	-0.349785	37.653451	-88.265252	-95.135967	-0.002710	-0.030151	0.999542	0.843202	0.537278	0.018493	-0.537589	0.842866	0.023967	0	0	0
57840	0	0	0	0	0	9.821034	0.177892	0.249097	-0.005427	0.007321	0.000516	-0.767578	0.381104	-0.315186	0.624210	-0.330175	-0.615608	-0.349819	37.607747	-88.262257	-95.093991	-0.002693	-0.030205	0.999540	0.843238	0.537223	0.018506	-0.537534	0.842900	0.024023	0	0	0
57841	0	0	0	0	0	9.818205	0.199239	0.299835	-0.004390	0.004723	0.000589	-0.765625	0.369141	-0.305420	0.624205	-0.330188	-0.615589	-0.349849	37.590194	-88.260580	-95.080422	-0.002688	-0.030235	0.999539	0.843275	0.537163	0.018516	-0.537476	0.842936	0.024052	0	0	0
57842	0	0	0	0	0	9.816006	0.156922	0.223139	-0.006933	0.004407	-0.000991	-0.769287	0.370605	-0.303711	0.624195	-0.330199	-0.615572	-0.349887	37.599834	-88.258380	-95.094679	-0.002699	-0.030272	0.999538	0.843318	0.537095	0.018544	-0.537408	0.842979	0.024080	0	0	0
57843	0	0	0	0	0	9.820994	0.177977	0.250612	-0.000332	0.004751	-0.002154	-0.768799	0.364990	-0.313721	0.624190	-0.330191	-0.615566	-0.349913	37.631893	-88.255721	-95.128389	-0.002721	-0.030317	0.999537	0.843333	0.537069	0.018585	-0.537384	0.842993	0.024106	0	0	0
57844	0	0	0	0	0	9.844449	0.176472	0.181730	-0.001847	0.005038	0.002170	-0.767822	0.371826	-0.313721	0.624196	-0.330195	-0.615550	-0.349927	37.590044	-88.254340	-95.088217	-0.002702	-0.030343	0.999536	0.843349	0.537045	0.018583	-0.537359	0.843008	0.024139	0	0	0
57845	0	0	0	0	0	9.823796	0.156523	0.201416	-0.002649	0.004278	-0.001420	-0.771729	0.367920	-0.318115	0.624192	-0.330190	-0.615543	-0.349952	37.612629	-88.252010	-95.112701	-0.002718	-0.030382	0.999535	0.843367	0.537016	0.018617	-0.537331	0.843025	0.024163	0	0	0
57846	0	0	0	0	0	9.848028	0.164101	0.235732	0.007072	0.005857	0.000273	-0.776855	0.375732	-0.307129	0.624211	-0.330159	-0.615543	-0.349946	37.594830	-88.249593	-95.091478	-0.002711	-0.030425	0.999533	0.843335	0.537065	0.018635	-0.537382	0.842992	0.024203	0	0	0
57847	0	0	0	0	0	9.798107	0.203758	0.192578	0.000930	0.001995	0.000234	-0.767334	0.373291	-0.305908	0.624207	-0.330155	-0.615545	-0.349953	37.622079	-88.248932	-95.119010	-0.002726	-0.030435	0.999533	0.843337	0.537061	0.018654	-0.537378	0.842994	0.024203	0	0	0
57848	0	0	0	0	0	9.848014	0.164103	0.236329	0.003247	0.002469	-0.000501	-0.767578	0.375977	-0.306396	0.624208	-0.330140	-0.615551	-0.349955	37.652309	-88.247783	-95.148030	-0.002744	-0.030454	0.999532	0.843326	0.537078	0.018679	-0.537396	0.842983	0.024209	0	0	0
57849	0	0	0	0	0	9.849409	0.197519	0.210492	0.002670	0.001550	-0.001775	-0.767822	0.376221	-0.305908	0.624200	-0.330130	-0.615559	-0.349967	37.713548	-88.246742	-95.209439	-0.002778	-0.030469	0.999532	0.843327	0.537075	0.018716	-0.537394	0.842984	0.024203	0	0	0
57850	0	0	0	0	0	9.828753	0.177783	0.229960	0.003600	0.003545	-0.001542	-0.770508	0.377441	-0.314941	0.624203	-0.330109	-0.615563	-0.349973	37.746952	-88.244738	-95.241433	-0.002798	-0.030502	0.999531	0.843313	0.537095	0.018751	-0.537415	0.842970	0.024220	0	0	0
57851	0	0	0	0	0	9.809496	0.191271	0.223539	0.004177	0.004464	-0.000267	-0.775635	0.373535	-0.308838	0.624210	-0.330092	-0.615562	-0.349978	37.751099	-88.242868	-95.244584	-0.002803	-0.030535	0.999530	0.843304	0.537109	0.018773	-0.537429	0.842960	0.024245	0	0	0
57852	0	0	0	0	0	9.841549	0.198377	0.234727	0.004530	0.005541	-0.001308	-0.772217	0.374268	-0.314697	0.624221	-0.330065	-0.615562	-0.349984	37.758682	-88.240042	-95.250211	-0.002810	-0.030583	0.999528	0.843286	0.537137	0.018806	-0.537458	0.842941	0.024281	0	0	0
57853	0	0	0	0	0	9.823727	0.157141	0.204301	0.004178	0.004464	-0.000267	-0.772461	0.379395	-0.307617	0.624228	-0.330047	-0.615562	-0.349988	37.765792	-88.238121	-95.255994	-0.002816	-0.030616	0.999527	0.843273	0.537156	0.018830	-0.537478	0.842927	0.024305	0	0	0
57854	0	0	0	0	0	9.808048	0.158146	0.251230	0.008933	0.009847	0.000741	-0.759277	0.374512	-0.302490	0.624264	-0.330004	-0.615553	-0.349981	37.696737	-88.234063	-95.182424	-0.002784	-0.030691	0.999525	0.843231	0.537221	0.018844	-0.537544	0.842883	0.024384	0	0	0
57855	0	0	0	0	0	9.782359	0.205350	0.242247	0.000247	0.005670	-0.000880	-0.774658	0.374512	-0.311523	0.624265	-0.330000	-0.615541	-0.350005	37.694646	-88.231511	-95.182171	-0.002787	-0.030735	0.999524	0.843248	0.537193	0.018870	-0.537517	0.842899	0.024420	0	0	0
57856	0	0	0	0	0	9.808016	0.158213	0.252446	0.006144	0.003861	0.000041	-0.773682	0.378906	-0.314941	0.624276	-0.329975	-0.615546	-0.349999	37.702470	-88.229919	-95.187115	-0.002793	-0.030762	0.999523	0.843221	0.537235	0.018890	-0.537560	0.842871	0.024439	0	0	0
57857	0	0	0	0	0	9.769518	0.185000	0.239177	0.006144	0.003861	0.000041	-0.775635	0.373535	-0.310059	0.624285	-0.329953	-0.615551	-0.349995	37.711102	-88.228391	-95.193371	-0.002798	-0.030789	0.999522	0.843199	0.537269	0.018910	-0.537595	0.842849	0.024457	0	0	0
57858	0	0	0	0	0	9.828654	0.178171	0.233853	0.009499	0.001737	-0.000620	-0.768799	0.377930	-0.311035	0.624294	-0.329919	-0.615570	-0.349977	37.754559	-88.227531	-95.232043	-0.002821	-0.030802	0.999522	0.843154	0.537339	0.018938	-0.537666	0.842804	0.024455	0	0	0
57859	0	0	0	0	0	9.780915	0.172207	0.269474	0.009146	0.000660	0.000421	-0.770264	0.366943	-0.309082	0.624299	-0.329895	-0.615589	-0.349959	37.796314	-88.227615	-95.269927	-0.002841	-0.030798	0.999522	0.843117	0.537396	0.018955	-0.537723	0.842767	0.024440	0	0	0
57860	0	0	0	0	0	9.847894	0.165071	0.240637	0.011123	-0.003145	-0.005103	-0.767334	0.373779	-0.305420	0.624288	-0.329851	-0.615633	-0.349942	37.961640	-88.227382	-95.429594	-0.002927	-0.030794	0.999521	0.843063	0.537478	0.019028	-0.537807	0.842715	0.024388	0	0	0
57861	0	0	0	0	0	9.828651	0.178708	0.233546	0.010183	-0.001937	0.000495	-0.777100	0.371582	-0.317871	0.624285	-0.329828	-0.615662	-0.349916	38.035123	-88.228648	-95.498542	-0.002962	-0.030769	0.999522	0.843020	0.537545	0.019046	-0.537874	0.842674	0.024347	0	0	0
57862	0	0	0	0	0	9.828650	0.178812	0.233505	0.006957	0.001420	-0.002201	-0.768555	0.371826	-0.310303	0.624287	-0.329798	-0.615681	-0.349910	38.103637	-88.227364	-95.563739	-0.002999	-0.030788	0.999521	0.842988	0.537593	0.019089	-0.537923	0.842642	0.024341	0	0	0
57863	0	0	0	0	0	9.841459	0.199434	0.237581	0.009854	0.002813	-0.001660	-0.770996	0.369385	-0.307617	0.624297	-0.329758	-0.615699	-0.349896	38.152178	-88.225642	-95.607330	-0.003025	-0.030815	0.999521	0.842942	0.537665	0.019128	-0.537996	0.842595	0.024349	0	0	0
57864	0	0	0	0	0	9.836467	0.178722	0.210935	0.003955	0.004620	-0.002582	-0.781006	0.375732	-0.319336	0.624303	-0.329730	-0.615703	-0.349906	38.187749	-88.222778	-95.641289	-0.003049	-0.030863	0.999519	0.842926	0.537687	0.019174	-0.538020	0.842579	0.024376	0	0	0
57865	0	0	0	0	0	9.828616	0.179581	0.234356	0.002448	0.001706	-0.004090	-0.766357	0.373047	-0.312012	0.624293	-0.329709	-0.615716	-0.349922	38.280766	-88.220711	-95.733796	-0.003102	-0.030894	0.999518	0.842921	0.537694	0.019236	-0.538029	0.842574	0.024373	0	0	0
57866	0	0	0	0	0	9.805792	0.205574	0.174717	0.003603	0.003545	-0.001541	-0.767822	0.375000	-0.311523	0.624296	-0.329687	-0.615720	-0.349928	38.313074	-88.218698	-95.764693	-0.003122	-0.030927	0.999517	0.842907	0.537714	0.019271	-0.538050	0.842560	0.024390	0	0	0
57867	0	0	0	0	0	9.823623	0.159105	0.207759	0.001742	-0.000446	-0.002008	-0.772705	0.371338	-0.311035	0.624282	-0.329680	-0.615734	-0.349937	38.395999	-88.218376	-95.847762	-0.003168	-0.030928	0.999517	0.842908	0.537711	0.019310	-0.538048	0.842562	0.024367	0	0	0
57868	0	0	0	0	0	9.815776	0.159947	0.230964	0.000482	0.002308	-0.004398	-0.773682	0.365967	-0.307861	0.624271	-0.329661	-0.615742	-0.349959	38.481645	-88.215899	-95.933811	-0.003219	-0.030967	0.999515	0.842911	0.537703	0.019373	-0.538043	0.842565	0.024371	0	0	0
57869	0	0	0	0	0	9.835008	0.146930	0.238163	0.001989	0.005223	-0.002890	-0.774902	0.365234	-0.312988	0.624272	-0.329639	-0.615741	-0.349980	38.518530	-88.212685	-95.970546	-0.003244	-0.031020	0.999513	0.842910	0.537704	0.019424	-0.538045	0.842563	0.024403	0	0	0
57870	0	0	0	0	0	9.807908	0.161142	0.254761	0.000129	0.001232	-0.003356	-0.764648	0.375488	-0.315430	0.624259	-0.329627	-0.615749	-0.349998	38.600922	-88.211056	-96.053543	-0.003292	-0.031044	0.999513	0.842915	0.537694	0.019477	-0.538037	0.842568	0.024397	0	0	0
57871	0	0	0	0	0	9.847800	0.167850	0.242541	0.003250	0.002469	-0.000500	-0.767090	0.373291	-0.319824	0.624261	-0.329611	-0.615756	-0.350000	38.631110	-88.209883	-96.082464	-0.003310	-0.031062	0.999512	0.842903	0.537713	0.019502	-0.538056	0.842556	0.024403	0	0	0
57872	0	0	0	0	0	9.847792	0.167920	0.242810	0.001283	0.003071	-0.000808	-0.774170	0.367676	-0.314453	0.624260	-0.329600	-0.615757	-0.350010	38.656436	-88.208339	-96.107705	-0.003327	-0.031088	0.999511	0.842902	0.537713	0.019530	-0.538057	0.842555	0.024415	0	0	0
57873	0	0	0	0	0	9.836377	0.180917	0.213245	-0.000330	0.004750	-0.002156	-0.776367	0.363770	-0.314209	0.624260	-0.329585	-0.615753	-0.350031	38.681118	-88.205515	-96.132880	-0.003345	-0.031135	0.999510	0.842906	0.537705	0.019571	-0.538050	0.842558	0.024445	0	0	0
57874	0	0	0	0	0	9.847767	0.168227	0.243610	-0.000683	0.003674	-0.001115	-0.777344	0.375488	-0.313477	0.624258	-0.329578	-0.615749	-0.350049	38.702719	-88.203590	-96.155522	-0.003361	-0.031167	0.999509	0.842916	0.537689	0.019601	-0.538035	0.842567	0.024464	0	0	0
57875	0	0	0	0	0	9.823538	0.160997	0.210284	-0.002166	0.006584	-0.005820	-0.773682	0.370605	-0.310547	0.624253	-0.329555	-0.615742	-0.350091	38.761715	-88.198669	-96.216430	-0.003404	-0.031249	0.999506	0.842933	0.537658	0.019680	-0.538008	0.842583	0.024511	0	0	0
57876	0	0	0	0	0	9.815672	0.161924	0.233986	-0.002296	0.005352	-0.002464	-0.770020	0.369629	-0.305908	0.624250	-0.329546	-0.615732	-0.350122	38.782226	-88.195510	-96.238905	-0.003422	-0.031303	0.999504	0.842951	0.537628	0.019724	-0.537979	0.842601	0.024547	0	0	0
57877	0	0	0	0	0	9.820618	0.183175	0.261372	-0.003802	0.002437	-0.003972	-0.767822	0.371094	-0.313232	0.624231	-0.329546	-0.615730	-0.350160	38.860688	-88.193191	-96.320857	-0.003471	-0.031338	0.999503	0.842983	0.537576	0.019783	-0.537928	0.842633	0.024551	0	0	0
57878	0	0	0	0	0	9.829930	0.128154	0.214741	-0.000788	0.008267	-0.000956	-0.770752	0.373291	-0.317139	0.624242	-0.329532	-0.615712	-0.350185	38.827380	-88.189272	-96.288622	-0.003461	-0.031408	0.999501	0.842994	0.537559	0.019811	-0.537913	0.842641	0.024616	0	0	0
57879	0	0	0	0	0	9.823474	0.162073	0.212440	-0.004615	0.004878	-0.001731	-0.763184	0.372803	-0.310303	0.624236	-0.329533	-0.615698	-0.350219	38.840684	-88.186595	-96.305242	-0.003475	-0.031453	0.999499	0.843024	0.537509	0.019846	-0.537864	0.842671	0.024648	0	0	0
57880	0	0	0	0	0	9.827002	0.149917	0.266077	0.000602	0.006745	-0.001922	-0.767090	0.368408	-0.313477	0.624243	-0.329514	-0.615688	-0.350241	38.839154	-88.183009	-96.304005	-0.003482	-0.031515	0.999497	0.843027	0.537503	0.019885	-0.537860	0.842672	0.024697	0	0	0
57881	0	0	0	0	0	9.834836	0.149411	0.243665	0.001401	0.007508	0.001668	-0.770508	0.370850	-0.317383	0.624260	-0.329504	-0.615671	-0.350251	38.778741	-88.180410	-96.243639	-0.003453	-0.031564	0.999496	0.843028	0.537502	0.019887	-0.537859	0.842671	0.024753	0	0	0
57882	0	0	0	0	0	9.850526	0.148222	0.198341	-0.001600	0.010708	0.001286	-0.766357	0.374268	-0.317627	0.624282	-0.329495	-0.615639	-0.350277	38.686419	-88.176202	-96.152826	-0.003411	-0.031643	0.999493	0.843042	0.537479	0.019893	-0.537836	0.842683	0.024843	0	0	0
57883	0	0	0	0	0	9.856944	0.114413	0.202358	-0.001822	0.010864	-0.001029	-0.779785	0.369629	-0.305420	0.624300	-0.329478	-0.615611	-0.350309	38.623001	-88.171076	-96.090881	-0.003386	-0.031735	0.999491	0.843056	0.537456	0.019921	-0.537815	0.842694	0.024934	0	0	0
57884	0	0	0	0	0	9.855420	0.169473	0.227555	0.004915	0.012442	-0.005541	-0.770264	0.366455	-0.314209	0.624326	-0.329424	-0.615597	-0.350338	38.611360	-88.163645	-96.077054	-0.003392	-0.031865	0.999486	0.843036	0.537486	0.019997	-0.537847	0.842671	0.025040	0	0	0
57885	0	0	0	0	0	9.839665	0.170771	0.274856	0.008939	0.009848	0.000748	-0.771729	0.367920	-0.318848	0.624359	-0.329384	-0.615588	-0.350333	38.549310	-88.159666	-96.010860	-0.003363	-0.031938	0.999484	0.842997	0.537546	0.020013	-0.537908	0.842630	0.025116	0	0	0
57886	0	0	0	0	0	9.863229	0.169401	0.206569	0.004563	0.011365	-0.004500	-0.763916	0.379883	-0.313232	0.624383	-0.329337	-0.615575	-0.350358	38.535297	-88.153089	-95.994862	-0.003366	-0.032053	0.999481	0.842978	0.537573	0.020079	-0.537937	0.842608	0.025210	0	0	0
57887	0	0	0	0	0	9.843952	0.183116	0.201075	0.002716	0.016404	-0.002333	-0.775879	0.374023	-0.319580	0.624423	-0.329294	-0.615538	-0.350391	38.432373	-88.145053	-95.891103	-0.003322	-0.032198	0.999476	0.842971	0.537583	0.020120	-0.537949	0.842596	0.025356	0	0	0
57888	0	0	0	0	0	9.808929	0.197892	0.241888	-0.005619	0.013300	-0.005003	-0.776855	0.384277	-0.313477	0.624435	-0.329274	-0.615502	-0.350452	38.398837	-88.137427	-95.861409	-0.003319	-0.032332	0.999472	0.843007	0.537524	0.020188	-0.537893	0.842628	0.025472	0	0	0
57889	0	0	0	0	0	9.839498	0.172063	0.279956	-0.008293	0.011750	-0.003230	-0.767822	0.365479	-0.317383	0.624439	-0.329273	-0.615461	-0.350516	38.354861	-88.131212	-95.823389	-0.003309	-0.032442	0.999468	0.843063	0.537434	0.020236	-0.537805	0.842681	0.025573	0	0	0
57890	0	0	0	0	0	9.796062	0.178152	0.240268	-0.007257	0.009152	-0.003156	-0.776855	0.372803	-0.315430	0.624439	-0.329271	-0.615432	-0.350570	38.340584	-88.126105	-95.813903	-0.003312	-0.032532	0.999465	0.843108	0.537362	0.020285	-0.537735	0.842724	0.025648	0	0	0
57891	0	0	0	0	0	9.834507	0.151637	0.255302	-0.007818	0.017262	-0.001793	-0.768311	0.369873	-0.313477	0.624466	-0.329259	-0.615375	-0.350634	38.221476	-88.117809	-95.699644	-0.003262	-0.032682	0.999460	0.843154	0.537289	0.020321	-0.537663	0.842765	0.025803	0	0	0
57892	0	0	0	0	0	9.805904	0.132273	0.299077	-0.011778	0.012640	0.000784	-0.777588	0.366455	-0.315674	0.624476	-0.329277	-0.615321	-0.350695	38.113716	-88.112524	-95.599216	-0.003214	-0.032780	0.999457	0.843223	0.537180	0.020329	-0.537555	0.842831	0.025914	0	0	0
57893	0	0	0	0	0	9.818666	0.152552	0.304128	-0.015028	0.010171	0.001280	-0.774414	0.367920	-0.319092	0.624473	-0.329310	-0.615268	-0.350761	38.027409	-88.108517	-95.522059	-0.003176	-0.032853	0.999455	0.843309	0.537044	0.020333	-0.537420	0.842914	0.026000	0	0	0
57894	0	0	0	0	0	9.826518	0.151923	0.282303	-0.023920	0.015176	-0.000029	-0.770752	0.376709	-0.310547	0.624470	-0.329358	-0.615186	-0.350866	37.897878	-88.101789	-95.406808	-0.003121	-0.032977	0.999451	0.843443	0.536833	0.020347	-0.537209	0.843044	0.026138	0	0	0
57895	0	0	0	0	0	9.828019	0.097052	0.259669	-0.026591	0.013625	0.001744	-0.773926	0.375977	-0.312988	0.624459	-0.329425	-0.615100	-0.350972	37.760727	-88.096415	-95.285706	-0.003060	-0.033076	0.999448	0.843594	0.536595	0.020341	-0.536972	0.843191	0.026261	0	0	0
57896	0	0	0	0	0	9.855110	0.082829	0.245119	-0.036645	0.019993	0.003720	-0.770752	0.374512	-0.310791	0.624456	-0.329517	-0.614975	-0.351113	37.524110	-88.088793	-95.070604	-0.002948	-0.033220	0.999444	0.843797	0.536278	0.020314	-0.536654	0.843388	0.026450	0	0	0
57897	0	0	0	0	0	9.827926	0.096216	0.263488	-0.041952	0.022716	0.004074	-0.772949	0.368896	-0.310547	0.624450	-0.329626	-0.614828	-0.351276	37.253634	-88.080133	-94.825435	-0.002818	-0.033383	0.999439	0.844036	0.535904	0.020280	-0.536280	0.843619	0.026666	0	0	0
57898	0	0	0	0	0	9.855007	0.081829	0.249567	-0.048186	0.023444	0.004193	-0.772217	0.367432	-0.314209	0.624439	-0.329748	-0.614671	-0.351457	36.972472	-88.071031	-94.572378	-0.002683	-0.033553	0.999433	0.844300	0.535488	0.020244	-0.535864	0.843876	0.026892	0	0	0
57899	0	0	0	0	0	9.861384	0.047433	0.254916	-0.055803	0.025691	0.005281	-0.770264	0.368408	-0.313721	0.624423	-0.329895	-0.614491	-0.351661	36.655761	-88.061252	-94.288250	-0.002530	-0.033736	0.999428	0.844606	0.535007	0.020197	-0.535382	0.844174	0.027141	0	0	0
57900	0	0	0	0	0	9.846964	0.081204	0.277848	-0.050438	0.028794	0.001753	-0.783203	0.371338	-0.315918	0.624421	-0.330008	-0.614316	-0.351865	36.358229	-88.048765	-94.020100	-0.002387	-0.033965	0.999420	0.844882	0.534572	0.020185	-0.534947	0.844440	0.027420	0	0	0
57901	0	0	0	0	0	9.819733	0.094726	0.297025	-0.058624	0.030123	0.001567	-0.771729	0.373047	-0.315186	0.624408	-0.330143	-0.614124	-0.352097	36.052763	-88.035560	-93.748705	-0.002241	-0.034206	0.999412	0.845201	0.534067	0.020174	-0.534443	0.844750	0.027714	0	0	0
57902	0	0	0	0	0	9.861165	0.046233	0.263450	-0.059317	0.027964	0.003652	-0.773438	0.365479	-0.317383	0.624391	-0.330291	-0.613933	-0.352320	35.739944	-88.023999	-93.470345	-0.002087	-0.034418	0.999405	0.845524	0.533557	0.020141	-0.533933	0.845063	0.027987	0	0	0
57903	0	0	0	0	0	9.822714	-0.015206	0.254267	-0.067573	0.030693	-0.002199	-0.765625	0.372070	-0.312012	0.624359	-0.330440	-0.613730	-0.352590	35.480278	-88.009146	-93.249646	-0.001969	-0.034684	0.999396	0.845888	0.532979	0.020164	-0.533356	0.845417	0.028289	0	0	0
57904	0	0	0	0	0	9.835418	0.005163	0.261595	-0.067070	0.036197	-0.000733	-0.773193	0.367676	-0.314209	0.624347	-0.330584	-0.613507	-0.352865	35.151044	-87.992188	-92.959300	-0.001809	-0.034989	0.999386	0.846252	0.532401	0.020171	-0.532780	0.845769	0.028647	0	0	0
57905	0	0	0	0	0	9.819413	0.005715	0.311275	-0.075947	0.035366	0.001161	-0.767578	0.373291	-0.310547	0.624321	-0.330763	-0.613268	-0.353159	34.806018	-87.976211	-92.658326	-0.001638	-0.035276	0.999376	0.846663	0.531748	0.020157	-0.532127	0.846168	0.028996	0	0	0
57906	0	0	0	0	0	9.838509	-0.008006	0.321774	-0.076584	0.039037	0.000078	-0.772949	0.367432	-0.312988	0.624303	-0.330935	-0.613017	-0.353465	34.445086	-87.958057	-92.341713	-0.001456	-0.035601	0.999365	0.847076	0.531090	0.020154	-0.531470	0.846567	0.029384	0	0	0
57907	0	0	0	0	0	9.814356	-0.015442	0.291748	-0.079748	0.042396	-0.002589	-0.769531	0.368408	-0.310303	0.624284	-0.331103	-0.612755	-0.353795	34.095637	-87.937434	-92.038636	-0.001280	-0.035968	0.999352	0.847508	0.530400	0.020176	-0.530782	0.846984	0.029804	0	0	0
57908	0	0	0	0	0	9.835007	0.004656	0.276638	-0.080549	0.035806	-0.003000	-0.769775	0.379150	-0.324219	0.624244	-0.331282	-0.612513	-0.354117	33.813262	-87.919700	-91.802896	-0.001142	-0.036282	0.999341	0.847941	0.529706	0.020201	-0.530090	0.847405	0.030160	0	0	0
57909	0	0	0	0	0	9.818916	0.005394	0.326606	-0.082202	0.042074	-0.004136	-0.766602	0.377930	-0.313232	0.624219	-0.331452	-0.612250	-0.354457	33.493755	-87.898573	-91.530805	-0.000980	-0.036656	0.999327	0.848381	0.529000	0.020235	-0.529386	0.847830	0.030580	0	0	0
57910	0	0	0	0	0	9.783608	0.011296	0.266302	-0.088343	0.032366	-0.001030	-0.769775	0.377197	-0.311035	0.624159	-0.331668	-0.612001	-0.354791	33.219997	-87.883019	-91.308151	-0.000843	-0.036930	0.999317	0.848854	0.528240	0.020238	-0.528627	0.848292	0.030903	0	0	0
57911	0	0	0	0	0	9.841123	-0.028977	0.290030	-0.085847	0.034089	-0.005085	-0.771973	0.372559	-0.312988	0.624099	-0.331865	-0.611756	-0.355135	32.987390	-87.865442	-91.125895	-0.000732	-0.037239	0.999306	0.849319	0.527490	0.020279	-0.527879	0.848745	0.031242	0	0	0
57912	0	0	0	0	0	9.794609	-0.001613	0.302823	-0.080973	0.034873	-0.004207	-0.768311	0.380371	-0.306885	0.624053	-0.332043	-0.611517	-0.355460	32.744998	-87.847624	-90.930398	-0.000610	-0.037552	0.999294	0.849752	0.526791	0.020315	-0.527182	0.849165	0.031589	0	0	0
57913	0	0	0	0	0	9.794509	-0.001567	0.306039	-0.086847	0.030832	-0.001952	-0.766357	0.373535	-0.312988	0.623986	-0.332259	-0.611275	-0.355793	32.507128	-87.832549	-90.743545	-0.000491	-0.037817	0.999285	0.850222	0.526031	0.020325	-0.526423	0.849624	0.031895	0	0	0
57914	0	0	0	0	0	9.840830	-0.028770	0.299808	-0.080688	0.034693	-0.001854	-0.763428	0.376953	-0.316406	0.623944	-0.332444	-0.611033	-0.356109	32.243342	-87.815478	-90.526471	-0.000350	-0.038116	0.999273	0.850653	0.525334	0.020337	-0.525728	0.850042	0.032240	0	0	0
57915	0	0	0	0	0	9.804031	-0.056041	0.264946	-0.084045	0.038230	-0.006820	-0.776611	0.372314	-0.306152	0.623898	-0.332619	-0.610782	-0.356457	32.013793	-87.795172	-90.345626	-0.000232	-0.038471	0.999260	0.851101	0.524606	0.020395	-0.525003	0.850475	0.032621	0	0	0
57916	0	0	0	0	0	9.835896	-0.048724	0.279534	-0.088174	0.033756	-0.006580	-0.770508	0.378906	-0.309082	0.623832	-0.332814	-0.610537	-0.356810	31.819770	-87.777059	-90.202655	-0.000137	-0.038788	0.999247	0.851569	0.523844	0.020451	-0.524243	0.850931	0.032958	0	0	0
57917	0	0	0	0	0	9.842222	-0.082177	0.285664	-0.080158	0.041605	-0.005967	-0.774170	0.379150	-0.319824	0.623800	-0.332977	-0.610280	-0.357153	31.567684	-87.755434	-89.997828	0.000001	-0.039165	0.999233	0.852003	0.523136	0.020503	-0.523538	0.851349	0.033369	0	0	0
57918	0	0	0	0	0	9.811793	-0.054715	0.253199	-0.088327	0.044357	-0.011788	-0.767090	0.377930	-0.312744	0.623757	-0.333138	-0.610010	-0.357539	31.364059	-87.730540	-89.845330	0.000107	-0.039599	0.999216	0.852470	0.522369	0.020610	-0.522775	0.851800	0.033813	0	0	0
57919	0	0	0	0	0	9.833905	-0.080662	0.317248	-0.087144	0.046168	-0.009196	-0.778076	0.375488	-0.316162	0.623725	-0.333301	-0.609732	-0.357917	31.117740	-87.705543	-89.649488	0.000245	-0.040034	0.999198	0.852932	0.521612	0.020690	-0.522022	0.852243	0.034274	0	0	0
57920	0	0	0	0	0	9.814575	-0.066509	0.315084	-0.085809	0.049241	-0.009945	-0.767090	0.382324	-0.312500	0.623703	-0.333451	-0.609448	-0.358298	30.865821	-87.678746	-89.447208	0.000391	-0.040501	0.999179	0.853386	0.520866	0.020779	-0.521280	0.852677	0.034766	0	0	0
57921	0	0	0	0	0	9.798699	-0.072621	0.262426	-0.085526	0.045910	-0.013477	-0.772461	0.374756	-0.317383	0.623664	-0.333597	-0.609180	-0.358684	30.684481	-87.652594	-89.315685	0.000489	-0.040956	0.999161	0.853840	0.520116	0.020902	-0.520536	0.853113	0.035224	0	0	0
57922	0	0	0	0	0	9.805027	-0.105430	0.269242	-0.084914	0.046811	-0.012170	-0.774414	0.380127	-0.312988	0.623633	-0.333742	-0.608909	-0.359066	30.486012	-87.626290	-89.166380	0.000603	-0.041413	0.999142	0.854287	0.519377	0.021012	-0.519801	0.853541	0.035691	0	0	0
57923	0	0	0	0	0	9.825771	-0.083923	0.255205	-0.085283	0.047165	-0.016774	-0.769043	0.375244	-0.308350	0.623592	-0.333873	-0.608644	-0.359463	30.342800	-87.598504	-89.072651	0.000678	-0.041896	0.999122	0.854737	0.518630	0.021168	-0.519062	0.853972	0.036162	0	0	0
57924	0	0	0	0	0	9.804803	-0.102858	0.278239	-0.081357	0.045956	-0.016149	-0.768555	0.381592	-0.319092	0.623557	-0.333996	-0.608388	-0.359844	30.205664	-87.571440	-88.982687	0.000752	-0.042367	0.999102	0.855164	0.517918	0.021318	-0.518356	0.854380	0.036620	0	0	0
57925	0	0	0	0	0	9.817587	-0.169286	0.287521	-0.077962	0.052835	-0.014053	-0.773438	0.376709	-0.318115	0.623550	-0.334104	-0.608113	-0.360220	30.001079	-87.541632	-88.823505	0.000881	-0.042884	0.999080	0.855576	0.517232	0.021447	-0.517676	0.854770	0.037146	0	0	0
57926	0	0	0	0	0	9.806434	-0.154570	0.262845	-0.081800	0.054032	-0.014635	-0.772461	0.378418	-0.310303	0.623540	-0.334218	-0.607828	-0.360611	29.799119	-87.510966	-88.668908	0.001009	-0.043416	0.999057	0.856005	0.516516	0.021582	-0.516966	0.855176	0.037686	0	0	0
57927	0	0	0	0	0	9.782588	-0.160364	0.233571	-0.071296	0.051743	-0.009507	-0.771973	0.376953	-0.312744	0.623550	-0.334320	-0.607561	-0.360951	29.564071	-87.482938	-88.475308	0.001169	-0.043901	0.999035	0.856381	0.515890	0.021668	-0.516343	0.855529	0.038199	0	0	0
57928	0	0	0	0	0	9.820823	-0.186562	0.252276	-0.073843	0.056021	-0.010848	-0.775635	0.376953	-0.312256	0.623566	-0.334417	-0.607278	-0.361309	29.320415	-87.452292	-88.274402	0.001339	-0.044431	0.999012	0.856768	0.515242	0.021767	-0.515700	0.855892	0.038757	0	0	0
57929	0	0	0	0	0	9.820705	-0.185561	0.257550	-0.074934	0.054208	-0.013408	-0.765625	0.377441	-0.308350	0.623569	-0.334515	-0.607003	-0.361676	29.122002	-87.421904	-88.119696	0.001476	-0.044957	0.998988	0.857163	0.514580	0.021891	-0.515044	0.856263	0.039295	0	0	0
57930	0	0	0	0	0	9.772313	-0.191345	0.297358	-0.077030	0.054989	-0.016000	-0.771484	0.378418	-0.310547	0.623567	-0.334608	-0.606726	-0.362058	28.949398	-87.390281	-87.991735	0.001596	-0.045504	0.998963	0.857565	0.513903	0.022039	-0.514373	0.856641	0.039843	0	0	0
57931	0	0	0	0	0	9.818731	-0.216786	0.293210	-0.081058	0.056370	-0.018892	-0.768311	0.384033	-0.312744	0.623554	-0.334706	-0.606440	-0.362466	28.800947	-87.357305	-87.890914	0.001697	-0.046076	0.998936	0.857994	0.513179	0.022213	-0.513657	0.857044	0.040404	0	0	0
57932	0	0	0	0	0	9.767584	-0.208470	0.280388	-0.071982	0.057046	-0.018418	-0.773193	0.374512	-0.315674	0.623562	-0.334772	-0.606170	-0.362844	28.652017	-87.323952	-87.783749	0.001806	-0.046654	0.998909	0.858369	0.512543	0.022387	-0.513029	0.857393	0.040972	0	0	0
57933	0	0	0	0	0	9.748299	-0.193008	0.279143	-0.082566	0.059515	-0.025814	-0.772217	0.383545	-0.309326	0.623546	-0.334847	-0.605884	-0.363281	28.563273	-87.287417	-87.743156	0.001864	-0.047289	0.998880	0.858801	0.511809	0.022628	-0.512306	0.857797	0.041566	0	0	0
57934	0	0	0	0	0	9.786524	-0.217643	0.297999	-0.081634	0.052520	-0.028317	-0.768311	0.381104	-0.317383	0.623506	-0.334921	-0.605626	-0.363711	28.544177	-87.253616	-87.771502	0.001863	-0.047879	0.998851	0.859225	0.511085	0.022896	-0.511594	0.858196	0.042091	0	0	0
57935	0	0	0	0	0	9.773756	-0.235407	0.298497	-0.081297	0.058190	-0.029065	-0.765381	0.374512	-0.314697	0.623480	-0.334985	-0.605350	-0.364154	28.498586	-87.216905	-87.773710	0.001886	-0.048518	0.998821	0.859652	0.510354	0.023167	-0.510876	0.858595	0.042672	0	0	0
57936	0	0	0	0	0	9.780163	-0.266698	0.305851	-0.082543	0.055099	-0.028298	-0.772461	0.384521	-0.313232	0.623446	-0.335058	-0.605083	-0.364590	28.464518	-87.181812	-87.787590	0.001898	-0.049130	0.998791	0.860080	0.509621	0.023434	-0.510156	0.858995	0.043223	0	0	0
57937	0	0	0	0	0	9.756970	-0.230615	0.354850	-0.081880	0.052884	-0.032871	-0.769287	0.384521	-0.322998	0.623397	-0.335120	-0.604829	-0.365036	28.487608	-87.146702	-87.858612	0.001860	-0.049744	0.998760	0.860506	0.508886	0.023743	-0.509436	0.859395	0.043752	0	0	0
57938	0	0	0	0	0	9.680624	-0.261540	0.331567	-0.078093	0.047290	-0.034813	-0.766602	0.372803	-0.314941	0.623335	-0.335173	-0.604605	-0.365466	28.563264	-87.113757	-87.979802	0.001775	-0.050322	0.998731	0.860910	0.508187	0.024075	-0.508754	0.859775	0.044225	0	0	0
57939	0	0	0	0	0	9.688883	-0.258026	0.312750	-0.076239	0.042295	-0.037059	-0.773438	0.375244	-0.310791	0.623258	-0.335221	-0.604403	-0.365887	28.683971	-87.082725	-88.144717	0.001648	-0.050867	0.998704	0.861301	0.507507	0.024428	-0.508092	0.860145	0.044648	0	0	0
57940	0	0	0	0	0	9.642188	-0.227872	0.325823	-0.078610	0.037405	-0.038891	-0.767578	0.372070	-0.310303	0.623157	-0.335281	-0.604214	-0.366315	28.847271	-87.053595	-88.353969	0.001477	-0.051381	0.998678	0.861707	0.506800	0.024800	-0.507404	0.860531	0.045023	0	0	0
57941	0	0	0	0	0	9.691141	-0.305083	0.293198	-0.071820	0.022562	-0.035153	-0.770508	0.377930	-0.318115	0.623028	-0.335360	-0.604078	-0.366687	29.055654	-87.033048	-88.604734	0.001260	-0.051745	0.998660	0.862079	0.506149	0.025138	-0.506772	0.860892	0.045246	0	0	0
57942	0	0	0	0	0	9.701478	-0.227512	0.325920	-0.071165	0.020359	-0.039738	-0.769043	0.373535	-0.317871	0.622886	-0.335425	-0.603958	-0.367066	29.315618	-87.012131	-88.906518	0.000995	-0.052115	0.998641	0.862446	0.505505	0.025521	-0.506148	0.861248	0.045449	0	0	0
57943	0	0	0	0	0	9.733119	-0.256713	0.260448	-0.077939	0.014279	-0.037840	-0.766602	0.375732	-0.311279	0.622720	-0.335526	-0.603842	-0.367446	29.581054	-86.994741	-89.217235	0.000716	-0.052423	0.998625	0.862842	0.504810	0.025881	-0.505473	0.861637	0.045594	0	0	0
57944	0	0	0	0	0	9.764951	-0.246345	0.273266	-0.078461	0.013376	-0.039118	-0.768066	0.387939	-0.315918	0.622546	-0.335629	-0.603729	-0.367834	29.861270	-86.977328	-89.543495	0.000420	-0.052729	0.998609	0.863245	0.504103	0.026255	-0.504786	0.862032	0.045730	0	0	0
57945	0	0	0	0	0	9.747546	-0.194981	0.243036	-0.079427	0.015961	-0.039115	-0.772949	0.369629	-0.306152	0.622377	-0.335734	-0.603603	-0.368230	30.119612	-86.958723	-89.848866	0.000140	-0.053055	0.998592	0.863655	0.503380	0.026624	-0.504084	0.862435	0.045892	0	0	0
57946	0	0	0	0	0	9.724268	-0.158450	0.288049	-0.083818	0.005790	-0.038207	-0.773682	0.381348	-0.311768	0.622172	-0.335869	-0.603502	-0.368617	30.422629	-86.945163	-90.201043	-0.000187	-0.053291	0.998579	0.864083	0.502626	0.026986	-0.503350	0.862860	0.045954	0	0	0
57947	0	0	0	0	0	9.713458	-0.141091	0.258898	-0.089363	0.007372	-0.036769	-0.776123	0.380615	-0.313232	0.621963	-0.336027	-0.603382	-0.369022	30.698705	-86.931343	-90.529918	-0.000495	-0.053530	0.998566	0.864542	0.501817	0.027330	-0.502560	0.863316	0.046031	0	0	0
57948	0	0	0	0	0	9.681750	-0.144375	0.247333	-0.091822	-0.001899	-0.041195	-0.769531	0.381104	-0.307373	0.621716	-0.336193	-0.603295	-0.369430	31.060915	-86.920487	-90.945975	-0.000887	-0.053714	0.998556	0.865008	0.500991	0.027718	-0.501757	0.863784	0.046019	0	0	0
57949	0	0	0	0	0	9.666803	-0.107658	0.267850	-0.090510	-0.010777	-0.033509	-0.769775	0.381592	-0.315186	0.621456	-0.336399	-0.603223	-0.369798	31.398881	-86.916352	-91.337662	-0.001256	-0.053779	0.998552	0.865473	0.500171	0.028026	-0.500954	0.864255	0.045916	0	0	0
57950	0	0	0	0	0	9.650153	-0.144872	0.233158	-0.091040	-0.022143	-0.032024	-0.771973	0.383545	-0.309814	0.621166	-0.336627	-0.603184	-0.370141	31.787530	-86.917852	-91.779751	-0.001670	-0.053742	0.998553	0.865934	0.499356	0.028323	-0.500156	0.864729	0.045703	0	0	0
57951	0	0	0	0	0	9.712107	-0.163080	0.278624	-0.083683	-0.027130	-0.024198	-0.760010	0.380859	-0.316895	0.620887	-0.336869	-0.603159	-0.370430	32.134679	-86.924188	-92.176460	-0.002038	-0.053619	0.998559	0.866361	0.498603	0.028541	-0.499415	0.865171	0.045437	0	0	0
57952	0	0	0	0	0	9.701330	-0.146933	0.246159	-0.075969	-0.029510	-0.023010	-0.767578	0.385254	-0.308838	0.620616	-0.337091	-0.603156	-0.370687	32.494555	-86.931718	-92.581083	-0.002410	-0.053472	0.998566	0.866745	0.497922	0.028755	-0.498746	0.865572	0.045146	0	0	0
57953	0	0	0	0	0	9.684773	-0.146568	0.289240	-0.062487	-0.026222	-0.012460	-0.773926	0.382813	-0.309570	0.620399	-0.337300	-0.603147	-0.370875	32.743370	-86.940974	-92.866942	-0.002669	-0.053298	0.998575	0.867063	0.497361	0.028864	-0.498191	0.865905	0.044885	0	0	0
57954	0	0	0	0	0	9.669836	-0.112558	0.308011	-0.051221	-0.026511	-0.007105	-0.767578	0.384277	-0.305664	0.620208	-0.337487	-0.603153	-0.371013	32.960195	-86.951800	-93.114104	-0.002889	-0.053098	0.998585	0.867324	0.496903	0.028931	-0.497736	0.866180	0.044617	0	0	0
57955	0	0	0	0	0	9.687662	-0.121637	0.415514	-0.032555	-0.025900	0.003006	-0.766846	0.380615	-0.311279	0.620067	-0.337652	-0.603172	-0.371067	33.090599	-86.965716	-93.264769	-0.003015	-0.052848	0.998598	0.867498	0.496601	0.028900	-0.497432	0.866369	0.044348	0	0	0
57956	0	0	0	0	0	9.653492	-0.075605	0.428241	-0.021477	-0.017025	0.008922	-0.766846	0.383057	-0.309326	0.619985	-0.337778	-0.603177	-0.371081	33.125926	-86.976946	-93.313108	-0.003048	-0.052650	0.998608	0.867610	0.496409	0.028820	-0.497235	0.866491	0.044166	0	0	0
57957	0	0	0	0	0	9.605181	-0.085555	0.460619	-0.001439	-0.020933	0.029256	-0.775635	0.376221	-0.313721	0.619963	-0.337914	-0.603195	-0.370965	33.005397	-86.996591	-93.194066	-0.002919	-0.052314	0.998626	0.867625	0.496398	0.028541	-0.497210	0.866517	0.043940	0	0	0
57958	0	0	0	0	0	9.616937	0.019619	0.466086	0.013114	-0.014350	0.036759	-0.768066	0.372803	-0.308594	0.620000	-0.338011	-0.603209	-0.370794	32.788352	-87.015206	-92.969840	-0.002698	-0.052001	0.998643	0.867567	0.496521	0.028198	-0.497313	0.866466	0.043775	0	0	0
57959	0	0	0	0	0	9.584424	0.097129	0.455229	0.021450	-0.011461	0.041811	-0.769531	0.377441	-0.310303	0.620069	-0.338091	-0.603222	-0.370583	32.508075	-87.034008	-92.677031	-0.002417	-0.051687	0.998660	0.867462	0.496725	0.027808	-0.497497	0.866368	0.043636	0	0	0
57960	0	0	0	0	0	9.499374	0.146299	0.449955	0.022103	-0.027137	0.051196	-0.774414	0.375000	-0.306641	0.620109	-0.338228	-0.603267	-0.370318	32.230196	-87.063131	-92.386741	-0.002134	-0.051191	0.998687	0.867359	0.496932	0.027325	-0.497678	0.866278	0.043341	0	0	0
57961	0	0	0	0	0	9.540603	0.271123	0.413059	0.026506	-0.037908	0.055829	-0.775146	0.381836	-0.315430	0.620132	-0.338386	-0.603347	-0.370006	31.968326	-87.098956	-92.109875	-0.001863	-0.050577	0.998718	0.867233	0.497181	0.026796	-0.497899	0.866172	0.042935	0	0	0
57962	0	0	0	0	0	9.521744	0.279153	0.401895	0.023233	-0.056769	0.062060	-0.770996	0.383057	-0.300781	0.620103	-0.338607	-0.603467	-0.369654	31.751618	-87.145651	-91.880203	-0.001634	-0.049770	0.998759	0.867124	0.497403	0.026205	-0.498090	0.866091	0.042344	0	0	0
57963	0	0	0	0	0	9.644055	0.329594	0.337037	0.026634	-0.073915	0.063833	-0.776855	0.376221	-0.307129	0.620032	-0.338858	-0.603644	-0.369257	31.613925	-87.201404	-91.728046	-0.001472	-0.048803	0.998807	0.867001	0.497649	0.025594	-0.498305	0.866004	0.041580	0	0	0
57964	0	0	0	0	0	9.754322	0.271860	0.263151	0.029364	-0.094820	0.056105	-0.773682	0.373779	-0.306396	0.619888	-0.339112	-0.603903	-0.368840	31.684779	-87.264825	-91.782777	-0.001485	-0.047697	0.998861	0.866861	0.497920	0.025065	-0.498548	0.865910	0.040607	0	0	0
57965	0	0	0	0	0	9.924288	0.247384	0.261852	0.038698	-0.100476	0.047056	-0.770264	0.376221	-0.306885	0.619725	-0.339320	-0.604215	-0.368412	31.896726	-87.328374	-91.973180	-0.001605	-0.046584	0.998913	0.866672	0.498270	0.024629	-0.498876	0.865770	0.039573	0	0	0
57966	0	0	0	0	0	10.030508	0.210620	0.236937	0.054404	-0.099637	0.031494	-0.777832	0.382324	-0.309570	0.619564	-0.339431	-0.604577	-0.367987	32.285720	-87.386619	-92.332024	-0.001855	-0.045559	0.998960	0.866407	0.498745	0.024355	-0.499336	0.865551	0.038547	0	0	0
57967	0	0	0	0	0	10.090024	0.202182	0.222374	0.074300	-0.088433	0.012716	-0.767578	0.380127	-0.309326	0.619436	-0.339402	-0.604974	-0.367577	32.826533	-87.433638	-92.831176	-0.002212	-0.044722	0.998997	0.866039	0.499387	0.024273	-0.499971	0.865224	0.037626	0	0	0
57968	0	0	0	0	0	10.122839	0.204050	0.121755	0.091350	-0.078630	-0.006642	-0.770996	0.376465	-0.303467	0.619329	-0.339244	-0.605403	-0.367194	33.537670	-87.469527	-93.491264	-0.002689	-0.044069	0.999025	0.865587	0.500164	0.024393	-0.500751	0.864809	0.036801	0	0	0
57969	0	0	0	0	0	10.112723	0.258782	0.163428	0.115856	-0.067950	-0.021260	-0.770020	0.378174	-0.299805	0.619271	-0.338947	-0.605869	-0.366798	34.359443	-87.495390	-94.247822	-0.003237	-0.043580	0.999045	0.865010	0.501149	0.024663	-0.501745	0.864263	0.036075	0	0	0
57970	0	0	0	0	0	10.031306	0.295991	0.102908	0.135565	-0.054994	-0.030833	-0.764893	0.382324	-0.306152	0.619266	-0.338535	-0.606347	-0.366396	35.216291	-87.511412	-95.028376	-0.003806	-0.043253	0.999057	0.864333	0.502296	0.025039	-0.502905	0.863613	0.035474	0	0	0
57971	0	0	0	0	0	9.946192	0.353336	0.094615	0.154490	-0.039654	-0.038111	-0.771484	0.376709	-0.305908	0.619326	-0.338019	-0.606823	-0.365985	36.049168	-87.517592	-95.774473	-0.004358	-0.043093	0.999062	0.863563	0.503597	0.025489	-0.504223	0.862863	0.035019	0	0	0
57972	0	0	0	0	0	9.915170	0.472761	0.055742	0.200571	-0.028306	-0.038763	-0.769531	0.379639	-0.307373	0.619497	-0.337332	-0.607350	-0.365455	36.832866	-87.517626	-96.444519	-0.004861	-0.043038	0.999062	0.862553	0.505299	0.025965	-0.505943	0.861870	0.034666	0	0	0
57973	0	0	0	0	0	9.829340	0.618153	0.050696	0.216297	-0.009286	-0.033782	-0.775879	0.374512	-0.304443	0.619761	-0.336579	-0.607837	-0.364892	37.417307	-87.510523	-96.906132	-0.005223	-0.043121	0.999056	0.861461	0.507137	0.026392	-0.507797	0.860786	0.034498	0	0	0
57974	0	0	0	0	0	9.823514	0.694818	0.125736	0.237705	0.006658	-0.024596	-0.775635	0.367920	-0.312988	0.620124	-0.335756	-0.608298	-0.364263	37.790619	-87.499049	-97.144112	-0.005427	-0.043297	0.999047	0.860256	0.509161	0.026739	-0.509834	0.859582	0.034484	0	0	0
57975	0	0	0	0	0	9.828740	0.839463	0.128887	0.253168	0.024587	-0.018587	-0.770508	0.373779	-0.309570	0.620580	-0.334869	-0.608722	-0.363595	37.965325	-87.481621	-97.174043	-0.005487	-0.043596	0.999034	0.858964	0.511323	0.027031	-0.512007	0.858282	0.034641	0	0	0
57976	0	0	0	0	0	9.711890	1.015794	0.193489	0.256311	0.036581	-0.003578	-0.764160	0.370605	-0.319336	0.621102	-0.333997	-0.609087	-0.362894	37.890827	-87.463967	-96.953112	-0.005356	-0.043922	0.999021	0.857654	0.513509	0.027175	-0.514200	0.856959	0.034919	0	0	0
57977	0	0	0	0	0	9.601449	1.029026	0.181023	0.246620	0.026524	0.004607	-0.770264	0.378418	-0.319092	0.621595	-0.333195	-0.609451	-0.362174	37.804277	-87.453795	-96.725063	-0.005202	-0.044119	0.999013	0.856384	0.515622	0.027231	-0.516314	0.855680	0.035101	0	0	0
57978	0	0	0	0	0	9.520826	1.184299	0.100469	0.239510	0.010524	0.002634	-0.766602	0.373047	-0.312744	0.622019	-0.332440	-0.609854	-0.361460	37.865223	-87.450100	-96.649343	-0.005152	-0.044190	0.999010	0.855150	0.517660	0.027308	-0.518355	0.854444	0.035123	0	0	0
57979	0	0	0	0	0	9.495546	1.224885	-0.015500	0.226622	-0.026262	-0.005966	-0.774414	0.362061	-0.322754	0.622295	-0.331766	-0.610361	-0.360748	38.292372	-87.460125	-96.947496	-0.005360	-0.043989	0.999018	0.853978	0.519584	0.027461	-0.520281	0.853286	0.034781	0	0	0
57980	0	0	0	0	0	9.490834	1.286226	-0.152651	0.199788	-0.045117	-0.016017	-0.777588	0.363525	-0.317627	0.622449	-0.331178	-0.610895	-0.360120	38.967654	-87.474711	-97.509494	-0.005758	-0.043682	0.999029	0.852942	0.521270	0.027709	-0.521974	0.852273	0.034257	0	0	0
57981	0	0	0	0	0	9.584158	1.227451	-0.282979	0.183216	-0.076767	-0.037499	-0.775879	0.361816	-0.314453	0.622442	-0.330624	-0.611537	-0.359550	40.123528	-87.494960	-98.560790	-0.006506	-0.043220	0.999044	0.851976	0.522823	0.028167	-0.523541	0.851345	0.033421	0	0	0
57982	0	0	0	0	0	9.728168	1.164129	-0.397743	0.163202	-0.101748	-0.058068	-0.777344	0.364502	-0.309326	0.622285	-0.330122	-0.612249	-0.359070	41.705455	-87.517286	-100.051258	-0.007560	-0.042653	0.999061	0.851122	0.524176	0.028820	-0.524914	0.850541	0.032340	0	0	0
57983	0	0	0	0	0	9.842231	1.170333	-0.474056	0.168826	-0.128815	-0.075457	-0.774414	0.359863	-0.309814	0.622022	-0.329598	-0.613086	-0.358581	43.739000	-87.542290	-101.990435	-0.008909	-0.041946	0.999080	0.850233	0.525571	0.029648	-0.526331	0.849715	0.030982	0	0	0
57984	0	0	0	0	0	10.004510	1.097597	-0.587121	0.158077	-0.150478	-0.104475	-0.771973	0.366211	-0.311035	0.621622	-0.329056	-0.614016	-0.358179	46.280655	-87.560865	-104.444397	-0.010616	-0.041213	0.999094	0.849396	0.526859	0.030758	-0.527650	0.848953	0.029413	0	0	0
57985	0	0	0	0	0	10.186775	1.056093	-0.617655	0.161083	-0.161477	-0.131761	-0.769287	0.356445	-0.314209	0.621143	-0.328442	-0.615030	-0.357835	49.214610	-87.567224	-107.289421	-0.012615	-0.040529	0.999099	0.848536	0.528160	0.032139	-0.528986	0.848177	0.027728	0	0	0
57986	0	0	0	0	0	10.245717	1.008980	-0.665358	0.168340	-0.154574	-0.154073	-0.769775	0.368408	-0.317383	0.620656	-0.327723	-0.616071	-0.357548	52.267832	-87.554710	-110.249508	-0.014767	-0.040028	0.999089	0.847629	0.529515	0.033743	-0.530383	0.847356	0.026110	0	0	0
57987	0	0	0	0	0	10.241758	0.982542	-0.759640	0.183975	-0.140112	-0.171213	-0.777832	0.353760	-0.312256	0.620211	-0.326874	-0.617122	-0.357286	55.261055	-87.522869	-113.140197	-0.016985	-0.039743	0.999066	0.846627	0.531001	0.035517	-0.531916	0.846439	0.024629	0	0	0
57988	0	0	0	0	0	10.119628	0.977006	-0.737850	0.201002	-0.117750	-0.169552	-0.772949	0.365967	-0.304688	0.619861	-0.325938	-0.618129	-0.357005	57.925596	-87.478552	-115.692637	-0.019073	-0.039644	0.999032	0.845531	0.532624	0.037278	-0.533586	0.845423	0.023361	0	0	0
57989	0	0	0	0	0	10.021036	0.944911	-0.653880	0.207034	-0.098306	-0.157357	-0.782227	0.360596	-0.310059	0.619600	-0.324989	-0.619066	-0.356700	60.208718	-87.429953	-117.860362	-0.020955	-0.039643	0.998994	0.844403	0.534294	0.038915	-0.535299	0.844369	0.022279	0	0	0
57990	0	0	0	0	0	9.880229	0.949356	-0.635025	0.196977	-0.094098	-0.131429	-0.777832	0.349365	-0.305664	0.619383	-0.324141	-0.619929	-0.356351	62.199351	-87.389452	-119.740694	-0.022595	-0.039547	0.998962	0.843324	0.535894	0.040290	-0.536931	0.843359	0.021243	0	0	0
57991	0	0	0	0	0	9.761132	0.849249	-0.605541	0.181407	-0.071875	-0.088660	-0.781982	0.357178	-0.308105	0.619282	-0.323436	-0.620625	-0.355954	63.643863	-87.362606	-121.083736	-0.023757	-0.039408	0.998941	0.842337	0.537372	0.041232	-0.538427	0.842424	0.020428	0	0	0
57992	0	0	0	0	0	9.595471	0.902330	-0.489524	0.157894	-0.060754	-0.052253	-0.788086	0.353271	-0.321045	0.619245	-0.322893	-0.621185	-0.355534	64.725701	-87.350264	-122.076801	-0.024551	-0.039173	0.998931	0.841479	0.538670	0.041805	-0.539732	0.841605	0.019738	0	0	0
57993	0	0	0	0	0	9.472393	0.928588	-0.538051	0.127215	-0.054156	-0.021798	-0.775635	0.353027	-0.309326	0.619232	-0.322529	-0.621622	-0.355125	65.553256	-87.351525	-122.832859	-0.025054	-0.038827	0.998932	0.840791	0.539723	0.042065	-0.540780	0.840947	0.019123	0	0	0
57994	0	0	0	0	0	9.418004	0.989393	-0.537553	0.085509	-0.048342	-0.006888	-0.778076	0.344238	-0.311523	0.619196	-0.322330	-0.621941	-0.354809	66.214336	-87.358648	-123.446237	-0.025399	-0.038453	0.998938	0.840332	0.540429	0.042170	-0.541476	0.840511	0.018586	0	0	0
57995	0	0	0	0	0	9.305370	1.064907	-0.426829	0.031105	-0.033995	-0.000619	-0.785889	0.357422	-0.302002	0.619128	-0.322293	-0.622110	-0.354665	66.656479	-87.365600	-123.871576	-0.025617	-0.038162	0.998943	0.840169	0.540681	0.042201	-0.541720	0.840362	0.018212	0	0	0
57996	0	0	0	0	0	9.178344	1.043611	-0.368753	-0.026815	-0.026448	0.001400	-0.785889	0.352539	-0.313477	0.618994	-0.322427	-0.622149	-0.354708	66.967203	-87.371690	-124.198646	-0.025774	-0.037928	0.998948	0.840320	0.540446	0.042201	-0.541478	0.840523	0.017942	0	0	0
57997	0	0	0	0	0	9.081768	0.987258	-0.376476	-0.081739	-0.036784	0.002140	-0.784180	0.352539	-0.309814	0.618736	-0.322758	-0.622121	-0.354905	67.370323	-87.380565	-124.650482	-0.025985	-0.037596	0.998955	0.840775	0.539738	0.042183	-0.540760	0.840993	0.017585	0	0	0
57998	0	0	0	0	0	8.917138	0.927876	-0.459311	-0.115198	-0.056464	-0.004122	-0.777100	0.347900	-0.312256	0.618356	-0.323203	-0.622105	-0.355192	68.009215	-87.390026	-125.356751	-0.026351	-0.037138	0.998963	0.841402	0.538758	0.042224	-0.539767	0.841642	0.017052	0	0	0
57999	0	0	0	0	0	8.745072	0.903308	-0.547069	-0.150137	-0.087980	-0.016740	-0.781006	0.353027	-0.304443	0.617799	-0.323771	-0.622145	-0.355573	69.065110	-87.398950	-126.500311	-0.026994	-0.036480	0.998970	0.842211	0.537480	0.042386	-0.538472	0.842487	0.016215	0	0	0
58000	0	0	0	0	0	8.740185	0.917975	-0.607742	-0.170693	-0.119429	-0.020135	-0.780518	0.354492	-0.303711	0.617104	-0.324449	-0.622250	-0.355979	70.501680	-87.411086	-128.036895	-0.027832	-0.035576	0.998979	0.843129	0.536023	0.042579	-0.536991	0.843453	0.015077	0	0	0
58001	0	0	0	0	0	8.714898	0.912300	-0.651737	-0.186835	-0.154963	-0.009296	-0.788574	0.348633	-0.302002	0.616287	-0.325277	-0.622417	-0.356346	72.337410	-87.433759	-129.982814	-0.028770	-0.034308	0.998997	0.844138	0.534425	0.042664	-0.535353	0.844519	0.013585	0	0	0
58002	0	0	0	0	0	8.863605	0.967770	-0.822880	-0.215036	-0.211269	0.011297	-0.789307	0.353760	-0.304199	0.615289	-0.326351	-0.622672	-0.356643	74.813122	-87.473430	-132.584939	-0.029830	-0.032457	0.999028	0.845296	0.532602	0.042543	-0.533465	0.845743	0.011548	0	0	0
58003	0	0	0	0	0	8.939036	0.940218	-0.943753	-0.256276	-0.244714	0.038709	-0.787109	0.357178	-0.300537	0.614163	-0.327697	-0.622913	-0.356928	77.702674	-87.527408	-135.624829	-0.030836	-0.030171	0.999069	0.846677	0.530435	0.042152	-0.531213	0.847189	0.009188	0	0	0
58004	0	0	0	0	0	9.011558	0.965811	-1.043657	-0.285882	-0.285840	0.060930	-0.791748	0.360107	-0.286377	0.612901	-0.329274	-0.623186	-0.357169	81.194911	-87.590843	-139.284819	-0.031861	-0.027420	0.999116	0.848217	0.528018	0.041540	-0.528690	0.848790	0.006434	0	0	0
58005	0	0	0	0	0	9.108350	1.031510	-1.139327	-0.318441	-0.323695	0.080623	-0.783691	0.354980	-0.284912	0.611495	-0.331085	-0.623482	-0.357389	85.360498	-87.657538	-143.638037	-0.032914	-0.024233	0.999164	0.849934	0.525311	0.040738	-0.525860	0.850565	0.003306	0	0	0
58006	0	0	0	0	0	9.142216	1.027663	-1.282404	-0.358596	-0.339229	0.083123	-0.792236	0.362305	-0.286621	0.609979	-0.333046	-0.623746	-0.357697	89.937900	-87.712071	-148.425440	-0.034011	-0.020903	0.999203	0.851847	0.522267	0.039921	-0.522685	0.852526	0.000043	0	0	0
58007	0	0	0	0	0	9.202896	1.039737	-1.290408	-0.392629	-0.360976	0.084143	-0.786133	0.355713	-0.289795	0.608332	-0.335155	-0.624010	-0.358071	95.018140	-87.750091	-153.736007	-0.035205	-0.017372	0.999229	0.853932	0.518913	0.039108	-0.519192	0.854651	-0.003434	0	0	0
58008	0	0	0	0	0	9.343813	0.979366	-1.326554	-0.425463	-0.372354	0.075691	-0.790771	0.365967	-0.281006	0.606580	-0.337351	-0.624258	-0.358549	100.343922	-87.763324	-159.310466	-0.036511	-0.013789	0.999238	0.856165	0.515274	0.038393	-0.515411	0.856915	-0.007008	0	0	0
58009	0	0	0	0	0	9.339524	0.910631	-1.305807	-0.450014	-0.354296	0.067686	-0.793457	0.366455	-0.271240	0.604822	-0.339559	-0.624418	-0.359153	105.389671	-87.754460	-164.618309	-0.037779	-0.010393	0.999232	0.858502	0.511417	0.037777	-0.511417	0.859270	-0.010398	0	0	0
58010	0	0	0	0	0	9.238560	0.889222	-1.363760	-0.465898	-0.345398	0.056057	-0.792725	0.359375	-0.269531	0.603040	-0.341763	-0.624535	-0.359856	110.161373	-87.723215	-169.661511	-0.039082	-0.007130	0.999211	0.860901	0.507403	0.037293	-0.507269	0.861679	-0.013692	0	0	0
58011	0	0	0	0	0	9.150031	0.821673	-1.366837	-0.481622	-0.346780	0.045137	-0.792480	0.372803	-0.260742	0.601198	-0.343980	-0.624644	-0.360637	114.718554	-87.669432	-174.499325	-0.040478	-0.003898	0.999173	0.863358	0.503238	0.036939	-0.502966	0.864139	-0.017004	0	0	0
58012	0	0	0	0	0	9.179300	0.743628	-1.386736	-0.491776	-0.352318	0.039393	-0.792236	0.363525	-0.255859	0.599309	-0.346216	-0.624752	-0.361453	119.050604	-87.596753	-179.117714	-0.041927	-0.000646	0.999120	0.865842	0.498973	0.036657	-0.498558	0.866617	-0.020362	0	0	0
58013	0	0	0	0	0	9.214460	0.769916	-1.505287	-0.497747	-0.360543	0.039803	-0.799316	0.370117	-0.254150	0.597374	-0.348486	-0.624870	-0.362271	123.195069	-87.507552	176.447350	-0.043404	0.002695	0.999054	0.868339	0.494635	0.036391	-0.494069	0.869097	-0.023809	0	0	0
58014	0	0	0	0	0	9.254636	0.816639	-1.597824	-0.485752	-0.389008	0.042679	-0.800537	0.372314	-0.249268	0.595375	-0.350774	-0.625081	-0.362987	127.329507	-87.397243	172.029599	-0.044972	0.006297	0.998968	0.870752	0.490396	0.036109	-0.489662	0.871477	-0.027537	0	0	0
58015	0	0	0	0	0	9.417977	0.836834	-1.659486	-0.472398	-0.427348	0.051919	-0.799561	0.357666	-0.243896	0.593286	-0.353118	-0.625411	-0.363565	131.527395	-87.262554	167.555304	-0.046637	0.010292	0.998859	0.873085	0.486256	0.035754	-0.485333	0.873756	-0.031663	0	0	0
58016	0	0	0	0	0	9.619898	0.847628	-1.663628	-0.463185	-0.439527	0.062100	-0.802490	0.375244	-0.231689	0.591193	-0.355484	-0.625767	-0.364057	135.479574	-87.113370	163.332024	-0.048244	0.014444	0.998731	0.875357	0.482186	0.035311	-0.481064	0.875950	-0.035907	0	0	0
58017	0	0	0	0	0	9.776061	0.900766	-1.604433	-0.459395	-0.435706	0.078207	-0.802246	0.380615	-0.233154	0.589135	-0.357878	-0.626088	-0.364495	139.120465	-86.957800	159.421961	-0.049685	0.018654	0.998591	0.877600	0.478134	0.034734	-0.476812	0.878089	-0.040127	0	0	0
58018	0	0	0	0	0	9.835609	0.878379	-1.601180	-0.473847	-0.440056	0.093791	-0.800781	0.375488	-0.232178	0.587066	-0.360368	-0.626356	-0.364918	142.527086	-86.794690	155.737740	-0.050975	0.022976	0.998436	0.879901	0.473939	0.034017	-0.472416	0.880258	-0.044376	0	0	0
58019	0	0	0	0	0	9.868900	0.849490	-1.631275	-0.472784	-0.438047	0.096964	-0.806885	0.374512	-0.221680	0.585002	-0.362858	-0.626611	-0.365329	145.595962	-86.621995	152.391789	-0.052214	0.027306	0.998263	0.882178	0.469738	0.033293	-0.468012	0.882384	-0.048616	0	0	0
58020	0	0	0	0	0	9.855729	0.828573	-1.698356	-0.471974	-0.432805	0.103729	-0.798096	0.373047	-0.217041	0.582964	-0.365353	-0.626831	-0.365723	148.372415	-86.444893	149.338696	-0.053340	0.031622	0.998076	0.884435	0.465528	0.032517	-0.463604	0.884468	-0.052799	0	0	0
58021	0	0	0	0	0	9.791553	0.797066	-1.702272	-0.485308	-0.415810	0.100554	-0.802734	0.379150	-0.213379	0.580940	-0.367839	-0.626981	-0.366195	150.758778	-86.266337	146.668432	-0.054407	0.035782	0.997878	0.886730	0.461191	0.031810	-0.459074	0.886579	-0.056821	0	0	0
58022	0	0	0	0	0	9.808038	0.727889	-1.636742	-0.482443	-0.407299	0.099829	-0.808350	0.378174	-0.201660	0.578944	-0.370298	-0.627100	-0.366672	152.877882	-86.086158	144.266929	-0.055407	0.039862	0.997668	0.888993	0.456862	0.031117	-0.454556	0.888644	-0.060751	0	0	0
58023	0	0	0	0	0	9.887076	0.812363	-1.646195	-0.469895	-0.410290	0.107311	-0.797119	0.379150	-0.195557	0.576964	-0.372745	-0.627237	-0.367080	154.863125	-85.899831	142.006231	-0.056348	0.044014	0.997441	0.891183	0.452627	0.030372	-0.450132	0.890613	-0.064729	0	0	0
58024	0	0	0	0	0	9.921366	0.833738	-1.646450	-0.460681	-0.415582	0.113081	-0.807861	0.389404	-0.191406	0.574995	-0.375190	-0.627383	-0.367428	156.726704	-85.707770	139.872347	-0.057226	0.048236	0.997195	0.893314	0.448458	0.029572	-0.445774	0.892501	-0.068754	0	0	0
58025	0	0	0	0	0	9.959468	0.839566	-1.723700	-0.443693	-0.430447	0.123472	-0.812744	0.391113	-0.192627	0.573017	-0.377646	-0.627581	-0.367664	158.535490	-85.504272	137.801975	-0.058070	0.052651	0.996923	0.895362	0.444414	0.028683	-0.441536	0.894273	-0.072948	0	0	0
58026	0	0	0	0	0	10.070705	0.787184	-1.764682	-0.436374	-0.430841	0.131627	-0.813477	0.385498	-0.186768	0.571069	-0.380100	-0.627768	-0.367847	160.234635	-85.298373	135.845874	-0.058809	0.057097	0.996635	0.897361	0.440426	0.027719	-0.437362	0.895971	-0.077138	0	0	0
58027	0	0	0	0	0	10.077242	0.713557	-1.807470	-0.416989	-0.425657	0.136842	-0.810059	0.394287	-0.176270	0.569173	-0.382499	-0.627967	-0.367960	161.807172	-85.091061	134.027541	-0.059473	0.061527	0.996332	0.899259	0.436600	0.026717	-0.433355	0.897549	-0.081295	0	0	0
58028	0	0	0	0	0	10.067609	0.632502	-1.779152	-0.397682	-0.416143	0.144594	-0.810059	0.399902	-0.169922	0.567358	-0.384849	-0.628147	-0.368005	163.287121	-84.887094	132.312549	-0.059992	0.065902	0.996021	0.901065	0.432927	0.025628	-0.429515	0.899017	-0.085354	0	0	0
58029	0	0	0	0	0	10.067642	0.590228	-1.819827	-0.384143	-0.404530	0.162142	-0.811768	0.392334	-0.168457	0.565624	-0.387197	-0.628282	-0.367980	164.735880	-84.687587	130.635201	-0.060296	0.070261	0.995705	0.902815	0.429337	0.024375	-0.425781	0.900407	-0.089320	0	0	0
58030	0	0	0	0	0	10.047902	0.560562	-1.862635	-0.364240	-0.393018	0.169986	-0.807861	0.405518	-0.163574	0.563983	-0.389483	-0.628399	-0.367887	166.111749	-84.492848	129.042911	-0.060452	0.074537	0.995384	0.904466	0.425924	0.023036	-0.422241	0.901684	-0.093164	0	0	0
58031	0	0	0	0	0	9.939182	0.581783	-1.867102	-0.354289	-0.365471	0.172501	-0.809814	0.399170	-0.161133	0.562442	-0.391698	-0.628450	-0.367808	167.368652	-84.309591	127.574923	-0.060463	0.078585	0.995072	0.906066	0.422580	0.021683	-0.418793	0.902912	-0.096753	0	0	0
58032	0	0	0	0	0	9.847463	0.573925	-1.917337	-0.339207	-0.329315	0.175014	-0.803223	0.405029	-0.154785	0.561051	-0.393807	-0.628414	-0.367741	168.524791	-84.144736	126.216910	-0.060275	0.082305	0.994783	0.907591	0.419366	0.020295	-0.415507	0.904079	-0.099977	0	0	0
58033	0	0	0	0	0	9.859756	0.696339	-1.802558	-0.332299	-0.291332	0.186056	-0.812012	0.398682	-0.147949	0.559805	-0.395861	-0.628263	-0.367695	169.635845	-83.999055	124.907492	-0.059826	0.085735	0.994520	0.909083	0.416190	0.018808	-0.412297	0.905227	-0.102839	0	0	0
58034	0	0	0	0	0	9.859259	0.833543	-1.709072	-0.328591	-0.244326	0.196466	-0.808350	0.407715	-0.149902	0.558735	-0.397846	-0.627959	-0.367698	170.707926	-83.879104	123.639417	-0.059067	0.088771	0.994299	0.910553	0.413034	0.017217	-0.409151	0.906379	-0.105228	0	0	0
58035	0	0	0	0	0	9.715291	0.905173	-1.797301	-0.319527	-0.201961	0.201230	-0.806396	0.407471	-0.149658	0.557815	-0.399743	-0.627545	-0.367743	171.728598	-83.780266	122.427675	-0.058097	0.091448	0.994114	0.911979	0.409942	0.015586	-0.406103	0.907516	-0.107215	0	0	0
58036	0	0	0	0	0	9.514287	0.983414	-1.866740	-0.312422	-0.171715	0.208191	-0.806152	0.411377	-0.136475	0.557022	-0.401582	-0.627039	-0.367804	172.738637	-83.697707	121.230856	-0.056917	0.093866	0.993957	0.913366	0.406903	0.013875	-0.403142	0.908636	-0.108894	0	0	0
58037	0	0	0	0	0	9.337970	0.926464	-1.942037	-0.315058	-0.106633	0.217524	-0.808838	0.411865	-0.136475	0.556436	-0.403340	-0.626329	-0.367978	173.727250	-83.649764	120.053494	-0.055392	0.095736	0.993864	0.914760	0.403818	0.012085	-0.400183	0.909816	-0.109944	0	0	0
58038	0	0	0	0	0	9.120708	0.993561	-1.903312	-0.306203	-0.023901	0.230589	-0.814209	0.409912	-0.134766	0.556155	-0.404958	-0.625373	-0.368252	174.735525	-83.648262	118.861826	-0.053402	0.096890	0.993861	0.916109	0.400800	0.010151	-0.397356	0.911028	-0.110165	0	0	0
58039	0	0	0	0	0	8.959748	0.982985	-2.059094	-0.324688	-0.013270	0.230378	-0.804199	0.417969	-0.139160	0.555858	-0.406607	-0.624357	-0.368607	175.721430	-83.649534	117.681432	-0.051384	0.097950	0.993864	0.917522	0.397599	0.008252	-0.394351	0.912316	-0.110301	0	0	0
58040	0	0	0	0	0	9.229768	0.961461	-2.056347	-0.311298	-0.042299	0.214077	-0.809570	0.415771	-0.131104	0.555475	-0.408218	-0.623471	-0.368902	176.645719	-83.632393	116.571316	-0.049610	0.099193	0.993831	0.918857	0.394538	0.006489	-0.391460	0.913510	-0.110717	0	0	0
58041	0	0	0	0	0	10.232884	0.701310	-1.412728	-0.287022	-0.014786	0.154796	-0.806885	0.418457	-0.129150	0.555110	-0.409527	-0.622677	-0.369343	177.264331	-83.626759	115.782384	-0.048282	0.099955	0.993820	0.920058	0.391747	0.005298	-0.388797	0.914627	-0.110878	0	0	0
58042	0	0	0	0	0	11.905442	0.040124	-0.380441	-0.212233	0.129907	0.037552	-0.811768	0.424561	-0.130371	0.555137	-0.409993	-0.621854	-0.370170	177.294219	-83.701026	115.629322	-0.047458	0.098922	0.993963	0.920902	0.389759	0.005179	-0.386894	0.915588	-0.109594	0	0	0
58043	0	0	0	0	0	13.325013	-0.996686	0.612120	-0.023256	0.546262	-0.092960	-0.807617	0.419189	-0.134277	0.556593	-0.408760	-0.620494	-0.371627	176.618070	-84.008751	116.294667	-0.046238	0.093576	0.994538	0.920956	0.389618	0.006157	-0.386913	0.916210	-0.104195	0	0	0
58044	0	0	0	0	0	13.334833	-2.083821	1.426471	0.225025	0.997871	-0.170029	-0.802979	0.416504	-0.140137	0.559814	-0.405747	-0.618481	-0.373441	175.364246	-84.571195	117.683658	-0.043954	0.083779	0.995515	0.920009	0.391822	0.007646	-0.389424	0.916219	-0.094299	0	0	0
58045	0	0	0	0	0	12.757350	-2.900736	2.053013	0.364447	1.263808	-0.155555	-0.804199	0.413574	-0.150879	0.564140	-0.401882	-0.615936	-0.375313	173.786978	-85.281771	119.475508	-0.040474	0.071609	0.996611	0.918525	0.395263	0.008902	-0.393286	0.915772	-0.081772	0	0	0
58046	0	0	0	0	0	11.609718	-3.058702	1.865094	0.474887	1.298045	-0.024633	-0.800781	0.405518	-0.171387	0.569021	-0.398021	-0.613208	-0.376524	172.712006	-86.017556	120.825799	-0.035589	0.059639	0.997585	0.916640	0.399617	0.008810	-0.398127	0.914740	-0.068890	0	0	0
58047	0	0	0	0	0	10.422922	-2.418748	1.686918	0.509522	1.186822	0.114716	-0.797363	0.412109	-0.178711	0.573861	-0.394682	-0.610560	-0.376996	172.645194	-86.698566	121.184444	-0.029819	0.049268	0.998340	0.914641	0.404200	0.007372	-0.403166	0.913343	-0.057115	0	0	0
58048	0	0	0	0	0	9.557504	-1.122248	1.465124	0.490630	0.944029	0.184708	-0.797363	0.404785	-0.184082	0.578039	-0.392054	-0.608410	-0.376831	173.675986	-87.247043	120.433086	-0.024329	0.041412	0.998846	0.912705	0.408585	0.005291	-0.407894	0.911780	-0.047737	0	0	0
58049	0	0	0	0	0	10.017776	0.068278	0.333482	0.289065	0.630995	0.110921	-0.792725	0.417480	-0.197510	0.580715	-0.390367	-0.606920	-0.376872	174.383704	-87.611463	119.889509	-0.020768	0.036132	0.999131	0.911553	0.411162	0.004079	-0.410657	0.910846	-0.041476	0	0	0
58050	0	0	0	0	0	10.817835	0.388079	-0.898264	0.164619	0.659644	0.022234	-0.792236	0.415283	-0.196045	0.583065	-0.388712	-0.605275	-0.377599	173.765633	-87.987554	120.601783	-0.017877	0.030226	0.999383	0.910884	0.412644	0.003814	-0.412274	0.910391	-0.034909	0	0	0
58051	0	0	0	0	0	11.170298	0.734325	-0.637814	0.117810	0.703206	-0.053910	-0.790039	0.409180	-0.206543	0.585301	-0.386880	-0.603556	-0.378770	171.170762	-88.381371	123.264435	-0.015493	0.023618	0.999601	0.910396	0.413715	0.004336	-0.413448	0.910100	-0.027912	0	0	0
58052	0	0	0	0	0	11.439808	1.088443	-0.296964	0.159896	0.613319	-0.114226	-0.792480	0.412842	-0.209473	0.587231	-0.384904	-0.602289	-0.379812	165.949420	-88.711918	128.578439	-0.014018	0.017573	0.999747	0.909721	0.415184	0.005458	-0.414983	0.909568	-0.021807	0	0	0
58053	0	0	0	0	0	11.679923	1.467884	-0.068609	0.222778	0.587098	-0.132322	-0.797119	0.407715	-0.218018	0.589158	-0.382738	-0.601249	-0.380663	157.064229	-89.005921	137.592085	-0.012810	0.011700	0.999849	0.908783	0.417214	0.006761	-0.417072	0.908733	-0.015978	0	0	0
58054	0	0	0	0	0	11.345777	1.377048	-0.111456	0.267155	0.655783	-0.109858	-0.786865	0.407471	-0.225342	0.591416	-0.380371	-0.600039	-0.381442	140.326051	-89.295916	154.484469	-0.011090	0.005293	0.999924	0.907657	0.419640	0.007845	-0.419566	0.907675	-0.009458	0	0	0
58055	0	0	0	0	0	10.765986	1.046909	0.156565	0.287848	0.677199	-0.065147	-0.791504	0.401367	-0.220215	0.593852	-0.378033	-0.598715	-0.382063	107.840295	-89.488261	-172.863977	-0.008862	-0.001110	0.999960	0.906445	0.422239	0.008502	-0.422232	0.906484	-0.002736	0	0	0
58056	0	0	0	0	0	10.299037	0.702637	0.685827	0.289255	0.657772	-0.008669	-0.792725	0.403076	-0.230225	0.596336	-0.375890	-0.597334	-0.382469	66.195003	-89.460825	-131.051985	-0.006180	-0.007096	0.999956	0.905223	0.424849	0.008610	-0.424891	0.905237	0.003798	0	0	0
58057	0	0	0	0	0	9.703579	0.376804	1.016924	0.257564	0.642657	0.041264	-0.782471	0.407471	-0.232910	0.598798	-0.374018	-0.595838	-0.382790	38.998059	-89.249874	-103.707018	-0.003102	-0.012719	0.999914	0.904137	0.427164	0.008239	-0.427232	0.904085	0.010175	0	0	0
58058	0	0	0	0	0	9.130699	0.167682	1.101386	0.208362	0.600975	0.067521	-0.780273	0.407227	-0.241699	0.601093	-0.372445	-0.594315	-0.383095	25.232546	-88.977093	-89.821153	0.000056	-0.017852	0.999841	0.903250	0.429047	0.007610	-0.429114	0.903106	0.016149	0	0	0
58059	0	0	0	0	0	8.708488	-0.201617	0.980073	0.141161	0.578221	0.064019	-0.785156	0.404785	-0.260010	0.603178	-0.371107	-0.592734	-0.383566	17.774447	-88.682634	-82.281875	0.003088	-0.022782	0.999736	0.902652	0.430314	0.007018	-0.430360	0.902392	0.021893	0	0	0
58060	0	0	0	0	0	8.564343	-0.549153	1.160369	0.100192	0.623576	0.042217	-0.789795	0.404541	-0.250488	0.605279	-0.369733	-0.590971	-0.384303	13.295404	-88.345331	-77.744560	0.006129	-0.028217	0.999583	0.902223	0.431218	0.006641	-0.431226	0.901806	0.028101	0	0	0
58061	0	0	0	0	0	8.945532	-1.156596	2.103115	0.117807	0.689320	-0.013389	-0.784424	0.399902	-0.266846	0.607489	-0.368013	-0.589141	-0.385274	11.061056	-87.958727	-75.442413	0.008953	-0.034476	0.999365	0.901722	0.432261	0.006834	-0.432223	0.901089	0.034958	0	0	0
58062	0	0	0	0	0	9.636834	-1.831622	2.828001	0.181838	0.723074	-0.091090	-0.782715	0.406982	-0.269531	0.609763	-0.365798	-0.587466	-0.386348	10.527399	-87.542809	-74.804720	0.011237	-0.041374	0.999081	0.900949	0.433854	0.007833	-0.433779	0.900033	0.042151	0	0	0
58063	0	0	0	0	0	9.270154	-1.869252	1.828338	0.237376	0.706340	-0.107030	-0.778809	0.401855	-0.276855	0.612046	-0.363396	-0.585971	-0.387273	10.410092	-87.134871	-74.551981	0.013314	-0.048179	0.998750	0.899937	0.435926	0.009032	-0.435817	0.898692	0.049162	0	0	0
58064	0	0	0	0	0	8.134833	-1.322542	0.215502	0.236196	0.707468	-0.029123	-0.778320	0.395508	-0.284424	0.614476	-0.361216	-0.584320	-0.387959	9.563080	-86.733597	-73.568875	0.016117	-0.054652	0.998375	0.898915	0.438021	0.009466	-0.437827	0.897302	0.056187	0	0	0
58065	0	0	0	0	0	7.698426	-0.525424	0.361130	0.232651	0.695360	0.062038	-0.776123	0.398926	-0.286377	0.617030	-0.359334	-0.582527	-0.388348	8.125119	-86.346563	-71.995568	0.019696	-0.060601	0.997968	0.897889	0.440129	0.009006	-0.439780	0.895887	0.063082	0	0	0
58066	0	0	0	0	0	8.121734	0.127147	1.502696	0.226277	0.638513	0.079100	-0.777344	0.407959	-0.292236	0.619436	-0.357626	-0.580858	-0.388596	6.888107	-85.990649	-70.626493	0.023194	-0.065960	0.997553	0.896880	0.442194	0.008385	-0.441664	0.894491	0.069415	0	0	0
58067	0	0	0	0	0	8.749921	0.499773	1.728063	0.200827	0.528723	0.038925	-0.763184	0.396729	-0.291260	0.621389	-0.356093	-0.579547	-0.388843	6.239834	-85.693528	-69.862192	0.025852	-0.070501	0.997177	0.895991	0.443998	0.008162	-0.443319	0.893250	0.074646	0	0	0
58068	0	0	0	0	0	9.308109	0.485026	1.099519	0.227858	0.450209	-0.008513	-0.769043	0.401855	-0.295654	0.623070	-0.354485	-0.578612	-0.389016	6.090843	-85.437471	-69.582450	0.027751	-0.074549	0.996831	0.894986	0.446014	0.008440	-0.445230	0.891916	0.079098	0	0	0
58069	0	0	0	0	0	9.424458	0.405526	1.157399	0.297583	0.460604	-0.018501	-0.775879	0.394775	-0.305176	0.624876	-0.352612	-0.577794	-0.389036	6.065110	-85.175213	-69.386696	0.029611	-0.078724	0.996457	0.893672	0.448632	0.008887	-0.447742	0.890243	0.083638	0	0	0
58070	0	0	0	0	0	9.217552	0.322099	1.931417	0.332481	0.476759	-0.009924	-0.764648	0.392578	-0.311035	0.626807	-0.350617	-0.576973	-0.388951	6.003349	-84.903894	-69.134131	0.031638	-0.083001	0.996047	0.892188	0.451569	0.009290	-0.450555	0.888367	0.088339	0	0	0
58071	0	0	0	0	0	8.709906	0.170651	2.310619	0.348527	0.462568	0.028030	-0.763916	0.390137	-0.314209	0.628790	-0.348708	-0.576158	-0.388674	5.746079	-84.643149	-68.676180	0.033949	-0.086967	0.995633	0.890611	0.454670	0.009347	-0.453497	0.886404	0.092889	0	0	0
58072	0	0	0	0	0	8.187521	0.064275	2.124072	0.303746	0.427410	0.062712	-0.761963	0.395752	-0.319336	0.630660	-0.347103	-0.575300	-0.388352	5.312987	-84.403799	-68.066914	0.036425	-0.090459	0.995234	0.889213	0.457404	0.009030	-0.456040	0.884646	0.097098	0	0	0
58073	0	0	0	0	0	7.750119	0.001693	1.811072	0.236446	0.422762	0.093470	-0.765381	0.382813	-0.324707	0.632452	-0.345809	-0.574270	-0.388117	4.716209	-84.168425	-67.331979	0.039157	-0.093756	0.994825	0.888106	0.459563	0.008354	-0.457968	0.883183	0.101261	0	0	0
58074	0	0	0	0	0	7.521302	0.113773	1.647315	0.168729	0.398948	0.108248	-0.761719	0.389404	-0.328369	0.634087	-0.344812	-0.573154	-0.387986	4.061596	-83.946219	-66.577276	0.041922	-0.096772	0.994423	0.887294	0.461143	0.007470	-0.459295	0.882033	0.105197	0	0	0
58075	0	0	0	0	0	7.438162	0.090728	1.427178	0.083394	0.357683	0.096833	-0.760498	0.390381	-0.323242	0.635429	-0.344134	-0.572023	-0.388063	3.482362	-83.746625	-65.947451	0.044395	-0.099468	0.994050	0.886877	0.461959	0.006616	-0.459868	0.881306	0.108724	0	0	0
58076	0	0	0	0	0	7.608342	-0.083057	1.090860	0.051707	0.292288	0.063622	-0.760010	0.388428	-0.329834	0.636465	-0.343585	-0.571091	-0.388221	3.107474	-83.582514	-65.541094	0.046278	-0.101742	0.993734	0.886616	0.462467	0.006059	-0.460185	0.880780	0.111608	0	0	0
58077	0	0	0	0	0	7.878581	-0.129933	0.909935	0.057328	0.258543	0.023514	-0.761230	0.394043	-0.340332	0.637333	-0.342972	-0.570346	-0.388435	2.963660	-83.436576	-65.364348	0.047647	-0.103899	0.993446	0.886350	0.462977	0.005910	-0.460557	0.880260	0.114150	0	0	0
58078	0	0	0	0	0	8.358739	-0.292592	0.948860	0.074237	0.228633	0.014978	-0.767090	0.394287	-0.339111	0.638130	-0.342335	-0.569743	-0.388573	2.884366	-83.307180	-65.242343	0.048807	-0.105834	0.993185	0.886007	0.463634	0.005865	-0.461096	0.879683	0.116399	0	0	0
58079	0	0	0	0	0	8.529568	-0.279687	1.046577	0.107305	0.214550	0.029803	-0.766113	0.397705	-0.342773	0.638969	-0.341664	-0.569224	-0.388547	2.760698	-83.186505	-65.056804	0.050032	-0.107572	0.992938	0.885505	0.464594	0.005714	-0.461927	0.878966	0.118500	0	0	0
58080	0	0	0	0	0	8.678516	-0.360406	1.101552	0.118878	0.188970	0.054176	-0.760986	0.383057	-0.339600	0.639804	-0.341073	-0.568765	-0.388364	2.538783	-83.080782	-64.765325	0.051360	-0.108973	0.992717	0.884934	0.465685	0.005336	-0.462875	0.878215	0.120352	0	0	0
58081	0	0	0	0	0	8.544008	-0.297754	1.168946	0.157820	0.184020	0.063077	-0.757813	0.394043	-0.340088	0.640705	-0.340393	-0.568383	-0.388035	2.306986	-82.978246	-64.441624	0.052741	-0.110284	0.992500	0.884179	0.467123	0.004921	-0.464162	0.877288	0.122147	0	0	0
58082	0	0	0	0	0	8.191749	-0.206898	1.028615	0.182299	0.160735	0.056858	-0.755615	0.394775	-0.345947	0.641571	-0.339660	-0.568131	-0.387614	2.128792	-82.888489	-64.157459	0.053965	-0.111420	0.992307	0.883307	0.468773	0.004599	-0.465679	0.876264	0.123715	0	0	0
58083	0	0	0	0	0	7.946860	-0.306659	0.897630	0.209010	0.140278	0.037517	-0.752930	0.391602	-0.339844	0.642383	-0.338829	-0.568030	-0.387146	2.063024	-82.810240	-63.971522	0.054921	-0.112462	0.992137	0.882321	0.470627	0.004505	-0.467433	0.875136	0.125075	0	0	0
58084	0	0	0	0	0	7.921869	-0.415451	0.919450	0.264869	0.118916	0.016222	-0.744141	0.389648	-0.342285	0.643189	-0.337795	-0.568140	-0.386549	2.130308	-82.743503	-63.887015	0.055595	-0.113419	0.991991	0.881077	0.472949	0.004695	-0.469694	0.873759	0.126224	0	0	0
58085	0	0	0	0	0	8.036014	-0.375422	0.957282	0.306187	0.097152	-0.001143	-0.755615	0.391602	-0.348633	0.643965	-0.336624	-0.568427	-0.385855	2.302940	-82.689146	-63.885319	0.056013	-0.114262	0.991870	0.879646	0.475601	0.005113	-0.472319	0.872208	0.127150	0	0	0
58086	0	0	0	0	0	8.195831	-0.292284	0.963153	0.348097	0.091510	-0.006402	-0.760010	0.395264	-0.355957	0.644787	-0.335309	-0.568821	-0.385046	2.522090	-82.637611	-63.905831	0.056364	-0.115083	0.991755	0.878007	0.478615	0.005639	-0.475318	0.870450	0.128020	0	0	0
58087	0	0	0	0	0	8.334959	-0.204282	1.174183	0.348422	0.080061	0.005603	-0.755859	0.383789	-0.352295	0.645595	-0.334051	-0.569231	-0.384179	2.689663	-82.593209	-63.874559	0.056765	-0.115742	0.991656	0.876352	0.481633	0.006049	-0.478314	0.868696	0.128771	0	0	0
58088	0	0	0	0	0	8.369878	-0.062459	1.418311	0.317557	0.072923	0.027464	-0.747803	0.390137	-0.356689	0.646374	-0.332965	-0.569566	-0.383314	2.744146	-82.553218	-63.746661	0.057330	-0.116236	0.991566	0.874820	0.484409	0.006205	-0.481045	0.867085	0.129457	0	0	0
58089	0	0	0	0	0	8.408179	0.178911	1.531216	0.287338	0.070499	0.032445	-0.759033	0.377686	-0.364258	0.647101	-0.331998	-0.569842	-0.382516	2.760978	-82.515034	-63.598610	0.057924	-0.116679	0.991479	0.873425	0.486919	0.006275	-0.483502	0.865619	0.130115	0	0	0
58090	0	0	0	0	0	8.191906	0.453301	1.388356	0.249093	0.036396	0.002852	-0.756836	0.385498	-0.356445	0.647612	-0.331132	-0.570203	-0.381863	2.891719	-82.495283	-63.587172	0.058099	-0.116974	0.991434	0.872223	0.489065	0.006589	-0.485646	0.864368	0.130442	0	0	0
58091	0	0	0	0	0	8.139064	0.414721	1.066378	0.225889	-0.003687	-0.040176	-0.754639	0.382813	-0.355713	0.647885	-0.330296	-0.570720	-0.381350	3.205275	-82.497421	-63.773796	0.057701	-0.117129	0.991439	0.871156	0.490953	0.007301	-0.487605	0.863276	0.130367	0	0	0
58092	0	0	0	0	0	8.341506	0.190784	1.018351	0.238384	-0.028801	-0.077619	-0.762207	0.380859	-0.358643	0.648037	-0.329359	-0.571403	-0.380880	3.695142	-82.512200	-64.130768	0.056859	-0.117256	0.991473	0.870042	0.492907	0.008399	-0.489688	0.862145	0.130044	0	0	0
58093	0	0	0	0	0	8.526198	-0.016862	0.960808	0.277324	-0.057347	-0.088648	-0.757568	0.378174	-0.359375	0.648147	-0.328320	-0.572269	-0.380289	4.266638	-82.542695	-64.548013	0.055777	-0.117191	0.991542	0.868741	0.495173	0.009656	-0.492116	0.860854	0.129428	0	0	0
58094	0	0	0	0	0	8.840444	-0.237877	0.881058	0.313737	-0.080092	-0.089271	-0.760742	0.373535	-0.353027	0.648251	-0.327201	-0.573278	-0.379555	4.873603	-82.585323	-64.979487	0.054581	-0.116939	0.991638	0.867248	0.497755	0.010964	-0.494875	0.859398	0.128583	0	0	0
58095	0	0	0	0	0	9.053496	-0.282120	1.107205	0.353886	-0.078170	-0.063955	-0.759277	0.376221	-0.362061	0.648470	-0.326023	-0.574314	-0.378628	5.397690	-82.627872	-65.304627	0.053608	-0.116578	0.991734	0.865537	0.500699	0.012070	-0.497968	0.857735	0.127744	0	0	0
58096	0	0	0	0	0	9.090791	-0.279806	1.441790	0.347209	-0.058495	-0.034812	-0.758301	0.381836	-0.359619	0.648790	-0.324909	-0.575224	-0.377654	5.784466	-82.660223	-65.494670	0.052989	-0.116246	0.991806	0.863828	0.503622	0.012876	-0.500992	0.856067	0.127103	0	0	0
58097	0	0	0	0	0	9.096574	-0.133703	1.657187	0.328483	-0.040557	-0.009655	-0.764648	0.371338	-0.373047	0.649174	-0.323897	-0.575998	-0.376683	6.043338	-82.683967	-65.567084	0.052672	-0.115938	0.991859	0.862194	0.506401	0.013407	-0.503833	0.854469	0.126634	0	0	0
58098	0	0	0	0	0	9.013956	0.050056	2.129987	0.265790	0.004635	0.001965	-0.755371	0.368896	-0.363037	0.649610	-0.323032	-0.576487	-0.375925	6.193594	-82.682374	-65.565680	0.052686	-0.115962	0.991855	0.860857	0.508661	0.013742	-0.506111	0.853122	0.126626	0	0	0
58099	0	0	0	0	0	8.833422	0.314021	2.236127	0.215288	0.002454	-0.024213	-0.757568	0.368652	-0.363281	0.649906	-0.322262	-0.576930	-0.375395	6.432476	-82.680618	-65.683054	0.052461	-0.116097	0.991851	0.859787	0.510452	0.014273	-0.507950	0.852033	0.126598	0	0	0
58100	0	0	0	0	0	8.948474	0.336224	1.938496	0.154164	-0.015856	-0.055048	-0.755127	0.368164	-0.365723	0.649994	-0.321633	-0.577366	-0.375110	6.781927	-82.686930	-65.946964	0.051881	-0.116238	0.991865	0.859039	0.511690	0.015032	-0.509275	0.851271	0.126400	0	0	0
58101	0	0	0	0	0	9.221870	0.202233	1.956497	0.147510	0.009266	-0.104437	-0.758545	0.368408	-0.362061	0.650049	-0.320839	-0.577788	-0.375046	7.333193	-82.675449	-66.418595	0.051002	-0.116843	0.991840	0.858351	0.512805	0.016273	-0.510522	0.850517	0.126447	0	0	0
58102	0	0	0	0	0	9.262086	0.141874	2.028988	0.186578	-0.002515	-0.140484	-0.764404	0.365234	-0.358398	0.650066	-0.319833	-0.578378	-0.374966	8.070868	-82.666983	-67.055208	0.049758	-0.117538	0.991821	0.857474	0.514215	0.017920	-0.512115	0.849569	0.126372	0	0	0
58103	0	0	0	0	0	9.390527	-0.037576	1.925592	0.205992	-0.024128	-0.146814	-0.756836	0.354736	-0.371094	0.650036	-0.318788	-0.579084	-0.374818	8.860978	-82.669373	-67.734084	0.048346	-0.118081	0.991826	0.856502	0.515770	0.019654	-0.513875	0.848551	0.126072	0	0	0
58104	0	0	0	0	0	9.466394	-0.155588	1.824927	0.258791	-0.007406	-0.135110	-0.760498	0.359619	-0.368408	0.650163	-0.317571	-0.579814	-0.374503	9.617438	-82.661992	-68.347929	0.047126	-0.118711	0.991810	0.855240	0.517793	0.021338	-0.516085	0.847230	0.125927	0	0	0
58105	0	0	0	0	0	9.493171	-0.254109	1.864431	0.297460	-0.004805	-0.105489	-0.767334	0.353516	-0.372803	0.650410	-0.316310	-0.580561	-0.373983	10.263438	-82.655303	-68.828308	0.046171	-0.119210	0.991795	0.853759	0.520170	0.022778	-0.518617	0.845702	0.125793	0	0	0
58106	0	0	0	0	0	9.579147	-0.266264	1.987051	0.330497	0.029107	-0.068162	-0.764648	0.355225	-0.366699	0.650878	-0.314984	-0.581199	-0.373297	10.736073	-82.632620	-69.114576	0.045714	-0.119806	0.991744	0.852079	0.522869	0.023888	-0.521414	0.843952	0.125986	0	0	0
58107	0	0	0	0	0	9.531058	-0.204227	2.238790	0.352169	0.059137	-0.041688	-0.767334	0.352051	-0.370605	0.651513	-0.313610	-0.581735	-0.372510	11.079077	-82.595836	-69.257982	0.045640	-0.120515	0.991662	0.850266	0.525770	0.024764	-0.524371	0.842046	0.126466	0	0	0
58108	0	0	0	0	0	9.527454	-0.197812	2.379163	0.331709	0.068495	-0.035099	-0.767822	0.351318	-0.380859	0.652155	-0.312300	-0.582191	-0.371773	11.371225	-82.554243	-69.361582	0.045676	-0.121271	0.991568	0.848545	0.528506	0.025550	-0.527148	0.840223	0.127044	0	0	0
58109	0	0	0	0	0	9.558873	-0.087542	2.265158	0.315691	0.064954	-0.028333	-0.765869	0.345215	-0.375488	0.652771	-0.311071	-0.582617	-0.371056	11.626493	-82.515508	-69.437559	0.045750	-0.121959	0.991480	0.846899	0.531105	0.026251	-0.529782	0.838483	0.127585	0	0	0
58110	0	0	0	0	0	9.657741	0.089983	2.180934	0.297007	0.075615	-0.034059	-0.769775	0.347412	-0.381836	0.653379	-0.309863	-0.582980	-0.370426	11.883958	-82.469920	-69.526250	0.045837	-0.122769	0.991376	0.845344	0.533540	0.026986	-0.532252	0.836817	0.128238	0	0	0
58111	0	0	0	0	0	9.831904	0.323551	2.157600	0.283948	0.081765	-0.051506	-0.762451	0.348877	-0.379150	0.653949	-0.308636	-0.583325	-0.369901	12.200041	-82.418884	-69.681906	0.045810	-0.123721	0.991259	0.843863	0.535834	0.027880	-0.534600	0.835209	0.128950	0	0	0
58112	0	0	0	0	0	9.886553	0.492305	2.215139	0.267484	0.097759	-0.062281	-0.771240	0.352783	-0.384277	0.654520	-0.307400	-0.583603	-0.369481	12.533581	-82.357319	-69.864437	0.045782	-0.124866	0.991117	0.842465	0.537977	0.028861	-0.536802	0.833660	0.129825	0	0	0
58113	0	0	0	0	0	9.892404	0.482933	2.174975	0.242372	0.113976	-0.072737	-0.769775	0.339355	-0.388428	0.655077	-0.306188	-0.583795	-0.369196	12.876816	-82.285360	-70.071741	0.045755	-0.126201	0.990949	0.841206	0.539886	0.029916	-0.538775	0.832224	0.130863	0	0	0
58114	0	0	0	0	0	9.845942	0.476700	2.247307	0.238934	0.136914	-0.071032	-0.770264	0.337158	-0.381348	0.655700	-0.304947	-0.583903	-0.368947	13.184050	-82.200531	-70.244293	0.045870	-0.127719	0.990749	0.839956	0.541771	0.030952	-0.540712	0.830766	0.132129	0	0	0
58115	0	0	0	0	0	9.715192	0.434882	2.309946	0.223438	0.150981	-0.051804	-0.774658	0.340576	-0.386475	0.656373	-0.303787	-0.583906	-0.368703	13.386694	-82.110392	-70.320539	0.046225	-0.129247	0.990534	0.838779	0.543544	0.031780	-0.542506	0.829371	0.133535	0	0	0
58116	0	0	0	0	0	9.603872	0.280206	2.305125	0.214908	0.152499	-0.030504	-0.755859	0.334717	-0.387207	0.657078	-0.302713	-0.583854	-0.368414	13.494992	-82.022112	-70.306205	0.046772	-0.130673	0.990322	0.837633	0.545273	0.032388	-0.544228	0.828011	0.134959	0	0	0
58117	0	0	0	0	0	9.579140	0.169413	2.258567	0.211418	0.142067	-0.007509	-0.769775	0.338867	-0.391602	0.657786	-0.301738	-0.583794	-0.368045	13.519848	-81.942811	-70.209978	0.047455	-0.131883	0.990129	0.836494	0.546995	0.032767	-0.545917	0.826682	0.136277	0	0	0
58118	0	0	0	0	0	9.514437	0.128265	2.135429	0.212723	0.134488	-0.000566	-0.762207	0.329346	-0.384766	0.658487	-0.300790	-0.583751	-0.367635	13.525991	-81.868577	-70.093719	0.048159	-0.132993	0.989946	0.835338	0.548740	0.033082	-0.547623	0.825347	0.137521	0	0	0
58119	0	0	0	0	0	9.574157	0.168769	2.203465	0.203124	0.131118	0.009820	-0.756836	0.330566	-0.396973	0.659180	-0.299912	-0.583684	-0.367216	13.490745	-81.797681	-69.941579	0.048932	-0.134015	0.989770	0.834230	0.550411	0.033283	-0.549241	0.824068	0.138732	0	0	0
58120	0	0	0	0	0	9.614516	0.143707	2.346115	0.183831	0.130709	0.018070	-0.763672	0.339355	-0.398682	0.659860	-0.299120	-0.583570	-0.366822	13.414728	-81.728018	-69.758990	0.049775	-0.134988	0.989596	0.833218	0.551937	0.033378	-0.550700	0.822888	0.139947	0	0	0
58121	0	0	0	0	0	9.620550	0.243039	2.411985	0.145102	0.114292	0.022128	-0.769531	0.333984	-0.403809	0.660439	-0.298499	-0.583432	-0.366505	13.318141	-81.668054	-69.578273	0.050562	-0.135800	0.989445	0.832416	0.553145	0.033381	-0.551839	0.821942	0.141011	0	0	0
58122	0	0	0	0	0	9.645049	0.384188	2.373571	0.100385	0.082567	0.020555	-0.764893	0.337646	-0.398926	0.660856	-0.298078	-0.583319	-0.366274	13.232031	-81.625483	-69.433753	0.051163	-0.136361	0.989337	0.831859	0.553986	0.033337	-0.552624	0.821283	0.141776	0	0	0
58123	0	0	0	0	0	9.769396	0.471329	2.192746	0.062602	0.057461	0.005883	-0.767090	0.332764	-0.400879	0.661116	-0.297786	-0.583242	-0.366167	13.203020	-81.595006	-69.369140	0.051502	-0.136795	0.989260	0.831520	0.554491	0.033385	-0.553103	0.820869	0.142306	0	0	0
58124	0	0	0	0	0	10.100562	0.447819	2.087243	0.043194	0.024218	-0.000224	-0.764404	0.334717	-0.405518	0.661240	-0.297599	-0.583248	-0.366085	13.215521	-81.582238	-69.357405	0.051608	-0.136991	0.989227	0.831288	0.554833	0.033467	-0.553441	0.820605	0.142513	0	0	0
58125	0	0	0	0	0	10.269119	0.419749	2.037604	0.038017	0.031613	-0.002260	-0.764404	0.330811	-0.408691	0.661373	-0.297412	-0.583223	-0.366037	13.226222	-81.565095	-69.347123	0.051737	-0.137259	0.989183	0.831089	0.555126	0.033561	-0.553728	0.820362	0.142795	0	0	0
58126	0	0	0	0	0	10.421129	0.337766	2.009852	0.029530	0.026659	0.009362	-0.764160	0.325928	-0.399414	0.661501	-0.297294	-0.583182	-0.365966	13.192750	-81.552220	-69.296826	0.051936	-0.137421	0.989150	0.830927	0.555370	0.033528	-0.553952	0.820171	0.143031	0	0	0
58127	0	0	0	0	0	10.562543	0.254601	2.004089	0.037279	0.029953	0.039062	-0.768066	0.325439	-0.406250	0.661704	-0.297232	-0.583099	-0.365781	13.049570	-81.541360	-69.131286	0.052399	-0.137446	0.989122	0.830709	0.555715	0.033213	-0.554235	0.819933	0.143297	0	0	0
58128	0	0	0	0	0	10.648846	0.207721	1.970969	0.045790	0.048263	0.063858	-0.766357	0.335449	-0.401611	0.662019	-0.297180	-0.582935	-0.365515	12.802981	-81.523369	-68.856101	0.053171	-0.137482	0.989076	0.830429	0.556166	0.032665	-0.554582	0.819620	0.143741	0	0	0
58129	0	0	0	0	0	10.741940	0.211735	2.185534	0.058426	0.066947	0.079267	-0.763916	0.334717	-0.406738	0.662435	-0.297098	-0.582709	-0.365190	12.491536	-81.496666	-68.508242	0.054174	-0.137586	0.989007	0.830072	0.556739	0.031983	-0.555019	0.819214	0.144367	0	0	0
58130	0	0	0	0	0	10.804259	0.262623	2.275684	0.038456	0.075062	0.081831	-0.765137	0.326904	-0.409424	0.662849	-0.297073	-0.582416	-0.364925	12.154647	-81.465446	-68.145962	0.055243	-0.137741	0.988927	0.829821	0.557155	0.031247	-0.555289	0.818906	0.145079	0	0	0
58131	0	0	0	0	0	10.871569	0.105023	2.135765	0.019964	0.095984	0.072602	-0.765137	0.340088	-0.403564	0.663280	-0.297045	-0.582033	-0.364777	11.827778	-81.421072	-67.804644	0.056352	-0.138118	0.988811	0.829678	0.557404	0.030576	-0.555391	0.818672	0.146005	0	0	0
58132	0	0	0	0	0	10.875395	0.152770	2.147838	0.037368	0.122683	0.058336	-0.765137	0.340088	-0.407227	0.663788	-0.296869	-0.581614	-0.364664	11.546965	-81.359812	-67.499623	0.057491	-0.138793	0.988651	0.829445	0.557779	0.030071	-0.555623	0.818303	0.147188	0	0	0
58133	0	0	0	0	0	10.963870	0.258070	2.201379	0.019771	0.141154	0.046882	-0.760010	0.329590	-0.414063	0.664301	-0.296685	-0.581118	-0.364670	11.288661	-81.286650	-67.227964	0.058637	-0.139683	0.988459	0.829319	0.557988	0.029655	-0.555690	0.818009	0.148560	0	0	0
58134	0	0	0	0	0	11.046375	0.277551	2.150268	0.025171	0.165526	0.035435	-0.759033	0.338379	-0.406738	0.664873	-0.296404	-0.580568	-0.364731	11.062274	-81.198360	-66.984961	0.059824	-0.140835	0.988224	0.829166	0.558231	0.029360	-0.555793	0.817645	0.150171	0	0	0
58135	0	0	0	0	0	11.156853	0.316346	2.196065	0.026877	0.173373	0.030462	-0.755859	0.327637	-0.414551	0.665461	-0.296090	-0.580001	-0.364817	10.853920	-81.104939	-66.759385	0.061014	-0.142078	0.987973	0.829007	0.558479	0.029117	-0.555899	0.817261	0.151859	0	0	0
58136	0	0	0	0	0	11.293305	0.297338	2.178638	0.022325	0.202312	0.035338	-0.758057	0.330566	-0.417480	0.666134	-0.295750	-0.579323	-0.364941	10.610909	-80.995647	-66.501077	0.062405	-0.143530	0.987676	0.828869	0.558700	0.028819	-0.555951	0.816856	0.153833	0	0	0
58137	0	0	0	0	0	11.247274	0.090194	1.947427	0.016705	0.237220	0.043714	-0.761963	0.330811	-0.415771	0.666915	-0.295389	-0.578505	-0.365105	10.318875	-80.867319	-66.196353	0.064060	-0.145219	0.987323	0.828756	0.558887	0.028431	-0.555931	0.816429	0.156154	0	0	0
58138	0	0	0	0	0	11.110116	-0.030572	1.942343	0.067354	0.261482	0.045740	-0.756836	0.331543	-0.419678	0.667843	-0.294821	-0.577695	-0.365151	10.042144	-80.725330	-65.877565	0.065867	-0.147093	0.986927	0.828360	0.559491	0.028103	-0.556311	0.815679	0.158698	0	0	0
58139	0	0	0	0	0	11.011587	-0.056804	2.171272	0.103619	0.249595	0.046145	-0.764404	0.337646	-0.412842	0.668790	-0.294154	-0.576988	-0.365073	9.800481	-80.589811	-65.573288	0.067613	-0.148867	0.986543	0.827761	0.560390	0.027831	-0.556992	0.814740	0.161115	0	0	0
58140	0	0	0	0	0	10.950639	-0.053338	2.307204	0.113552	0.246722	0.046274	-0.751465	0.343750	-0.431396	0.669742	-0.293459	-0.576309	-0.364960	9.573519	-80.455776	-65.277873	0.069344	-0.150612	0.986158	0.827104	0.561372	0.027576	-0.557755	0.813743	0.163500	0	0	0
58141	0	0	0	0	0	10.895939	0.015159	2.278780	0.117582	0.269288	0.061159	-0.755371	0.325439	-0.430176	0.670790	-0.292753	-0.575537	-0.364820	9.294328	-80.310122	-64.927376	0.071326	-0.152455	0.985733	0.826416	0.562404	0.027184	-0.558525	0.812686	0.166106	0	0	0
58142	0	0	0	0	0	10.867969	0.101306	2.345985	0.118791	0.261769	0.068214	-0.758545	0.324707	-0.422852	0.671830	-0.292074	-0.574782	-0.364639	9.006172	-80.169124	-64.566574	0.073327	-0.154193	0.985316	0.825710	0.563461	0.026728	-0.559309	0.811625	0.168636	0	0	0
58143	0	0	0	0	0	10.826875	0.210452	2.347715	0.114430	0.239762	0.073216	-0.746826	0.336670	-0.429199	0.672809	-0.291465	-0.574085	-0.364422	8.719247	-80.040652	-64.209474	0.075247	-0.155722	0.984931	0.825023	0.564490	0.026218	-0.560066	0.810618	0.170951	0	0	0
58144	0	0	0	0	0	10.864173	0.199942	2.174101	0.110415	0.219041	0.072550	-0.757568	0.326172	-0.427246	0.673720	-0.290904	-0.573450	-0.364187	8.450289	-79.923635	-63.872759	0.077047	-0.157083	0.984575	0.824357	0.565486	0.025711	-0.560802	0.809661	0.173061	0	0	0
58145	0	0	0	0	0	10.886478	0.246311	2.041374	0.111989	0.196874	0.066271	-0.753174	0.337402	-0.439941	0.674557	-0.290360	-0.572899	-0.363937	8.218833	-79.818340	-63.573350	0.078672	-0.158298	0.984252	0.823687	0.566481	0.025270	-0.561560	0.808728	0.174954	0	0	0
58146	0	0	0	0	0	10.958956	0.199373	2.050078	0.125139	0.191858	0.066031	-0.752441	0.330078	-0.441650	0.675397	-0.289780	-0.572391	-0.363642	8.003452	-79.715736	-63.282279	0.080267	-0.159471	0.983934	0.822939	0.567585	0.024858	-0.562431	0.807723	0.176793	0	0	0
58147	0	0	0	0	0	11.035967	0.206618	1.946620	0.150609	0.188865	0.067918	-0.743408	0.335693	-0.433350	0.676269	-0.289124	-0.571934	-0.363262	7.802826	-79.614713	-62.991364	0.081864	-0.160606	0.983618	0.822045	0.568896	0.024474	-0.563507	0.806575	0.178598	0	0	0
58148	0	0	0	0	0	11.043166	0.178647	1.919235	0.172503	0.191625	0.069166	-0.745605	0.337646	-0.433838	0.677181	-0.288391	-0.571506	-0.362819	7.614647	-79.512121	-62.700171	0.083486	-0.161753	0.983293	0.821023	0.570386	0.024120	-0.564758	0.805292	0.180422	0	0	0
58149	0	0	0	0	0	11.088316	0.147503	2.050844	0.209898	0.181611	0.070472	-0.731445	0.332275	-0.436035	0.678118	-0.287556	-0.571175	-0.362251	7.452189	-79.415091	-62.413642	0.085065	-0.162809	0.982984	0.819788	0.572171	0.023825	-0.566314	0.803812	0.182141	0	0	0
58150	0	0	0	0	0	10.988818	0.132680	1.991912	0.209279	0.179299	0.077312	-0.741211	0.325684	-0.444336	0.679060	-0.286743	-0.570842	-0.361656	7.273945	-79.319785	-62.110932	0.086689	-0.163802	0.982677	0.818543	0.573966	0.023465	-0.567867	0.802329	0.183836	0	0	0
58151	0	0	0	0	0	10.773353	-0.055881	1.857855	0.181016	0.222073	0.065901	-0.737305	0.334961	-0.444092	0.680062	-0.285917	-0.570326	-0.361242	7.101943	-79.199101	-61.831107	0.088465	-0.165201	0.982284	0.817466	0.575511	0.023169	-0.569143	0.800934	0.185959	0	0	0
58152	0	0	0	0	0	10.532761	-0.072873	1.919307	0.213865	0.183636	0.055761	-0.739258	0.331299	-0.443115	0.680981	-0.285019	-0.570015	-0.360712	6.997513	-79.099510	-61.600661	0.089940	-0.166346	0.981957	0.816205	0.577303	0.023038	-0.570719	0.799406	0.187695	0	0	0
58153	0	0	0	0	0	10.525521	0.026952	2.010832	0.205306	0.160343	0.035250	-0.747314	0.323975	-0.447998	0.681782	-0.284134	-0.569794	-0.360244	6.959270	-79.011620	-61.442850	0.091118	-0.167420	0.981666	0.815011	0.578985	0.023095	-0.572236	0.797964	0.189206	0	0	0
58154	0	0	0	0	0	10.482876	0.175260	1.994125	0.192836	0.170414	0.024255	-0.740479	0.337891	-0.458496	0.682575	-0.283240	-0.569533	-0.359861	6.944133	-78.917290	-61.315510	0.092266	-0.168635	0.981351	0.813892	0.580551	0.023240	-0.573643	0.796569	0.190816	0	0	0
58155	0	0	0	0	0	10.385765	0.233270	2.010242	0.193555	0.155809	0.006546	-0.730469	0.324463	-0.448486	0.683293	-0.282320	-0.569345	-0.359516	6.986479	-78.829972	-61.246473	0.093188	-0.169835	0.981057	0.812784	0.582088	0.023563	-0.575063	0.795192	0.192283	0	0	0
58156	0	0	0	0	0	10.396018	0.323020	1.996369	0.184365	0.131247	-0.008378	-0.735352	0.327881	-0.454590	0.683901	-0.281431	-0.569247	-0.359212	7.075313	-78.755659	-61.229998	0.093849	-0.170923	0.980805	0.811739	0.583526	0.024018	-0.576431	0.793903	0.193509	0	0	0
58157	0	0	0	0	0	10.418792	0.434669	1.985253	0.180362	0.120213	-0.022586	-0.736084	0.320313	-0.455566	0.684446	-0.280537	-0.569197	-0.358953	7.205459	-78.686547	-61.258177	0.094334	-0.172007	0.980569	0.810729	0.584904	0.024606	-0.577771	0.792655	0.194627	0	0	0
58158	0	0	0	0	0	10.380231	0.402078	2.007995	0.158099	0.108939	-0.040600	-0.738281	0.331055	-0.459717	0.684894	-0.279686	-0.569172	-0.358802	7.377115	-78.622585	-61.341517	0.094609	-0.173104	0.980349	0.809862	0.586074	0.025329	-0.578941	0.791551	0.195638	0	0	0
58159	0	0	0	0	0	10.312347	0.360114	1.901630	0.159617	0.091273	-0.046559	-0.738770	0.324707	-0.460205	0.685283	-0.278845	-0.569217	-0.358643	7.571294	-78.568095	-61.447136	0.094735	-0.174097	0.980161	0.808991	0.587241	0.026115	-0.580137	0.790467	0.196475	0	0	0
58160	0	0	0	0	0	10.210512	0.412366	1.850579	0.151426	0.093028	-0.059162	-0.729980	0.318359	-0.458008	0.685642	-0.277993	-0.569259	-0.358552	7.794132	-78.511635	-61.586634	0.094770	-0.175177	0.979965	0.808176	0.588322	0.027010	-0.581266	0.789424	0.197329	0	0	0
58161	0	0	0	0	0	10.172989	0.427401	1.922463	0.141886	0.079715	-0.062164	-0.733398	0.320557	-0.461670	0.685944	-0.277189	-0.569332	-0.358480	8.023094	-78.462320	-61.738129	0.094706	-0.176169	0.979793	0.807419	0.589318	0.027916	-0.582327	0.788460	0.198055	0	0	0
58162	0	0	0	0	0	10.189759	0.488167	1.907173	0.123220	0.078185	-0.057974	-0.736328	0.320801	-0.460693	0.686223	-0.276462	-0.569372	-0.358443	8.228980	-78.414162	-61.876869	0.094668	-0.177124	0.979625	0.806764	0.590174	0.028746	-0.583241	0.787605	0.198768	0	0	0
58163	0	0	0	0	0	10.135054	0.511913	1.855943	0.113385	0.092707	-0.055513	-0.739746	0.318848	-0.466064	0.686534	-0.275751	-0.569340	-0.358447	8.414972	-78.357821	-62.001255	0.094735	-0.178180	0.979427	0.806165	0.590953	0.029532	-0.584057	0.786782	0.199626	0	0	0
58164	0	0	0	0	0	10.097553	0.548619	1.953062	0.104612	0.068546	-0.055173	-0.741943	0.322998	-0.467773	0.686764	-0.275114	-0.569375	-0.358441	8.603684	-78.315177	-62.133396	0.094664	-0.179042	0.979276	0.805614	0.591665	0.030298	-0.584828	0.786051	0.200249	0	0	0
58165	0	0	0	0	0	10.048809	0.606496	1.984904	0.078379	0.082197	-0.056130	-0.737305	0.312012	-0.469482	0.686995	-0.274540	-0.569317	-0.358532	8.772955	-78.264578	-62.261219	0.094667	-0.180019	0.979097	0.805219	0.592166	0.031021	-0.585372	0.785451	0.201013	0	0	0
58166	0	0	0	0	0	9.946100	0.546172	1.913833	0.060146	0.073657	-0.056757	-0.737305	0.321289	-0.468994	0.687175	-0.274041	-0.569256	-0.358664	8.936021	-78.218741	-62.393233	0.094615	-0.180930	0.978934	0.804929	0.592523	0.031715	-0.585780	0.784972	0.201698	0	0	0
58167	0	0	0	0	0	9.932557	0.485916	1.863176	0.047428	0.050304	-0.045853	-0.729248	0.317139	-0.467773	0.687290	-0.273659	-0.569238	-0.358763	9.071163	-78.186966	-62.504255	0.094515	-0.181595	0.978821	0.804703	0.592799	0.032276	-0.586105	0.784610	0.202158	0	0	0
58168	0	0	0	0	0	9.870440	0.459675	2.033782	0.041082	0.050823	-0.039434	-0.732910	0.316162	-0.471924	0.687410	-0.273316	-0.569198	-0.358859	9.184589	-78.155494	-62.596746	0.094469	-0.182224	0.978708	0.804508	0.593037	0.032762	-0.586381	0.784284	0.202625	0	0	0
58169	0	0	0	0	0	9.845305	0.422358	2.028882	0.015026	0.044338	-0.032882	-0.736572	0.317139	-0.469971	0.687488	-0.273093	-0.569123	-0.358997	9.267675	-78.128197	-62.673577	0.094439	-0.182765	0.978610	0.804460	0.593082	0.033131	-0.586451	0.784124	0.203037	0	0	0
58170	0	0	0	0	0	9.820524	0.338537	1.971157	0.008087	0.027685	-0.030665	-0.740967	0.314209	-0.467529	0.687512	-0.272930	-0.569092	-0.359125	9.347943	-78.110561	-62.751520	0.094328	-0.183161	0.978547	0.804450	0.593077	0.033464	-0.586483	0.784036	0.203288	0	0	0
58171	0	0	0	0	0	9.825544	0.285221	1.954203	-0.002175	0.021344	-0.029053	-0.734619	0.318115	-0.471191	0.687507	-0.272819	-0.569060	-0.359269	9.420513	-78.096587	-62.827767	0.094193	-0.183499	0.978497	0.804500	0.592992	0.033761	-0.586436	0.784021	0.203481	0	0	0
58172	0	0	0	0	0	9.800058	0.204701	2.007219	-0.005212	0.028119	-0.030847	-0.741699	0.315674	-0.460938	0.687515	-0.272700	-0.569003	-0.359435	9.493029	-78.078646	-62.905585	0.094083	-0.183899	0.978432	0.804568	0.592882	0.034069	-0.586360	0.784010	0.203740	0	0	0
58173	0	0	0	0	0	9.787657	0.164210	1.978746	-0.005486	0.015516	-0.034809	-0.733887	0.321777	-0.465332	0.687478	-0.272595	-0.568993	-0.359600	9.581311	-78.067382	-62.999941	0.093868	-0.184225	0.978391	0.804644	0.592759	0.034415	-0.586291	0.784027	0.203877	0	0	0
58174	0	0	0	0	0	9.846404	0.160745	1.986370	-0.001599	0.014342	-0.033763	-0.740479	0.314697	-0.470703	0.687446	-0.272480	-0.568994	-0.359748	9.669514	-78.056896	-63.091684	0.093654	-0.184535	0.978354	0.804694	0.592672	0.034759	-0.586257	0.784020	0.204000	0	0	0
58175	0	0	0	0	0	9.850782	0.066045	2.028586	-0.000473	0.016477	-0.038039	-0.734619	0.318359	-0.468750	0.687413	-0.272347	-0.568995	-0.359911	9.768475	-78.044713	-63.194014	0.093418	-0.184888	0.978310	0.804743	0.592582	0.035146	-0.586227	0.784004	0.204145	0	0	0
58176	0	0	0	0	0	9.808517	0.132821	2.113029	0.020904	0.018491	-0.042505	-0.745850	0.318848	-0.465088	0.687407	-0.272122	-0.569034	-0.360031	9.890584	-78.030963	-63.307243	0.093158	-0.185282	0.978260	0.804668	0.592655	0.035622	-0.586371	0.783856	0.204301	0	0	0
58177	0	0	0	0	0	9.802489	0.171122	2.108057	0.032019	0.014159	-0.045366	-0.737549	0.316406	-0.460449	0.687398	-0.271861	-0.569110	-0.360124	10.028259	-78.019281	-63.430197	0.092849	-0.185660	0.978218	0.804534	0.592805	0.036147	-0.586604	0.783653	0.204411	0	0	0
58178	0	0	0	0	0	9.819373	0.209755	2.172457	0.043984	0.015500	-0.051301	-0.727783	0.307129	-0.468018	0.687399	-0.271537	-0.569213	-0.360203	10.187822	-78.006219	-63.568208	0.092501	-0.186083	0.978170	0.804332	0.593042	0.036756	-0.586936	0.783374	0.204529	0	0	0
58179	0	0	0	0	0	9.823784	0.273988	2.284591	0.034031	0.030210	-0.055933	-0.738281	0.312256	-0.465820	0.687420	-0.271209	-0.569252	-0.360348	10.346361	-77.984264	-63.711229	0.092202	-0.186649	0.978090	0.804194	0.593189	0.037389	-0.587171	0.783128	0.204795	0	0	0
58180	0	0	0	0	0	9.716822	0.291611	2.253714	0.027422	0.026573	-0.063702	-0.738770	0.311523	-0.471191	0.687408	-0.270887	-0.569303	-0.360533	10.523040	-77.963513	-63.876463	0.091819	-0.187232	0.978015	0.804100	0.593272	0.038085	-0.587360	0.782925	0.205027	0	0	0
58181	0	0	0	0	0	9.763118	0.294280	2.283314	0.026642	0.021183	-0.069900	-0.739502	0.311523	-0.466797	0.687368	-0.270561	-0.569379	-0.360734	10.717526	-77.944979	-64.060566	0.091356	-0.187811	0.977947	0.804018	0.593335	0.038839	-0.587545	0.782739	0.205208	0	0	0
58182	0	0	0	0	0	9.820446	0.276411	2.377511	0.042487	0.021159	-0.067800	-0.746094	0.312012	-0.474121	0.687353	-0.270185	-0.569482	-0.360882	10.915175	-77.926606	-64.238439	0.090909	-0.188376	0.977880	0.803839	0.593527	0.039606	-0.587860	0.782458	0.205380	0	0	0
58183	0	0	0	0	0	9.860412	0.225425	2.409795	0.045269	0.042392	-0.065186	-0.739258	0.312012	-0.465820	0.687407	-0.269770	-0.569512	-0.361043	11.095862	-77.896397	-64.397562	0.090608	-0.189092	0.977770	0.803642	0.593743	0.040353	-0.588175	0.782121	0.205760	0	0	0
58184	0	0	0	0	0	9.888201	0.153565	2.439044	0.053895	0.053775	-0.062409	-0.734863	0.305908	-0.464355	0.687509	-0.269312	-0.569515	-0.361184	11.267667	-77.860053	-64.542355	0.090396	-0.189881	0.977637	0.803390	0.594034	0.041091	-0.588552	0.781709	0.206247	0	0	0
58185	0	0	0	0	0	9.821080	0.136676	2.466589	0.062038	0.072648	-0.071168	-0.733643	0.308838	-0.473389	0.687660	-0.268768	-0.569479	-0.361359	11.455805	-77.811968	-64.699405	0.090226	-0.190870	0.977460	0.803100	0.594367	0.041931	-0.588973	0.781215	0.206915	0	0	0
58186	0	0	0	0	0	9.764269	0.122627	2.585728	0.053259	0.073105	-0.078248	-0.734619	0.302002	-0.483643	0.687788	-0.268231	-0.569436	-0.361582	11.655888	-77.762757	-64.873553	0.090002	-0.191903	0.977278	0.802865	0.594621	0.042823	-0.589328	0.780769	0.207589	0	0	0
58187	0	0	0	0	0	9.685610	0.150876	2.574729	0.053123	0.068802	-0.087708	-0.729980	0.300293	-0.477539	0.687887	-0.267676	-0.569419	-0.361832	11.880833	-77.714626	-65.073199	0.089679	-0.192960	0.977100	0.802639	0.594855	0.043807	-0.589686	0.780330	0.208223	0	0	0
58188	0	0	0	0	0	9.703380	0.208688	2.447027	0.059879	0.080911	-0.090068	-0.737793	0.302734	-0.479980	0.688025	-0.267068	-0.569377	-0.362087	12.107640	-77.659353	-65.270884	0.089407	-0.194124	0.976894	0.802374	0.595135	0.044828	-0.590086	0.779827	0.208969	0	0	0
58189	0	0	0	0	0	9.699350	0.223825	2.566532	0.071436	0.081317	-0.097248	-0.742676	0.303467	-0.473877	0.688166	-0.266400	-0.569362	-0.362334	12.356968	-77.602716	-65.484824	0.089082	-0.195335	0.976682	0.802047	0.595491	0.045944	-0.590580	0.779252	0.209715	0	0	0
58190	0	0	0	0	0	9.719605	0.234818	2.643711	0.057274	0.075881	-0.089742	-0.738037	0.298828	-0.475098	0.688285	-0.265811	-0.569331	-0.362588	12.580422	-77.549950	-65.680688	0.088784	-0.196458	0.976484	0.801797	0.595749	0.046957	-0.590965	0.778773	0.210412	0	0	0
58191	0	0	0	0	0	9.654275	0.279214	2.526134	0.055262	0.084245	-0.077230	-0.733887	0.299316	-0.474121	0.688448	-0.265251	-0.569250	-0.362816	12.764347	-77.493851	-65.837448	0.088637	-0.197572	0.976273	0.801549	0.596013	0.047844	-0.591323	0.778289	0.211193	0	0	0
58192	0	0	0	0	0	9.577648	0.213914	2.412623	0.063596	0.074617	-0.068163	-0.735596	0.299316	-0.469238	0.688611	-0.264704	-0.569206	-0.362976	12.934641	-77.444261	-65.975225	0.088506	-0.198557	0.976085	0.801241	0.596360	0.048660	-0.591760	0.777773	0.211873	0	0	0
58193	0	0	0	0	0	9.546617	0.213191	2.402737	0.078616	0.060766	-0.059656	-0.742676	0.294678	-0.479492	0.688769	-0.264156	-0.569224	-0.363047	13.098759	-77.403328	-66.098107	0.088363	-0.199384	0.975929	0.800839	0.596837	0.049425	-0.592325	0.777195	0.212412	0	0	0
58194	0	0	0	0	0	9.664202	0.250306	2.361745	0.092831	0.065904	-0.055447	-0.736084	0.300537	-0.486572	0.688968	-0.263560	-0.569245	-0.363068	13.256964	-77.360090	-66.206379	0.088283	-0.200224	0.975765	0.800346	0.597435	0.050180	-0.593003	0.776519	0.212992	0	0	0
58195	0	0	0	0	0	9.603736	0.240222	2.336746	0.099438	0.094007	-0.045720	-0.738770	0.301025	-0.485107	0.689274	-0.262919	-0.569168	-0.363074	13.377063	-77.302301	-66.271746	0.088450	-0.201225	0.975543	0.799805	0.598102	0.050854	-0.593708	0.775746	0.213843	0	0	0
58196	0	0	0	0	0	9.489502	0.441738	2.259681	0.109568	0.095785	-0.045079	-0.734131	0.296631	-0.476563	0.689599	-0.262240	-0.569103	-0.363051	13.499855	-77.243684	-66.333928	0.088632	-0.202235	0.975318	0.799202	0.598848	0.051545	-0.594492	0.774908	0.214704	0	0	0
58197	0	0	0	0	0	9.504719	0.588018	2.235463	0.112998	0.093616	-0.042967	-0.736084	0.298828	-0.478271	0.689925	-0.261561	-0.569047	-0.363009	13.619476	-77.186433	-66.391022	0.088821	-0.203216	0.975097	0.798578	0.599621	0.052223	-0.595302	0.774052	0.215543	0	0	0
58198	0	0	0	0	0	9.557491	0.639802	2.157117	0.122496	0.086084	-0.035779	-0.730713	0.294434	-0.478027	0.690255	-0.260882	-0.569026	-0.362903	13.731111	-77.134420	-66.434191	0.089022	-0.204095	0.974895	0.797888	0.600484	0.052853	-0.596196	0.773153	0.216301	0	0	0
58199	0	0	0	0	0	9.570299	0.725264	2.021649	0.128588	0.072442	-0.025077	-0.742920	0.296143	-0.476807	0.690573	-0.260238	-0.569047	-0.362727	13.827385	-77.091350	-66.458284	0.089229	-0.204804	0.974727	0.797155	0.601410	0.053391	-0.597146	0.772244	0.216923	0	0	0
58200	0	0	0	0	0	9.601339	0.796897	1.895766	0.127311	0.045605	-0.008706	-0.734131	0.295166	-0.489014	0.690842	-0.259693	-0.569139	-0.362462	13.899340	-77.065541	-66.457926	0.089405	-0.205206	0.974627	0.796410	0.602362	0.053769	-0.598112	0.771395	0.217282	0	0	0
58201	0	0	0	0	0	9.642969	0.782485	1.868387	0.126261	0.031467	0.009254	-0.725098	0.289795	-0.487061	0.691102	-0.259228	-0.569252	-0.362120	13.935253	-77.049975	-66.421429	0.089642	-0.205391	0.974566	0.795657	0.603339	0.053969	-0.599078	0.770582	0.217505	0	0	0
58202	0	0	0	0	0	9.618971	0.828685	1.851346	0.120520	0.029265	0.022698	-0.734619	0.300293	-0.483398	0.691372	-0.258825	-0.569346	-0.361744	13.937069	-77.037585	-66.353092	0.089971	-0.205477	0.974517	0.794922	0.604301	0.054027	-0.600003	0.769805	0.217708	0	0	0
58203	0	0	0	0	0	9.556623	0.861429	1.726392	0.120222	0.016424	0.028118	-0.736572	0.295166	-0.486084	0.691615	-0.258462	-0.569476	-0.361334	13.932999	-77.032980	-66.279044	0.090268	-0.205433	0.974499	0.794185	0.605270	0.054030	-0.600934	0.769055	0.217788	0	0	0
58204	0	0	0	0	0	9.555866	0.884005	1.751781	0.118545	0.005180	0.032024	-0.732666	0.289551	-0.484375	0.691831	-0.258136	-0.569638	-0.360900	13.925643	-77.035269	-66.202453	0.090527	-0.205276	0.974508	0.793451	0.606234	0.053993	-0.601864	0.768337	0.217757	0	0	0
58205	0	0	0	0	0	9.614412	0.900421	1.783458	0.097550	-0.004034	0.033899	-0.729004	0.292969	-0.482666	0.691996	-0.257904	-0.569790	-0.360509	13.906970	-77.042853	-66.126760	0.090746	-0.205038	0.974538	0.792843	0.607038	0.053891	-0.602631	0.767766	0.217650	0	0	0
58206	0	0	0	0	0	9.666643	0.885544	1.842955	0.082411	-0.006778	0.036457	-0.733887	0.300293	-0.491455	0.692138	-0.257737	-0.569922	-0.360146	13.875254	-77.052391	-66.046422	0.090968	-0.204763	0.974575	0.792322	0.607733	0.053732	-0.603283	0.767290	0.217522	0	0	0
58207	0	0	0	0	0	9.524375	0.812693	1.879337	0.064034	-0.007225	0.029980	-0.737793	0.294189	-0.486816	0.692244	-0.257616	-0.570029	-0.359860	13.848539	-77.061193	-65.982253	0.091136	-0.204524	0.974610	0.791919	0.608270	0.053594	-0.603787	0.766928	0.217402	0	0	0
58208	0	0	0	0	0	9.471318	0.719995	1.912700	0.054338	-0.036878	0.021827	-0.732178	0.291016	-0.495850	0.692238	-0.257558	-0.570233	-0.359589	13.853996	-77.085457	-65.956565	0.091059	-0.204106	0.974704	0.791579	0.608718	0.053516	-0.604243	0.766683	0.216996	0	0	0
58209	0	0	0	0	0	9.550231	0.741773	1.866049	0.042988	-0.053225	0.012353	-0.727051	0.296387	-0.489014	0.692154	-0.257542	-0.570485	-0.359363	13.885574	-77.117417	-65.964394	0.090810	-0.203622	0.974829	0.791317	0.609060	0.053505	-0.604624	0.766540	0.216438	0	0	0
58210	0	0	0	0	0	9.649794	0.657992	1.729212	0.026032	-0.055176	0.002761	-0.733398	0.291504	-0.490967	0.692025	-0.257561	-0.570726	-0.359216	13.932254	-77.149237	-65.997633	0.090472	-0.203180	0.974953	0.791166	0.609253	0.053551	-0.604873	0.766504	0.215869	0	0	0
58211	0	0	0	0	0	9.744815	0.715828	1.743259	0.031766	-0.069446	-0.004051	-0.732666	0.289063	-0.488281	0.691850	-0.257566	-0.571034	-0.359058	14.007504	-77.187949	-66.056882	0.089994	-0.202671	0.975103	0.790987	0.609474	0.053675	-0.605179	0.766463	0.215160	0	0	0
58212	0	0	0	0	0	9.875532	0.813336	1.744450	0.019944	-0.066170	-0.000392	-0.728271	0.286377	-0.483887	0.691676	-0.257616	-0.571306	-0.358925	14.065647	-77.225424	-66.105443	0.089564	-0.202164	0.975248	0.790875	0.609614	0.053739	-0.605389	0.766486	0.214486	0	0	0
58213	0	0	0	0	0	9.955315	0.816193	1.926270	0.003418	-0.067270	-0.001675	-0.728516	0.294922	-0.485840	0.691476	-0.257721	-0.571554	-0.358842	14.118418	-77.263250	-66.158200	0.089118	-0.201658	0.975393	0.790864	0.609624	0.053779	-0.605468	0.766611	0.213812	0	0	0
58214	0	0	0	0	0	9.943010	0.865597	1.990549	-0.021289	-0.078925	0.000283	-0.728271	0.295166	-0.485596	0.691213	-0.257939	-0.571795	-0.358808	14.159788	-77.307888	-66.213769	0.088615	-0.201049	0.975565	0.791001	0.609449	0.053747	-0.605363	0.766910	0.213036	0	0	0
58215	0	0	0	0	0	9.959430	0.882765	2.130187	-0.045104	-0.109439	0.002096	-0.731689	0.293213	-0.486816	0.690835	-0.258300	-0.572095	-0.358797	14.202171	-77.369652	-66.284528	0.087944	-0.200195	0.975801	0.791283	0.609092	0.053647	-0.605093	0.767417	0.211977	0	0	0
58216	0	0	0	0	0	10.056944	0.827669	2.123940	-0.083138	-0.128839	0.000109	-0.739014	0.297363	-0.477783	0.690349	-0.258820	-0.572398	-0.358875	14.240805	-77.441970	-66.373579	0.087139	-0.199203	0.976076	0.791794	0.608442	0.053487	-0.604540	0.768191	0.210747	0	0	0
58217	0	0	0	0	0	10.185257	0.734055	2.081371	-0.108756	-0.142410	-0.002818	-0.732666	0.291748	-0.486572	0.689785	-0.259445	-0.572703	-0.359021	14.281343	-77.521359	-66.479836	0.086230	-0.198124	0.976377	0.792464	0.607584	0.053302	-0.603792	0.769148	0.209398	0	0	0
58218	0	0	0	0	0	10.407012	0.657681	2.117587	-0.119873	-0.158661	-0.016768	-0.738770	0.301514	-0.478516	0.689134	-0.260097	-0.573064	-0.359223	14.362307	-77.607806	-66.633732	0.085113	-0.197002	0.976702	0.793211	0.606616	0.053233	-0.602970	0.770199	0.207895	0	0	0
58219	0	0	0	0	0	10.605903	0.604453	2.107720	-0.121228	-0.161455	-0.027625	-0.739258	0.292236	-0.478027	0.688454	-0.260727	-0.573444	-0.359464	14.473405	-77.694132	-66.819379	0.083895	-0.195924	0.977024	0.793974	0.605613	0.053268	-0.602135	0.771263	0.206366	0	0	0
58220	0	0	0	0	0	10.793340	0.595272	2.056496	-0.118116	-0.172618	-0.032760	-0.739014	0.289795	-0.477783	0.687735	-0.261352	-0.573875	-0.359698	14.609171	-77.785892	-67.028223	0.082569	-0.194788	0.977364	0.794721	0.604625	0.053362	-0.601333	0.772325	0.204725	0	0	0
58221	0	0	0	0	0	11.044231	0.576195	2.154379	-0.125802	-0.178761	-0.022220	-0.743652	0.292236	-0.475098	0.687007	-0.262043	-0.574299	-0.359910	14.720267	-77.882433	-67.216277	0.081292	-0.193539	0.977719	0.795503	0.603597	0.053340	-0.600471	0.773443	0.203028	0	0	0
58222	0	0	0	0	0	11.123958	0.540117	2.240148	-0.126835	-0.164578	-0.017452	-0.739746	0.304443	-0.468018	0.686327	-0.262726	-0.574665	-0.360126	14.810833	-77.971800	-67.383859	0.080139	-0.192368	0.978045	0.796287	0.602569	0.053271	-0.599587	0.774535	0.201469	0	0	0
58223	0	0	0	0	0	11.180156	0.589690	2.247730	-0.125084	-0.153536	-0.011984	-0.741699	0.287354	-0.475586	0.685688	-0.263401	-0.574988	-0.360333	14.882171	-78.055789	-67.531027	0.079096	-0.191248	0.978350	0.797057	0.601560	0.053154	-0.598701	0.775596	0.200017	0	0	0
58224	0	0	0	0	0	11.176880	0.604118	2.310623	-0.130714	-0.151671	-0.020415	-0.748291	0.298584	-0.469238	0.685033	-0.264065	-0.575306	-0.360587	14.972860	-78.137474	-67.700902	0.078000	-0.190191	0.978644	0.797864	0.600494	0.053110	-0.597771	0.776682	0.198585	0	0	0
58225	0	0	0	0	0	11.262727	0.557685	2.430383	-0.131585	-0.153564	-0.025291	-0.743652	0.295898	-0.475342	0.684361	-0.264721	-0.575635	-0.360857	15.079256	-78.219358	-67.887291	0.076854	-0.189148	0.978936	0.798677	0.599411	0.053115	-0.596831	0.777772	0.197135	0	0	0
58226	0	0	0	0	0	11.402723	0.510664	2.411890	-0.125343	-0.142414	-0.029024	-0.734863	0.297363	-0.468262	0.683722	-0.265324	-0.575941	-0.361136	15.193032	-78.294506	-68.077504	0.075746	-0.188211	0.979203	0.799455	0.598368	0.053169	-0.595931	0.778802	0.195790	0	0	0
58227	0	0	0	0	0	11.471146	0.472221	2.410105	-0.120639	-0.121549	-0.032929	-0.738037	0.299805	-0.462158	0.683143	-0.265862	-0.576188	-0.361442	15.306365	-78.357355	-68.264456	0.074734	-0.187459	0.979425	0.800206	0.597354	0.053273	-0.595050	0.779761	0.194648	0	0	0
58228	0	0	0	0	0	11.538347	0.507961	2.598379	-0.111715	-0.113829	-0.024430	-0.747314	0.303223	-0.467773	0.682612	-0.266381	-0.576414	-0.361703	15.398026	-78.417260	-68.424031	0.073835	-0.186714	0.979636	0.800897	0.596424	0.053312	-0.594233	0.780651	0.193576	0	0	0
58229	0	0	0	0	0	11.558420	0.541303	2.649318	-0.130182	-0.098210	-0.020895	-0.744629	0.302979	-0.459717	0.682106	-0.266945	-0.576547	-0.362028	15.458785	-78.468987	-68.563095	0.073058	-0.186069	0.979817	0.801696	0.595352	0.053282	-0.593250	0.781622	0.192666	0	0	0
58230	0	0	0	0	0	11.548633	0.565226	2.686628	-0.127236	-0.080555	-0.017241	-0.749023	0.303955	-0.461670	0.681663	-0.267477	-0.576622	-0.362353	15.499158	-78.511548	-68.679347	0.072416	-0.185539	0.979965	0.802471	0.594313	0.053223	-0.592281	0.782539	0.191927	0	0	0
58231	0	0	0	0	0	11.491493	0.569472	2.672239	-0.129843	-0.085592	-0.016901	-0.743408	0.301025	-0.467773	0.681200	-0.268029	-0.576706	-0.362680	15.541266	-78.556893	-68.799250	0.071747	-0.184967	0.980122	0.803263	0.593247	0.053156	-0.591287	0.783482	0.191141	0	0	0
58232	0	0	0	0	0	11.398725	0.579939	2.722339	-0.126035	-0.070316	-0.020028	-0.746582	0.294678	-0.456299	0.680782	-0.268530	-0.576751	-0.363025	15.583326	-78.593339	-68.916486	0.071144	-0.184532	0.980248	0.804030	0.592210	0.053129	-0.590317	0.784369	0.190501	0	0	0
58233	0	0	0	0	0	11.276726	0.490025	2.655127	-0.128542	-0.062605	-0.020449	-0.749756	0.298340	-0.465820	0.680381	-0.269023	-0.576764	-0.363389	15.619609	-78.625358	-69.029326	0.070584	-0.184160	0.980359	0.804811	0.591151	0.053102	-0.589319	0.785255	0.189940	0	0	0
58234	0	0	0	0	0	11.219186	0.448778	2.592040	-0.127153	-0.056034	-0.019846	-0.743896	0.305664	-0.463623	0.680002	-0.269502	-0.576757	-0.363755	15.650453	-78.653923	-69.135747	0.070068	-0.183834	0.980457	0.805582	0.590103	0.053073	-0.588327	0.786119	0.189441	0	0	0
58235	0	0	0	0	0	11.126701	0.371411	2.653599	-0.116903	-0.049810	-0.014542	-0.739502	0.294922	-0.462158	0.679665	-0.269949	-0.576739	-0.364082	15.667810	-78.679745	-69.222435	0.069633	-0.183527	0.980545	0.806287	0.589144	0.053011	-0.587411	0.786910	0.188999	0	0	0
58236	0	0	0	0	0	11.039616	0.324866	2.688186	-0.118370	-0.040241	-0.009977	-0.743408	0.299316	-0.459717	0.679360	-0.270397	-0.576680	-0.364410	15.664805	-78.701112	-69.289186	0.069290	-0.183266	0.980618	0.806997	0.588181	0.052902	-0.586477	0.787691	0.188650	0	0	0
58237	0	0	0	0	0	10.939300	0.363832	2.624694	-0.107811	-0.037483	-0.008185	-0.748535	0.297119	-0.453369	0.679082	-0.270809	-0.576629	-0.364705	15.660723	-78.721100	-69.348545	0.068979	-0.183017	0.980687	0.807641	0.587306	0.052796	-0.585626	0.788401	0.188324	0	0	0
58238	0	0	0	0	0	10.863010	0.379746	2.604826	-0.104736	-0.036201	-0.002663	-0.747070	0.308838	-0.453857	0.678821	-0.271224	-0.576571	-0.364974	15.642357	-78.741373	-69.391659	0.068719	-0.182744	0.980756	0.808264	0.586463	0.052642	-0.584797	0.789092	0.188007	0	0	0
58239	0	0	0	0	0	10.792890	0.384485	2.617445	-0.115497	-0.035575	0.001442	-0.743652	0.305176	-0.459473	0.678553	-0.271688	-0.576484	-0.365263	15.605730	-78.761873	-69.422738	0.068497	-0.182453	0.980826	0.808949	0.585537	0.052428	-0.583875	0.789846	0.187703	0	0	0
58240	0	0	0	0	0	10.734708	0.295495	2.505628	-0.124226	-0.022924	0.009978	-0.747803	0.309814	-0.458496	0.678326	-0.272181	-0.576329	-0.365564	15.530779	-78.776774	-69.419542	0.068417	-0.182210	0.980876	0.809674	0.584561	0.052114	-0.582878	0.790625	0.187525	0	0	0
58241	0	0	0	0	0	10.569073	0.329418	2.492690	-0.110339	-0.022352	0.013738	-0.742432	0.306641	-0.453369	0.678126	-0.272638	-0.576189	-0.365813	15.452224	-78.791802	-69.404728	0.068374	-0.181952	0.980927	0.810317	0.583699	0.051788	-0.581989	0.791321	0.187349	0	0	0
58242	0	0	0	0	0	10.564061	0.338958	2.570391	-0.116108	-0.020639	0.012272	-0.749268	0.302246	-0.448242	0.677921	-0.273107	-0.576037	-0.366085	15.373554	-78.805788	-69.393000	0.068327	-0.181714	0.980975	0.810992	0.582790	0.051467	-0.581054	0.792046	0.187189	0	0	0
58243	0	0	0	0	0	10.468640	0.407959	2.482109	-0.119387	-0.018376	0.008018	-0.749512	0.316895	-0.453125	0.677709	-0.273571	-0.575875	-0.366385	15.302749	-78.817786	-69.391481	0.068260	-0.181520	0.981015	0.811690	0.581842	0.051182	-0.580086	0.792787	0.187054	0	0	0
58244	0	0	0	0	0	10.427095	0.394952	2.374596	-0.109939	-0.017463	0.004797	-0.735840	0.309814	-0.451660	0.677506	-0.273991	-0.575733	-0.366669	15.245900	-78.828883	-69.398393	0.068171	-0.181350	0.981053	0.812332	0.580966	0.050946	-0.579198	0.793467	0.186921	0	0	0
58245	0	0	0	0	0	10.404025	0.418227	2.441979	-0.110409	-0.018173	-0.003450	-0.746582	0.307129	-0.446045	0.677286	-0.274392	-0.575601	-0.366983	15.211613	-78.839015	-69.429012	0.068013	-0.181224	0.981087	0.812985	0.580065	0.050789	-0.578299	0.794155	0.186784	0	0	0
58246	0	0	0	0	0	10.363072	0.409157	2.446425	-0.111220	-0.015603	-0.003554	-0.754639	0.307861	-0.448486	0.677071	-0.274788	-0.575462	-0.367301	15.175960	-78.847831	-69.458276	0.067867	-0.181117	0.981117	0.813638	0.579163	0.050633	-0.577397	0.794838	0.186670	0	0	0
58247	0	0	0	0	0	10.298057	0.355989	2.329344	-0.106414	-0.019236	-0.004709	-0.750732	0.303467	-0.450195	0.676850	-0.275174	-0.575343	-0.367606	15.148819	-78.858408	-69.493803	0.067692	-0.180990	0.981153	0.814267	0.578290	0.050497	-0.576530	0.795502	0.186519	0	0	0
58248	0	0	0	0	0	10.280583	0.321657	2.264642	-0.092057	-0.017549	-0.004288	-0.746094	0.311768	-0.440918	0.676654	-0.275507	-0.575246	-0.367869	15.127698	-78.868196	-69.526685	0.067529	-0.180872	0.981186	0.814808	0.577537	0.050385	-0.575785	0.796075	0.186376	0	0	0
58249	0	0	0	0	0	10.192745	0.274477	2.302398	-0.089145	-0.008116	0.000335	-0.743164	0.306885	-0.448730	0.676497	-0.275827	-0.575114	-0.368122	15.087769	-78.873366	-69.539079	0.067459	-0.180803	0.981203	0.815332	0.576810	0.050232	-0.575050	0.796618	0.186326	0	0	0
58250	0	0	0	0	0	10.192932	0.294555	2.327944	-0.087709	-0.009911	0.006454	-0.740967	0.307129	-0.453857	0.676349	-0.276162	-0.574984	-0.368346	15.033099	-78.880536	-69.535230	0.067428	-0.180684	0.981227	0.815840	0.576111	0.050022	-0.574334	0.797151	0.186255	0	0	0
58251	0	0	0	0	0	10.145440	0.318171	2.327591	-0.093082	0.000679	0.012407	-0.741943	0.315918	-0.446777	0.676236	-0.276513	-0.574799	-0.368581	14.950058	-78.882542	-69.505631	0.067510	-0.180617	0.981234	0.816373	0.575378	0.049743	-0.573565	0.797695	0.186294	0	0	0
58252	0	0	0	0	0	10.103267	0.350920	2.274481	-0.093908	0.003250	0.012301	-0.744873	0.311768	-0.444824	0.676128	-0.276861	-0.574604	-0.368821	14.865388	-78.883284	-69.474828	0.067602	-0.180568	0.981236	0.816911	0.574639	0.049465	-0.572788	0.798239	0.186355	0	0	0
58253	0	0	0	0	0	10.103249	0.347484	2.275085	-0.094401	0.002205	0.013301	-0.738770	0.317871	-0.446289	0.676017	-0.277218	-0.574409	-0.369060	14.777664	-78.884614	-69.441665	0.067699	-0.180508	0.981241	0.817455	0.573890	0.049174	-0.572001	0.798791	0.186409	0	0	0
58254	0	0	0	0	0	10.073432	0.380674	2.313122	-0.097819	0.012678	0.008194	-0.737061	0.309326	-0.445557	0.675923	-0.277551	-0.574181	-0.369338	14.695335	-78.879517	-69.415531	0.067812	-0.180559	0.981224	0.818016	0.573111	0.048928	-0.571184	0.799339	0.186564	0	0	0
58255	0	0	0	0	0	10.043630	0.369528	2.298631	-0.093779	0.003528	0.005427	-0.745605	0.307373	-0.440918	0.675802	-0.277880	-0.573993	-0.369602	14.629121	-78.878917	-69.403808	0.067852	-0.180555	0.981222	0.818559	0.572354	0.048715	-0.570402	0.799882	0.186630	0	0	0
58256	0	0	0	0	0	10.025596	0.379504	2.288712	-0.095136	0.005149	0.003987	-0.743652	0.317383	-0.449219	0.675682	-0.278205	-0.573801	-0.369876	14.565795	-78.877374	-69.395474	0.067888	-0.180569	0.981217	0.819106	0.571587	0.048515	-0.569611	0.800427	0.186709	0	0	0
58257	0	0	0	0	0	9.948263	0.350743	2.221272	-0.102816	0.007353	0.004378	-0.741455	0.311035	-0.440674	0.675558	-0.278554	-0.573585	-0.370176	14.494835	-78.874516	-69.384164	0.067941	-0.180602	0.981207	0.819699	0.570755	0.048296	-0.568751	0.801013	0.186817	0	0	0
