// General information: 
//  MT Manager version: 2022.2.0 
//  XDA version: 2022.2.0 build 7381 rev 124627 built on 2023-07-19
// Device information: 
//  DeviceId: 10B426F3
//  ProductCode: MTW2-3A7G6
//  Firmware Version: 4.14.0
//  Hardware Version: 3.0.0
// Device settings: 
//  Filter Profile: human(46.1)
//  Option Flags: Orientation Smoother Disabled, Position/Velocity Smoother Disabled, Continuous Zero Rotation Update Disabled, AHS Disabled, ICC Disabled
// Coordinate system: ENU
PacketCounter	SampleTimeFine	Year	Month	Day	Second	Acc_X	Acc_Y	Acc_Z	Gyr_X	Gyr_Y	Gyr_Z	Mag_X	Mag_Y	Mag_Z	Quat_q0	Quat_q1	Quat_q2	Quat_q3	Roll	Pitch	Yaw	Mat[1][1]	Mat[2][1]	Mat[3][1]	Mat[1][2]	Mat[2][2]	Mat[3][2]	Mat[1][3]	Mat[2][3]	Mat[3][3]	Vel_E	Vel_N	Vel_U
13511	0	0	0	0	0	4.409727	2.061733	8.518023	-0.000536	0.003999	0.004285	-1.093750	-0.624512	-0.364990	-0.332181	-0.257128	-0.025108	-0.907144	14.020818	-26.732318	136.428940	-0.647082	0.615585	0.449823	-0.589761	-0.778050	0.216380	0.483185	-0.125273	0.866510	0	0	0
13512	0	0	0	0	0	4.464751	2.059849	8.541146	-0.001807	0.002313	0.005039	-1.089355	-0.627686	-0.360352	-0.332188	-0.257134	-0.025103	-0.907140	14.020752	-26.733068	136.427932	-0.647067	0.615592	0.449835	-0.589773	-0.778042	0.216377	0.483190	-0.125290	0.866504	0	0	0
13513	0	0	0	0	0	4.451271	2.055416	8.521278	-0.001948	0.003023	0.007483	-1.099121	-0.628418	-0.358154	-0.332186	-0.257134	-0.025090	-0.907141	14.019288	-26.733753	136.428413	-0.647068	0.615583	0.449845	-0.589777	-0.778045	0.216354	0.483184	-0.125313	0.866505	0	0	0
13514	0	0	0	0	0	4.464510	2.059109	8.541450	0.000987	0.003107	0.004134	-1.093750	-0.625977	-0.358398	-0.332194	-0.257141	-0.025100	-0.907136	14.021021	-26.733935	136.426965	-0.647051	0.615598	0.449848	-0.589781	-0.778035	0.216380	0.483200	-0.125303	0.866497	0	0	0
13515	0	0	0	0	0	4.450951	2.054749	8.521606	-0.003472	0.003915	0.007636	-1.089600	-0.628662	-0.360840	-0.332184	-0.257138	-0.025084	-0.907141	14.018715	-26.734432	136.428694	-0.647067	0.615576	0.449856	-0.589776	-0.778049	0.216344	0.483186	-0.125325	0.866502	0	0	0
13516	0	0	0	0	0	4.437434	2.050519	8.501708	0.002652	0.001505	0.001538	-1.092529	-0.626465	-0.363037	-0.332201	-0.257154	-0.025102	-0.907129	14.022241	-26.735145	136.425381	-0.647027	0.615610	0.449867	-0.589789	-0.778024	0.216396	0.483223	-0.125313	0.866483	0	0	0
13517	0	0	0	0	0	4.450634	2.054544	8.521821	0.001551	0.004306	0.004979	-1.089600	-0.630859	-0.364014	-0.332210	-0.257156	-0.025110	-0.907126	14.023472	-26.734778	136.424059	-0.647015	0.615627	0.449861	-0.589798	-0.778012	0.216415	0.483228	-0.125303	0.866481	0	0	0
13518	0	0	0	0	0	4.433664	2.042759	8.535482	-0.001243	0.003511	0.005885	-1.090332	-0.624268	-0.366211	-0.332212	-0.257157	-0.025108	-0.907125	14.023408	-26.734979	136.423763	-0.647011	0.615629	0.449864	-0.589802	-0.778010	0.216414	0.483229	-0.125309	0.866480	0	0	0
13519	0	0	0	0	0	4.448496	2.028964	8.498538	0.001551	0.004306	0.004979	-1.096924	-0.629150	-0.353760	-0.332223	-0.257156	-0.025115	-0.907121	14.024540	-26.734447	136.422155	-0.646997	0.615650	0.449856	-0.589816	-0.777994	0.216432	0.483232	-0.125301	0.866480	0	0	0
13520	0	0	0	0	0	4.424869	2.071202	8.505871	0.001693	0.003595	0.002535	-1.090576	-0.629150	-0.349121	-0.332237	-0.257162	-0.025131	-0.907114	14.027091	-26.734136	136.419788	-0.646973	0.615678	0.449851	-0.589827	-0.777975	0.216471	0.483249	-0.125283	0.866472	0	0	0
13521	0	0	0	0	0	4.463086	2.057952	8.542473	0.000844	0.003818	0.006579	-1.094971	-0.625000	-0.347900	-0.332233	-0.257169	-0.025136	-0.907113	14.027879	-26.734787	136.419889	-0.646971	0.615674	0.449861	-0.589817	-0.777979	0.216482	0.483265	-0.125279	0.866464	0	0	0
13522	0	0	0	0	0	4.451176	2.078931	8.546223	0.001551	0.004306	0.004980	-1.100098	-0.630615	-0.358398	-0.332235	-0.257172	-0.025149	-0.907111	14.029614	-26.734420	136.419153	-0.646965	0.615684	0.449856	-0.589814	-0.777974	0.216509	0.483277	-0.125258	0.866461	0	0	0
13523	0	0	0	0	0	4.437548	2.074707	8.526382	-0.002624	0.003693	0.003593	-1.090332	-0.622070	-0.365967	-0.332241	-0.257173	-0.025143	-0.907109	14.029113	-26.734731	136.418586	-0.646957	0.615689	0.449860	-0.589825	-0.777968	0.216500	0.483274	-0.125272	0.866460	0	0	0
13524	0	0	0	0	0	4.432220	2.041917	8.536433	0.003780	0.003902	0.003229	-1.096191	-0.624756	-0.364502	-0.332248	-0.257180	-0.025168	-0.907103	14.032644	-26.734346	136.416698	-0.646939	0.615712	0.449854	-0.589822	-0.777955	0.216555	0.483302	-0.125236	0.866450	0	0	0
13525	0	0	0	0	0	4.420075	2.062845	8.540317	-0.002033	0.010089	0.009570	-1.090576	-0.622559	-0.354248	-0.332228	-0.257148	-0.025164	-0.907120	14.029836	-26.731325	136.420681	-0.646999	0.615683	0.449807	-0.589799	-0.777982	0.216518	0.483249	-0.125209	0.866483	0	0	0
13526	0	0	0	0	0	4.448044	2.053183	8.523501	0.006010	0.003497	0.001479	-1.102051	-0.622070	-0.361816	-0.332241	-0.257161	-0.025201	-0.907110	14.035162	-26.730922	136.417641	-0.646968	0.615720	0.449801	-0.589797	-0.777962	0.216599	0.483292	-0.125158	0.866466	0	0	0
13527	0	0	0	0	0	4.431057	2.041613	8.537110	-0.001387	0.004224	0.008330	-1.095459	-0.623535	-0.363525	-0.332216	-0.257160	-0.025195	-0.907120	14.033660	-26.731398	136.421060	-0.647002	0.615679	0.449808	-0.589762	-0.777995	0.216576	0.483290	-0.125155	0.866468	0	0	0
13528	0	0	0	0	0	4.447700	2.052809	8.523770	0.001658	0.002440	0.008028	-1.089111	-0.620850	-0.348389	-0.332205	-0.257171	-0.025202	-0.907121	14.034734	-26.732492	136.421932	-0.647006	0.615663	0.449826	-0.589738	-0.778009	0.216590	0.483315	-0.125144	0.866456	0	0	0
13529	0	0	0	0	0	4.434211	2.048607	8.503850	0.000843	0.003819	0.006580	-1.095459	-0.621582	-0.356689	-0.332193	-0.257175	-0.025207	-0.907124	14.035134	-26.732961	136.423242	-0.647017	0.615646	0.449833	-0.589716	-0.778025	0.216595	0.483327	-0.125133	0.866451	0	0	0
13530	0	0	0	0	0	4.455674	2.023804	8.553935	0.003073	0.003414	0.004830	-1.093506	-0.619873	-0.363525	-0.332195	-0.257184	-0.025226	-0.907120	14.037845	-26.733069	136.422275	-0.647006	0.615656	0.449835	-0.589705	-0.778021	0.216636	0.483354	-0.125105	0.866440	0	0	0
13531	0	0	0	0	0	4.417072	2.036817	8.517588	-0.001245	0.003513	0.005886	-1.100342	-0.635742	-0.363525	-0.332183	-0.257185	-0.025222	-0.907124	14.037049	-26.733473	136.423891	-0.647021	0.615635	0.449841	-0.589689	-0.778037	0.216623	0.483353	-0.125107	0.866440	0	0	0
13532	0	0	0	0	0	4.443633	2.044550	8.557807	0.000985	0.003108	0.004136	-1.094727	-0.626221	-0.363770	-0.332190	-0.257192	-0.025231	-0.907119	14.038780	-26.733655	136.422446	-0.647004	0.615651	0.449844	-0.589694	-0.778026	0.216649	0.483370	-0.125097	0.866432	0	0	0
13533	0	0	0	0	0	4.446879	2.051884	8.524421	0.000134	0.003332	0.008180	-1.097168	-0.625977	-0.354492	-0.332180	-0.257195	-0.025229	-0.907122	14.038358	-26.734283	136.423751	-0.647015	0.615633	0.449853	-0.589678	-0.778040	0.216641	0.483375	-0.125099	0.866429	0	0	0
13534	0	0	0	0	0	4.448431	2.076916	8.548142	0.003216	0.002703	0.002385	-1.093018	-0.632080	-0.356934	-0.332192	-0.257207	-0.025250	-0.907114	14.041885	-26.734447	136.421153	-0.646986	0.615661	0.449856	-0.589683	-0.778022	0.216694	0.483408	-0.125074	0.866414	0	0	0
13535	0	0	0	0	0	4.438237	2.080532	8.494695	0.001549	0.004306	0.004982	-1.094727	-0.625488	-0.354492	-0.332193	-0.257211	-0.025261	-0.907112	14.043323	-26.734424	136.420629	-0.646981	0.615667	0.449856	-0.589678	-0.778019	0.216716	0.483421	-0.125059	0.866409	0	0	0
13536	0	0	0	0	0	4.459611	2.055723	8.544825	0.001549	0.004307	0.004982	-1.096924	-0.624756	-0.359619	-0.332196	-0.257213	-0.025274	-0.907110	14.045056	-26.734058	136.419896	-0.646975	0.615677	0.449850	-0.589674	-0.778015	0.216743	0.483434	-0.125038	0.866405	0	0	0
13537	0	0	0	0	0	4.404179	2.057205	8.521988	-0.000538	0.004001	0.004287	-1.092285	-0.627197	-0.359619	-0.332194	-0.257214	-0.025276	-0.907110	14.045318	-26.734092	136.419964	-0.646975	0.615677	0.449850	-0.589671	-0.778016	0.216747	0.483437	-0.125034	0.866404	0	0	0
13538	0	0	0	0	0	4.460677	2.080389	8.568887	-0.000933	0.007290	0.006130	-1.090332	-0.629395	-0.359375	-0.332195	-0.257199	-0.025282	-0.907114	14.045098	-26.732227	136.420410	-0.646991	0.615682	0.449821	-0.589672	-0.778015	0.216747	0.483415	-0.125014	0.866419	0	0	0
13539	0	0	0	0	0	4.445278	2.050851	8.525505	-0.003333	0.003208	0.005193	-1.097168	-0.632080	-0.352539	-0.332208	-0.257198	-0.025266	-0.907110	14.043634	-26.732593	136.418993	-0.646973	0.615696	0.449827	-0.589703	-0.777998	0.216724	0.483401	-0.125049	0.866421	0	0	0
13540	0	0	0	0	0	4.440025	2.017870	8.535547	0.002363	0.002927	0.006431	-1.093262	-0.626953	-0.359131	-0.332203	-0.257208	-0.025278	-0.907108	14.045524	-26.733195	136.418948	-0.646969	0.615693	0.449837	-0.589686	-0.778004	0.216752	0.483427	-0.125030	0.866410	0	0	0
13541	0	0	0	0	0	4.446532	2.075323	8.549517	-0.003164	0.007696	0.007881	-1.088623	-0.629883	-0.364746	-0.332197	-0.257190	-0.025269	-0.907116	14.043217	-26.731679	136.420695	-0.646997	0.615681	0.449813	-0.589685	-0.778013	0.216720	0.483390	-0.125031	0.866430	0	0	0
13542	0	0	0	0	0	4.440962	2.042419	8.559703	0.002965	0.005280	0.001784	-1.093018	-0.625000	-0.349121	-0.332213	-0.257189	-0.025295	-0.907110	14.046587	-26.730327	136.418124	-0.646977	0.615718	0.449792	-0.589696	-0.777990	0.216773	0.483405	-0.124993	0.866428	0	0	0
13543	0	0	0	0	0	4.444201	2.049802	8.526319	-0.003083	0.000631	0.005795	-1.097656	-0.622314	-0.355957	-0.332222	-0.257202	-0.025275	-0.907104	14.045335	-26.732327	136.416844	-0.646952	0.615721	0.449823	-0.589718	-0.777979	0.216750	0.483411	-0.125042	0.866417	0	0	0
13544	0	0	0	0	0	4.466005	2.093502	8.503123	-0.002770	0.004407	0.006039	-1.101074	-0.623291	-0.358398	-0.332225	-0.257196	-0.025268	-0.907104	14.044290	-26.732052	136.416785	-0.646953	0.615723	0.449819	-0.589728	-0.777976	0.216735	0.483397	-0.125054	0.866423	0	0	0
13545	0	0	0	0	0	4.427154	2.037317	8.540160	-0.001811	0.002316	0.005042	-1.091553	-0.625488	-0.359131	-0.332211	-0.257203	-0.025262	-0.907108	14.043602	-26.733210	136.418486	-0.646964	0.615698	0.449837	-0.589708	-0.777995	0.216722	0.483406	-0.125061	0.866417	0	0	0
13546	0	0	0	0	0	4.448884	2.081087	8.516992	-0.002770	0.004407	0.006039	-1.090820	-0.621094	-0.359375	-0.332215	-0.257198	-0.025255	-0.907108	14.042557	-26.732936	136.418428	-0.646965	0.615700	0.449832	-0.589718	-0.777991	0.216707	0.483392	-0.125072	0.866423	0	0	0
13547	0	0	0	0	0	4.418533	2.065077	8.510653	-0.003334	0.003209	0.005193	-1.088623	-0.621338	-0.355957	-0.332220	-0.257196	-0.025240	-0.907107	14.040921	-26.733351	136.418129	-0.646960	0.615701	0.449839	-0.589735	-0.777986	0.216682	0.483379	-0.125101	0.866426	0	0	0
13548	0	0	0	0	0	4.456666	2.051422	8.547394	-0.002062	0.004894	0.004440	-1.089355	-0.624268	-0.354736	-0.332230	-0.257190	-0.025238	-0.907105	14.040695	-26.732583	136.417152	-0.646954	0.615716	0.449827	-0.589752	-0.777973	0.216680	0.483367	-0.125105	0.866433	0	0	0
13549	0	0	0	0	0	4.414686	2.056842	8.544551	0.001798	0.001728	0.005586	-1.092285	-0.627930	-0.352051	-0.332229	-0.257205	-0.025243	-0.907101	14.042132	-26.734017	136.416516	-0.646939	0.615716	0.449849	-0.589745	-0.777973	0.216699	0.483396	-0.125106	0.866416	0	0	0
13550	0	0	0	0	0	4.431249	2.068142	8.531251	-0.001498	0.006092	0.005287	-1.095459	-0.624756	-0.358398	-0.332234	-0.257195	-0.025245	-0.907102	14.041908	-26.732701	136.416252	-0.646943	0.615726	0.449829	-0.589754	-0.777967	0.216698	0.483378	-0.125097	0.866427	0	0	0
13551	0	0	0	0	0	4.444235	2.071681	8.551595	-0.002207	0.005606	0.006886	-1.092773	-0.628662	-0.362305	-0.332228	-0.257187	-0.025239	-0.907107	14.040494	-26.732230	136.417454	-0.646959	0.615715	0.449821	-0.589751	-0.777975	0.216677	0.483361	-0.125101	0.866436	0	0	0
13552	0	0	0	0	0	4.442154	2.046267	8.528234	0.000733	0.005686	0.003537	-1.092529	-0.632568	-0.361084	-0.332238	-0.257181	-0.025252	-0.907104	14.042067	-26.730896	136.416038	-0.646951	0.615738	0.449801	-0.589761	-0.777960	0.216704	0.483360	-0.125078	0.866440	0	0	0
13553	0	0	0	0	0	4.441858	2.046036	8.528444	-0.001249	0.003515	0.005889	-1.083252	-0.625732	-0.359131	-0.332248	-0.257181	-0.025245	-0.907101	14.041570	-26.731088	136.414877	-0.646938	0.615750	0.449804	-0.589780	-0.777948	0.216696	0.483354	-0.125097	0.866441	0	0	0
13554	0	0	0	0	0	4.441715	2.045736	8.528590	0.000274	0.002621	0.005738	-1.093506	-0.627930	-0.359131	-0.332249	-0.257189	-0.025249	-0.907098	14.042478	-26.731764	136.414353	-0.646928	0.615752	0.449814	-0.589778	-0.777946	0.216708	0.483370	-0.125096	0.866432	0	0	0
13555	0	0	0	0	0	4.446757	2.078110	8.518829	-0.001813	0.002317	0.005043	-1.095703	-0.627930	-0.362793	-0.332265	-0.257195	-0.025238	-0.907091	14.041972	-26.732573	136.412374	-0.646902	0.615770	0.449827	-0.589806	-0.777927	0.216699	0.483369	-0.125128	0.866428	0	0	0
13556	0	0	0	0	0	4.429671	2.066221	8.532536	-0.000935	0.007291	0.006134	-1.099365	-0.631836	-0.361328	-0.332265	-0.257179	-0.025243	-0.907095	14.041750	-26.730708	136.412824	-0.646918	0.615775	0.449798	-0.589807	-0.777926	0.216699	0.483347	-0.125107	0.866443	0	0	0
13557	0	0	0	0	0	4.471215	2.060178	8.535764	-0.002377	0.001118	0.004197	-1.093262	-0.636475	-0.363281	-0.332273	-0.257189	-0.025231	-0.907090	14.041159	-26.732089	136.411641	-0.646897	0.615781	0.449819	-0.589825	-0.777916	0.216688	0.483354	-0.125140	0.866435	0	0	0
13558	0	0	0	0	0	4.454211	2.048279	8.549428	-0.001499	0.006093	0.005288	-1.094971	-0.626953	-0.359619	-0.332278	-0.257178	-0.025233	-0.907091	14.040934	-26.730773	136.411378	-0.646902	0.615791	0.449799	-0.589834	-0.777909	0.216687	0.483337	-0.125131	0.866446	0	0	0
13559	0	0	0	0	0	4.427169	2.040060	8.509572	-0.000540	0.004001	0.004291	-1.090332	-0.621338	-0.359131	-0.332293	-0.257177	-0.025233	-0.907086	14.041286	-26.730510	136.409458	-0.646883	0.615815	0.449795	-0.589857	-0.777890	0.216693	0.483333	-0.125140	0.866446	0	0	0
13560	0	0	0	0	0	4.445422	2.076461	8.519928	-0.000540	0.004001	0.004291	-1.095947	-0.625732	-0.364258	-0.332301	-0.257178	-0.025237	-0.907083	14.042036	-26.730217	136.408248	-0.646871	0.615830	0.449790	-0.589868	-0.777878	0.216704	0.483335	-0.125137	0.866446	0	0	0
13561	0	0	0	0	0	4.430187	2.047079	8.476412	-0.001814	0.002317	0.005044	-1.095703	-0.621582	-0.356934	-0.332302	-0.257182	-0.025228	-0.907081	14.041278	-26.731041	136.408235	-0.646867	0.615825	0.449803	-0.589873	-0.777879	0.216691	0.483336	-0.125156	0.866442	0	0	0
13562	0	0	0	0	0	4.439922	2.043033	8.530172	-0.002773	0.004409	0.006042	-1.094727	-0.628418	-0.360352	-0.332305	-0.257177	-0.025221	-0.907082	14.040230	-26.730765	136.408178	-0.646868	0.615828	0.449799	-0.589883	-0.777875	0.216676	0.483322	-0.125168	0.866448	0	0	0
13563	0	0	0	0	0	4.443117	2.050092	8.496913	-0.002773	0.004409	0.006042	-1.095215	-0.621094	-0.354980	-0.332299	-0.257171	-0.025211	-0.907086	14.038633	-26.730736	136.409312	-0.646880	0.615815	0.449798	-0.589881	-0.777883	0.216652	0.483308	-0.125180	0.866455	0	0	0
13564	0	0	0	0	0	4.456285	2.053751	8.517134	0.002359	0.002926	0.006436	-1.094727	-0.633545	-0.357666	-0.332295	-0.257182	-0.025223	-0.907084	14.040518	-26.731339	136.409270	-0.646876	0.615812	0.449808	-0.589864	-0.777888	0.216679	0.483334	-0.125161	0.866443	0	0	0
13565	0	0	0	0	0	4.440930	2.067125	8.554413	-0.001500	0.006094	0.005290	-1.083740	-0.622070	-0.365479	-0.332295	-0.257172	-0.025223	-0.907087	14.039907	-26.730350	136.409624	-0.646885	0.615813	0.449792	-0.589867	-0.777888	0.216672	0.483318	-0.125156	0.866453	0	0	0
13566	0	0	0	0	0	4.413978	2.058715	8.514557	-0.004047	0.002725	0.006795	-1.092285	-0.623291	-0.355469	-0.332296	-0.257173	-0.025206	-0.907087	14.038036	-26.731115	136.409775	-0.646883	0.615808	0.449804	-0.589879	-0.777887	0.216642	0.483307	-0.125188	0.866454	0	0	0
13567	0	0	0	0	0	4.455549	2.052657	8.517782	0.002109	0.005504	0.005835	-1.098877	-0.627686	-0.364014	-0.332296	-0.257169	-0.025217	-0.907087	14.039145	-26.730236	136.409670	-0.646887	0.615814	0.449790	-0.589873	-0.777887	0.216661	0.483309	-0.125164	0.866456	0	0	0
13568	0	0	0	0	0	4.466921	2.031404	8.514367	0.000982	0.003108	0.004141	-1.092773	-0.630615	-0.353027	-0.332304	-0.257176	-0.025227	-0.907082	14.040871	-26.730420	136.408229	-0.646870	0.615829	0.449793	-0.589878	-0.777876	0.216686	0.483325	-0.125155	0.866449	0	0	0
13569	0	0	0	0	0	4.439969	2.065938	8.555199	-0.000687	0.004714	0.006739	-1.088867	-0.629639	-0.359863	-0.332299	-0.257173	-0.025225	-0.907085	14.040398	-26.730298	136.409016	-0.646879	0.615821	0.449791	-0.589872	-0.777883	0.216680	0.483321	-0.125154	0.866451	0	0	0
13570	0	0	0	0	0	4.424643	2.036651	8.511702	0.001545	0.004306	0.004988	-1.097412	-0.619141	-0.356445	-0.332301	-0.257176	-0.025239	-0.907083	14.042126	-26.729934	136.408288	-0.646873	0.615831	0.449786	-0.589868	-0.777878	0.216706	0.483333	-0.125133	0.866447	0	0	0
13571	0	0	0	0	0	4.426104	2.061529	8.535522	-0.002628	0.003698	0.003596	-1.086670	-0.625977	-0.361084	-0.332310	-0.257174	-0.025231	-0.907081	14.041361	-26.729944	136.407428	-0.646864	0.615840	0.449786	-0.589886	-0.777868	0.216695	0.483323	-0.125150	0.866450	0	0	0
13572	0	0	0	0	0	4.442704	2.072798	8.522238	0.000981	0.003108	0.004141	-1.093750	-0.622070	-0.355957	-0.332317	-0.257180	-0.025240	-0.907076	14.043086	-26.730128	136.405987	-0.646848	0.615856	0.449789	-0.589890	-0.777857	0.216721	0.483340	-0.125141	0.866442	0	0	0
13573	0	0	0	0	0	4.440842	2.047458	8.498737	0.000125	0.003334	0.008188	-1.097656	-0.624756	-0.358887	-0.332306	-0.257185	-0.025237	-0.907079	14.042641	-26.730905	136.407295	-0.646857	0.615837	0.449801	-0.589874	-0.777871	0.216712	0.483347	-0.125144	0.866438	0	0	0
13574	0	0	0	0	0	4.455714	2.076296	8.542581	0.001545	0.004306	0.004989	-1.089600	-0.625977	-0.356934	-0.332309	-0.257187	-0.025250	-0.907077	14.044367	-26.730541	136.406568	-0.646851	0.615847	0.449795	-0.589871	-0.777867	0.216739	0.483359	-0.125123	0.866434	0	0	0
13575	0	0	0	0	0	4.442190	2.072115	8.522671	-0.001816	0.002318	0.005045	-1.096680	-0.615967	-0.357666	-0.332310	-0.257193	-0.025242	-0.907075	14.043796	-26.731530	136.406295	-0.646843	0.615845	0.449811	-0.589876	-0.777865	0.216729	0.483363	-0.125143	0.866429	0	0	0
13576	0	0	0	0	0	4.411925	2.056431	8.516172	0.002357	0.002926	0.006438	-1.092773	-0.621338	-0.359131	-0.332305	-0.257203	-0.025255	-0.907073	14.045679	-26.732134	136.406256	-0.646839	0.615842	0.449820	-0.589859	-0.777871	0.216756	0.483389	-0.125124	0.866417	0	0	0
13577	0	0	0	0	0	4.457000	2.058114	8.485837	-0.000542	0.004002	0.004293	-1.099121	-0.619141	-0.356689	-0.332295	-0.257203	-0.025258	-0.907077	14.045664	-26.732140	136.407602	-0.646854	0.615827	0.449820	-0.589841	-0.777884	0.216756	0.483392	-0.125113	0.866417	0	0	0
13578	0	0	0	0	0	4.428263	2.067546	8.503066	0.000022	0.005201	0.005140	-1.086914	-0.630127	-0.356201	-0.332298	-0.257199	-0.025265	-0.907077	14.046412	-26.731300	136.407110	-0.646853	0.615837	0.449807	-0.589844	-0.777879	0.216769	0.483389	-0.125099	0.866421	0	0	0
13579	0	0	0	0	0	4.452858	2.050026	8.519823	-0.001501	0.006095	0.005292	-1.086426	-0.623291	-0.354492	-0.332298	-0.257189	-0.025264	-0.907080	14.045720	-26.730281	136.407591	-0.646864	0.615837	0.449791	-0.589846	-0.777880	0.216760	0.483372	-0.125093	0.866431	0	0	0
13580	0	0	0	0	0	4.440854	2.070974	8.523645	0.002108	0.005504	0.005838	-1.084473	-0.627197	-0.366211	-0.332296	-0.257187	-0.025281	-0.907081	14.047447	-26.729369	136.407580	-0.646869	0.615842	0.449777	-0.589834	-0.777881	0.216788	0.483380	-0.125060	0.866432	0	0	0
13581	0	0	0	0	0	4.440664	2.070887	8.523765	0.001792	0.001728	0.005591	-1.097656	-0.628174	-0.360596	-0.332308	-0.257200	-0.025283	-0.907073	14.048827	-26.730480	136.405445	-0.646840	0.615860	0.449794	-0.589848	-0.777865	0.216807	0.483402	-0.125071	0.866418	0	0	0
13582	0	0	0	0	0	4.440603	2.070516	8.523887	-0.004050	0.002727	0.006796	-1.095459	-0.627441	-0.360107	-0.332309	-0.257200	-0.025266	-0.907072	14.046952	-26.731244	136.405597	-0.646837	0.615854	0.449806	-0.589860	-0.777864	0.216777	0.483391	-0.125103	0.866419	0	0	0
13583	0	0	0	0	0	4.421808	2.033398	8.513952	-0.001501	0.006095	0.005292	-1.092773	-0.625000	-0.358154	-0.332308	-0.257189	-0.025266	-0.907076	14.046203	-26.730090	136.406170	-0.646850	0.615854	0.449788	-0.589862	-0.777866	0.216768	0.483372	-0.125097	0.866431	0	0	0
13584	0	0	0	0	0	4.440053	2.069584	8.524400	-0.001401	0.004229	0.008341	-1.090332	-0.623047	-0.361816	-0.332300	-0.257187	-0.025261	-0.907080	14.045309	-26.730234	136.407518	-0.646863	0.615838	0.449790	-0.589851	-0.777878	0.216754	0.483367	-0.125099	0.866433	0	0	0
13585	0	0	0	0	0	4.456617	2.080724	8.511181	0.000021	0.005201	0.005142	-1.092041	-0.618652	-0.362061	-0.332301	-0.257182	-0.025265	-0.907081	14.045467	-26.729507	136.407494	-0.646867	0.615842	0.449779	-0.589852	-0.777876	0.216758	0.483361	-0.125089	0.866438	0	0	0
13586	0	0	0	0	0	4.422712	2.057224	8.538318	-0.005574	0.003623	0.006947	-1.085938	-0.615479	-0.363525	-0.332303	-0.257176	-0.025242	-0.907082	14.042614	-26.729795	136.407880	-0.646870	0.615836	0.449784	-0.589870	-0.777875	0.216714	0.483335	-0.125128	0.866447	0	0	0
13587	0	0	0	0	0	4.439374	2.068072	8.525121	-0.003340	0.003214	0.005197	-1.098877	-0.626221	-0.354736	-0.332302	-0.257172	-0.025227	-0.907084	14.040658	-26.730062	136.408503	-0.646875	0.615828	0.449788	-0.589877	-0.777877	0.216684	0.483320	-0.125152	0.866452	0	0	0
13588	0	0	0	0	0	4.439232	2.067771	8.525267	0.002355	0.002925	0.006441	-1.098877	-0.626465	-0.360596	-0.332297	-0.257182	-0.025240	-0.907082	14.042538	-26.730667	136.408466	-0.646871	0.615825	0.449797	-0.589860	-0.777883	0.216711	0.483346	-0.125133	0.866440	0	0	0
13589	0	0	0	0	0	4.465649	2.032628	8.484869	-0.003172	0.007703	0.007892	-1.089600	-0.624756	-0.356689	-0.332279	-0.257163	-0.025232	-0.907095	14.040024	-26.729170	136.411835	-0.646916	0.615795	0.449774	-0.589840	-0.777908	0.216676	0.483311	-0.125123	0.866461	0	0	0
13590	0	0	0	0	0	4.435136	2.059490	8.559260	0.000416	0.001910	0.003296	-1.088135	-0.626953	-0.358398	-0.332291	-0.257174	-0.025239	-0.907087	14.041744	-26.729903	136.409684	-0.646889	0.615815	0.449785	-0.589852	-0.777891	0.216701	0.483332	-0.125126	0.866449	0	0	0
13591	0	0	0	0	0	4.451716	2.070747	8.546011	-0.001502	0.006096	0.005294	-1.097656	-0.620117	-0.359863	-0.332302	-0.257163	-0.025236	-0.907086	14.041112	-26.728744	136.408773	-0.646885	0.615832	0.449767	-0.589873	-0.777878	0.216693	0.483310	-0.125130	0.866460	0	0	0
13592	0	0	0	0	0	4.451384	2.070446	8.546257	-0.000543	0.004003	0.004295	-1.084961	-0.619385	-0.356445	-0.332310	-0.257164	-0.025240	-0.907083	14.041856	-26.728452	136.407569	-0.646874	0.615847	0.449763	-0.589884	-0.777866	0.216705	0.483312	-0.125127	0.866460	0	0	0
13593	0	0	0	0	0	4.449481	2.044968	8.522802	-0.001967	0.003032	0.007495	-1.095947	-0.622314	-0.363281	-0.332296	-0.257166	-0.025229	-0.907088	14.040296	-26.729379	136.409586	-0.646891	0.615819	0.449777	-0.589867	-0.777886	0.216680	0.483311	-0.125141	0.866459	0	0	0
13594	0	0	0	0	0	4.420887	2.054161	8.540000	-0.001403	0.004230	0.008343	-1.094727	-0.629395	-0.361816	-0.332287	-0.257164	-0.025224	-0.907092	14.039398	-26.729524	136.410937	-0.646904	0.615803	0.449779	-0.589856	-0.777898	0.216666	0.483306	-0.125143	0.866461	0	0	0
13595	0	0	0	0	0	4.465982	2.055605	8.509749	0.000831	0.003820	0.006593	-1.092285	-0.624268	-0.363525	-0.332278	-0.257166	-0.025228	-0.907095	14.039669	-26.729710	136.411989	-0.646914	0.615790	0.449782	-0.589839	-0.777910	0.216670	0.483313	-0.125132	0.866458	0	0	0
13596	0	0	0	0	0	4.435510	2.039763	8.503371	-0.003737	0.006506	0.007045	-1.090576	-0.623779	-0.360107	-0.332277	-0.257150	-0.025218	-0.907100	14.037638	-26.728409	136.412887	-0.646932	0.615787	0.449762	-0.589847	-0.777912	0.216641	0.483280	-0.125139	0.866476	0	0	0
13597	0	0	0	0	0	4.461951	2.047518	8.543654	0.006258	0.000908	0.002093	-1.097900	-0.620850	-0.356201	-0.332286	-0.257173	-0.025247	-0.907089	14.042485	-26.729563	136.410121	-0.646895	0.615812	0.449780	-0.589841	-0.777897	0.216713	0.483336	-0.125108	0.866449	0	0	0
13598	0	0	0	0	0	4.423493	2.060896	8.507163	-0.000129	0.005914	0.007593	-1.083008	-0.621094	-0.360107	-0.332279	-0.257166	-0.025252	-0.907094	14.042409	-26.728667	136.411266	-0.646913	0.615804	0.449766	-0.589829	-0.777906	0.216713	0.483328	-0.125090	0.866456	0	0	0
13599	0	0	0	0	0	4.451751	2.050709	8.490383	-0.002680	0.002547	0.009095	-1.094238	-0.629395	-0.348389	-0.332263	-0.257169	-0.025234	-0.907099	14.040086	-26.730060	136.413659	-0.646930	0.615770	0.449788	-0.589812	-0.777929	0.216675	0.483325	-0.125116	0.866454	0	0	0
13600	0	0	0	0	0	4.453494	2.075312	8.514137	-0.001009	0.000939	0.006497	-1.084961	-0.618164	-0.362305	-0.332262	-0.257183	-0.025228	-0.907095	14.040161	-26.731777	136.413349	-0.646917	0.615764	0.449814	-0.589811	-0.777931	0.216673	0.483344	-0.125136	0.866441	0	0	0
13601	0	0	0	0	0	4.423140	2.059538	8.507675	-0.001503	0.006097	0.005296	-1.090576	-0.625977	-0.357422	-0.332267	-0.257173	-0.025226	-0.907096	14.039532	-26.730752	136.413106	-0.646921	0.615772	0.449798	-0.589822	-0.777924	0.216666	0.483326	-0.125136	0.866451	0	0	0
13602	0	0	0	0	0	4.439578	2.070658	8.494547	-0.001503	0.006097	0.005296	-1.093750	-0.632813	-0.365723	-0.332272	-0.257163	-0.025228	-0.907098	14.039299	-26.729435	136.412851	-0.646925	0.615782	0.449778	-0.589831	-0.777918	0.216665	0.483308	-0.125127	0.866462	0	0	0
13603	0	0	0	0	0	4.447331	2.041402	8.524779	-0.004865	0.004112	0.005349	-1.094238	-0.624023	-0.357422	-0.332288	-0.257154	-0.025206	-0.907095	14.036830	-26.729239	136.411577	-0.646913	0.615797	0.449775	-0.589870	-0.777899	0.216628	0.483278	-0.125169	0.866473	0	0	0
13604	0	0	0	0	0	4.460290	2.044817	8.545169	-0.000940	0.007295	0.006145	-1.086426	-0.624512	-0.353760	-0.332288	-0.257139	-0.025212	-0.907099	14.036598	-26.727374	136.412037	-0.646928	0.615802	0.449746	-0.589871	-0.777898	0.216628	0.483256	-0.125149	0.866488	0	0	0
13605	0	0	0	0	0	4.433266	2.036614	8.505295	-0.002631	0.003702	0.003599	-1.090088	-0.623535	-0.354248	-0.332302	-0.257138	-0.025203	-0.907094	14.035967	-26.727449	136.410473	-0.646911	0.615820	0.449747	-0.589897	-0.777881	0.216618	0.483247	-0.125172	0.866490	0	0	0
13606	0	0	0	0	0	4.463118	2.051906	8.512145	0.002966	0.005277	0.001796	-1.096924	-0.630127	-0.356445	-0.332317	-0.257138	-0.025228	-0.907088	14.039332	-26.726102	136.407913	-0.646891	0.615856	0.449726	-0.589907	-0.777858	0.216671	0.483261	-0.125134	0.866487	0	0	0
13607	0	0	0	0	0	4.432644	2.036411	8.505669	-0.001257	0.003518	0.005897	-1.096924	-0.636230	-0.358643	-0.332316	-0.257141	-0.025223	-0.907088	14.038920	-26.726648	136.407964	-0.646889	0.615852	0.449734	-0.589908	-0.777859	0.216664	0.483263	-0.125145	0.866485	0	0	0
13608	0	0	0	0	0	4.435852	2.086381	8.553140	0.000168	0.004489	0.002698	-1.088379	-0.620117	-0.358643	-0.332331	-0.257140	-0.025234	-0.907082	14.040484	-26.725864	136.405842	-0.646870	0.615880	0.449722	-0.589926	-0.777839	0.216689	0.483266	-0.125133	0.866485	0	0	0
13609	0	0	0	0	0	4.447118	2.064952	8.549806	-0.002068	0.004900	0.004448	-1.090820	-0.630859	-0.364014	-0.332343	-0.257134	-0.025228	-0.907080	14.039857	-26.725260	136.404651	-0.646861	0.615897	0.449713	-0.589949	-0.777823	0.216681	0.483250	-0.125145	0.866492	0	0	0
13610	0	0	0	0	0	4.446945	2.064509	8.550003	-0.002534	0.001835	0.006648	-1.097168	-0.621338	-0.358398	-0.332343	-0.257141	-0.025217	-0.907078	14.038953	-26.726500	136.404575	-0.646853	0.615891	0.449732	-0.589954	-0.777824	0.216665	0.483254	-0.125171	0.866486	0	0	0
13611	0	0	0	0	0	4.463740	2.075614	8.536705	0.000264	0.002623	0.005747	-1.097656	-0.624756	-0.357178	-0.332341	-0.257148	-0.025217	-0.907077	14.039287	-26.727274	136.404597	-0.646849	0.615887	0.449744	-0.589949	-0.777827	0.216669	0.483266	-0.125174	0.866478	0	0	0
13612	0	0	0	0	0	4.461825	2.049946	8.513295	-0.005166	0.005538	0.010248	-1.098389	-0.624512	-0.362793	-0.332328	-0.257134	-0.025195	-0.907086	14.035608	-26.726956	136.407337	-0.646880	0.615858	0.449739	-0.589944	-0.777846	0.216613	0.483231	-0.125198	0.866495	0	0	0
13613	0	0	0	0	0	4.444902	2.037963	8.526869	0.000660	-0.000669	0.003898	-1.098633	-0.626953	-0.357178	-0.332324	-0.257157	-0.025196	-0.907081	14.036873	-26.729449	136.406976	-0.646862	0.615848	0.449778	-0.589931	-0.777852	0.216628	0.483271	-0.125210	0.866471	0	0	0
13614	0	0	0	0	0	4.475032	2.053096	8.533620	-0.002631	0.003703	0.003600	-1.092773	-0.627441	-0.348633	-0.332338	-0.257155	-0.025191	-0.907077	14.036635	-26.729228	136.405293	-0.646845	0.615868	0.449775	-0.589957	-0.777833	0.216625	0.483262	-0.125225	0.866474	0	0	0
13615	0	0	0	0	0	4.444595	2.037207	8.527209	-0.002931	0.005128	0.008498	-1.087158	-0.627686	-0.356689	-0.332324	-0.257149	-0.025179	-0.907084	14.034491	-26.729382	136.407685	-0.646870	0.615841	0.449777	-0.589942	-0.777854	0.216592	0.483247	-0.125236	0.866481	0	0	0
13616	0	0	0	0	0	4.444336	2.036774	8.527448	-0.000546	0.004004	0.004299	-1.085938	-0.614014	-0.354248	-0.332332	-0.257149	-0.025183	-0.907081	14.035232	-26.729091	136.406484	-0.646859	0.615856	0.449773	-0.589953	-0.777842	0.216604	0.483249	-0.125233	0.866480	0	0	0
13617	0	0	0	0	0	4.430799	2.032565	8.507549	-0.001259	0.003519	0.005899	-1.095947	-0.615967	-0.358398	-0.332335	-0.257151	-0.025176	-0.907079	14.034669	-26.729535	136.406155	-0.646853	0.615857	0.449779	-0.589961	-0.777839	0.216594	0.483247	-0.125248	0.866479	0	0	0
13618	0	0	0	0	0	4.474046	2.051548	8.534509	0.000018	0.005202	0.005148	-1.096436	-0.627686	-0.359375	-0.332339	-0.257147	-0.025184	-0.907079	14.035411	-26.728696	136.405670	-0.646852	0.615867	0.449766	-0.589963	-0.777833	0.216607	0.483244	-0.125233	0.866482	0	0	0
13619	0	0	0	0	0	4.456877	2.039648	8.548184	-0.002932	0.005128	0.008499	-1.091553	-0.631592	-0.351563	-0.332317	-0.257139	-0.025172	-0.907090	14.032882	-26.728632	136.409218	-0.646891	0.615827	0.449765	-0.589937	-0.777864	0.216569	0.483225	-0.125237	0.866492	0	0	0
13620	0	0	0	0	0	4.443293	2.035520	8.528291	0.003776	0.003894	0.003248	-1.091309	-0.623535	-0.359863	-0.332324	-0.257146	-0.025197	-0.907084	14.036400	-26.728256	136.407346	-0.646873	0.615851	0.449760	-0.589934	-0.777851	0.216623	0.483253	-0.125201	0.866482	0	0	0
13621	0	0	0	0	0	4.448255	2.068214	8.518602	-0.001205	0.004673	0.000400	-1.101074	-0.627686	-0.355225	-0.332354	-0.257143	-0.025200	-0.907074	14.037502	-26.727316	136.403440	-0.646836	0.615900	0.449745	-0.589980	-0.777811	0.216641	0.483246	-0.125209	0.866485	0	0	0
13622	0	0	0	0	0	4.459509	2.046643	8.515303	-0.002933	0.005128	0.008499	-1.092529	-0.631348	-0.356934	-0.332347	-0.257135	-0.025190	-0.907079	14.035620	-26.726983	136.405029	-0.646855	0.615884	0.449740	-0.589975	-0.777823	0.216614	0.483226	-0.125218	0.866495	0	0	0
13623	0	0	0	0	0	4.464546	2.078740	8.505723	-0.002782	0.004416	0.006050	-1.097412	-0.625000	-0.356934	-0.332346	-0.257131	-0.025180	-0.907081	14.034250	-26.727040	136.405465	-0.646860	0.615878	0.449741	-0.589981	-0.777824	0.216593	0.483214	-0.125233	0.866499	0	0	0
13624	0	0	0	0	0	4.430474	2.055431	8.532804	-0.001355	0.005386	0.002850	-1.093262	-0.618408	-0.355713	-0.332362	-0.257123	-0.025184	-0.907077	14.034836	-26.725780	136.403579	-0.646846	0.615906	0.449721	-0.590005	-0.777803	0.216604	0.483202	-0.125228	0.866507	0	0	0
13625	0	0	0	0	0	4.460336	2.070422	8.539745	-0.002783	0.004416	0.006050	-1.097168	-0.635498	-0.359619	-0.332352	-0.257119	-0.025175	-0.907082	14.033212	-26.725861	136.405318	-0.646865	0.615886	0.449722	-0.589995	-0.777817	0.216579	0.483190	-0.125236	0.866512	0	0	0
13626	0	0	0	0	0	4.429852	2.054691	8.533305	0.000016	0.005202	0.005150	-1.095703	-0.628174	-0.358887	-0.332355	-0.257115	-0.025183	-0.907082	14.033952	-26.725022	136.404834	-0.646864	0.615896	0.449709	-0.589997	-0.777812	0.216592	0.483187	-0.125221	0.866516	0	0	0
13627	0	0	0	0	0	4.454396	2.036965	8.550117	-0.002371	0.006327	0.009350	-1.096191	-0.632813	-0.360352	-0.332344	-0.257102	-0.025172	-0.907090	14.031739	-26.724306	136.406965	-0.646891	0.615876	0.449698	-0.589989	-0.777827	0.216560	0.483161	-0.125226	0.866530	0	0	0
13628	0	0	0	0	0	4.457739	2.044304	8.516791	0.002649	0.001498	0.001549	-1.097412	-0.623291	-0.353027	-0.332361	-0.257119	-0.025190	-0.907078	14.035254	-26.725026	136.403664	-0.646852	0.615910	0.449709	-0.590002	-0.777803	0.216612	0.483198	-0.125214	0.866511	0	0	0
13629	0	0	0	0	0	4.415954	2.050036	8.513701	-0.001016	0.000940	0.006500	-1.097900	-0.624756	-0.368408	-0.332355	-0.257133	-0.025182	-0.907077	14.034942	-26.727056	136.404108	-0.646845	0.615894	0.449741	-0.589993	-0.777812	0.216603	0.483218	-0.125235	0.866497	0	0	0
13630	0	0	0	0	0	4.457539	2.043824	8.517011	-0.001506	0.006099	0.005301	-1.093262	-0.624023	-0.353271	-0.332360	-0.257123	-0.025184	-0.907078	14.034705	-26.725740	136.403858	-0.646850	0.615904	0.449720	-0.590002	-0.777805	0.216602	0.483201	-0.125227	0.866507	0	0	0
13631	0	0	0	0	0	4.427088	2.028036	8.510562	-0.001976	0.003035	0.007501	-1.091553	-0.629395	-0.362305	-0.332348	-0.257124	-0.025173	-0.907082	14.033175	-26.726571	136.405627	-0.646864	0.615879	0.449733	-0.589989	-0.777822	0.216577	0.483198	-0.125241	0.866507	0	0	0
13632	0	0	0	0	0	4.458837	2.068052	8.541101	-0.000698	0.004717	0.006751	-1.098145	-0.631348	-0.362793	-0.332345	-0.257121	-0.025175	-0.907084	14.033091	-26.726225	136.406064	-0.646871	0.615876	0.449728	-0.589984	-0.777826	0.216577	0.483194	-0.125235	0.866510	0	0	0
13633	0	0	0	0	0	4.445269	2.063862	8.521215	-0.000547	0.004005	0.004301	-1.093994	-0.631836	-0.359619	-0.332357	-0.257120	-0.025174	-0.907080	14.033359	-26.725939	136.404536	-0.646856	0.615895	0.449723	-0.590004	-0.777810	0.216581	0.483191	-0.125242	0.866511	0	0	0
13634	0	0	0	0	0	4.458241	2.067524	8.541540	0.000579	0.006400	0.006002	-1.090332	-0.629395	-0.358643	-0.332356	-0.257111	-0.025185	-0.907083	14.034099	-26.724553	136.404768	-0.646866	0.615900	0.449702	-0.589998	-0.777810	0.216595	0.483184	-0.125215	0.866519	0	0	0
13635	0	0	0	0	0	4.444596	2.063139	8.521741	-0.005022	0.004830	0.007802	-1.091309	-0.621826	-0.365723	-0.332362	-0.257101	-0.025161	-0.907084	14.030902	-26.724393	136.404981	-0.646869	0.615898	0.449699	-0.590023	-0.777805	0.216547	0.483149	-0.125255	0.866532	0	0	0
13636	0	0	0	0	0	4.427535	2.051372	8.535306	0.002649	0.001498	0.001550	-1.092773	-0.629150	-0.363037	-0.332379	-0.257117	-0.025179	-0.907073	14.034416	-26.725114	136.401680	-0.646830	0.615932	0.449711	-0.590036	-0.777781	0.216599	0.483186	-0.125243	0.866513	0	0	0
13637	0	0	0	0	0	4.413943	2.047375	8.515384	-0.002878	0.006284	0.003002	-1.090820	-0.625732	-0.358154	-0.332397	-0.257101	-0.025173	-0.907071	14.033363	-26.723302	136.400088	-0.646823	0.615959	0.449682	-0.590071	-0.777757	0.216586	0.483152	-0.125251	0.866531	0	0	0
13638	0	0	0	0	0	4.472151	2.052598	8.505449	-0.001507	0.006100	0.005303	-1.093262	-0.631104	-0.356201	-0.332402	-0.257090	-0.025175	-0.907072	14.033125	-26.721985	136.399839	-0.646828	0.615969	0.449662	-0.590080	-0.777751	0.216585	0.483135	-0.125243	0.866542	0	0	0
13639	0	0	0	0	0	4.426584	2.050527	8.536002	-0.000455	0.002138	0.007351	-1.092285	-0.622559	-0.365723	-0.332400	-0.257100	-0.025168	-0.907070	14.032848	-26.723366	136.399867	-0.646820	0.615961	0.449683	-0.590078	-0.777754	0.216579	0.483147	-0.125261	0.866533	0	0	0
13640	0	0	0	0	0	4.430072	2.057792	8.502633	-0.001111	0.002808	0.003451	-1.097412	-0.622070	-0.361572	-0.332413	-0.257104	-0.025169	-0.907064	14.033585	-26.723623	136.397953	-0.646798	0.615982	0.449687	-0.590097	-0.777736	0.216589	0.483153	-0.125270	0.866528	0	0	0
13641	0	0	0	0	0	4.446793	2.068938	8.489402	-0.001263	0.003520	0.005902	-1.099365	-0.629883	-0.358398	-0.332406	-0.257103	-0.025164	-0.907067	14.032738	-26.723865	136.399063	-0.646809	0.615968	0.449691	-0.590089	-0.777747	0.216576	0.483150	-0.125274	0.866529	0	0	0
13642	0	0	0	0	0	4.439317	2.053563	8.556601	0.000730	0.005687	0.003553	-1.089355	-0.623535	-0.361328	-0.332415	-0.257098	-0.025178	-0.907065	14.034299	-26.722534	136.397661	-0.646801	0.615991	0.449670	-0.590098	-0.777732	0.216602	0.483148	-0.125251	0.866533	0	0	0
13643	0	0	0	0	0	4.455879	2.064849	8.543420	-0.000548	0.004005	0.004302	-1.092041	-0.623047	-0.366943	-0.332421	-0.257098	-0.025178	-0.907063	14.034539	-26.722400	136.396886	-0.646794	0.616000	0.449668	-0.590107	-0.777724	0.216606	0.483147	-0.125253	0.866534	0	0	0
13644	0	0	0	0	0	4.438692	2.053090	8.557039	-0.002071	0.004903	0.004453	-1.089600	-0.629150	-0.363037	-0.332431	-0.257091	-0.025177	-0.907061	14.034298	-26.721631	136.395922	-0.646788	0.616015	0.449656	-0.590124	-0.777712	0.216604	0.483134	-0.125256	0.866540	0	0	0
13645	0	0	0	0	0	4.442066	2.060296	8.523748	0.000106	0.003336	0.008203	-1.094727	-0.629883	-0.363281	-0.332425	-0.257094	-0.025172	-0.907063	14.033725	-26.722143	136.396746	-0.646794	0.616003	0.449664	-0.590117	-0.777721	0.216594	0.483136	-0.125263	0.866539	0	0	0
13646	0	0	0	0	0	4.441919	2.059934	8.523912	-0.001264	0.003521	0.005903	-1.090332	-0.622070	-0.364990	-0.332427	-0.257095	-0.025170	-0.907062	14.033637	-26.722344	136.396469	-0.646790	0.616005	0.449667	-0.590121	-0.777718	0.216592	0.483137	-0.125268	0.866537	0	0	0
13647	0	0	0	0	0	4.453142	2.038287	8.520637	-0.003031	0.006998	0.005455	-1.094971	-0.630859	-0.368408	-0.332433	-0.257075	-0.025162	-0.907065	14.031791	-26.720511	136.396577	-0.646801	0.616014	0.449639	-0.590140	-0.777710	0.216568	0.483098	-0.125273	0.866558	0	0	0
13648	0	0	0	0	0	4.424359	2.047675	8.537840	-0.001112	0.002808	0.003452	-1.097168	-0.629150	-0.358643	-0.332446	-0.257080	-0.025163	-0.907059	14.032526	-26.720767	136.394665	-0.646779	0.616034	0.449643	-0.590159	-0.777693	0.216579	0.483104	-0.125282	0.866554	0	0	0
13649	0	0	0	0	0	4.441009	2.058752	8.524672	-0.002224	0.005616	0.006905	-1.097900	-0.625977	-0.365234	-0.332445	-0.257069	-0.025155	-0.907063	14.030951	-26.719967	136.395414	-0.646792	0.616030	0.449630	-0.590164	-0.777695	0.216556	0.483080	-0.125289	0.866566	0	0	0
13650	0	0	0	0	0	4.452266	2.037172	8.521361	-0.000549	0.004006	0.004303	-1.093994	-0.622559	-0.360596	-0.332453	-0.257069	-0.025159	-0.907060	14.031686	-26.719676	136.394217	-0.646780	0.616045	0.449626	-0.590175	-0.777684	0.216568	0.483082	-0.125286	0.866565	0	0	0
13651	0	0	0	0	0	4.451933	2.037005	8.521575	0.000729	0.005688	0.003554	-1.097900	-0.629150	-0.360352	-0.332455	-0.257062	-0.025170	-0.907061	14.032577	-26.718444	136.394058	-0.646786	0.616054	0.449607	-0.590173	-0.777681	0.216584	0.483078	-0.125262	0.866571	0	0	0
13652	0	0	0	0	0	4.456993	2.069566	8.511919	0.000973	0.003108	0.004153	-1.089844	-0.623535	-0.358154	-0.332462	-0.257069	-0.025179	-0.907056	14.034289	-26.718631	136.392628	-0.646769	0.616069	0.449609	-0.590177	-0.777670	0.216609	0.483094	-0.125253	0.866563	0	0	0
13653	0	0	0	0	0	4.426527	2.054021	8.505390	-0.000140	0.005916	0.007606	-1.102295	-0.627197	-0.360840	-0.332452	-0.257062	-0.025181	-0.907062	14.033727	-26.717934	136.394211	-0.646790	0.616055	0.449599	-0.590163	-0.777683	0.216602	0.483084	-0.125240	0.866571	0	0	0
13654	0	0	0	0	0	4.441274	2.082614	8.549396	-0.002635	0.003706	0.003603	-1.098633	-0.630127	-0.361084	-0.332466	-0.257059	-0.025176	-0.907057	14.033484	-26.717711	136.392532	-0.646774	0.616075	0.449595	-0.590188	-0.777665	0.216599	0.483076	-0.125255	0.866573	0	0	0
13655	0	0	0	0	0	4.450860	2.036007	8.522375	0.000819	0.003821	0.006605	-1.097412	-0.630371	-0.358398	-0.332452	-0.257063	-0.025181	-0.907061	14.033862	-26.718069	136.394071	-0.646788	0.616056	0.449601	-0.590163	-0.777683	0.216604	0.483087	-0.125241	0.866569	0	0	0
13656	0	0	0	0	0	4.452300	2.060739	8.546278	-0.001663	0.006814	0.007757	-1.093262	-0.630127	-0.361572	-0.332446	-0.257049	-0.025180	-0.907067	14.032797	-26.716696	136.395461	-0.646811	0.616047	0.449579	-0.590157	-0.777691	0.216590	0.483064	-0.125229	0.866584	0	0	0
13657	0	0	0	0	0	4.463507	2.039024	8.543024	-0.002788	0.004420	0.006055	-1.097656	-0.625732	-0.365234	-0.332451	-0.257044	-0.025169	-0.907068	14.031343	-26.716580	136.395334	-0.646810	0.616049	0.449577	-0.590171	-0.777686	0.216569	0.483047	-0.125249	0.866590	0	0	0
13658	0	0	0	0	0	4.446375	2.027277	8.556592	0.000972	0.003108	0.004154	-1.096924	-0.625977	-0.360840	-0.332458	-0.257051	-0.025179	-0.907063	14.033054	-26.716767	136.393905	-0.646794	0.616064	0.449580	-0.590176	-0.777676	0.216594	0.483064	-0.125240	0.866582	0	0	0
13659	0	0	0	0	0	4.421322	2.044458	8.540184	-0.000550	0.004006	0.004305	-1.098145	-0.622314	-0.362305	-0.332458	-0.257050	-0.025180	-0.907063	14.033156	-26.716584	136.393883	-0.646794	0.616066	0.449578	-0.590176	-0.777675	0.216596	0.483063	-0.125237	0.866583	0	0	0
13660	0	0	0	0	0	4.449722	2.034368	8.523360	-0.001586	-0.000256	0.005652	-1.093750	-0.626709	-0.356201	-0.332462	-0.257067	-0.025171	-0.907057	14.033218	-26.718849	136.392863	-0.646771	0.616065	0.449613	-0.590183	-0.777671	0.216593	0.483086	-0.125268	0.866566	0	0	0
13661	0	0	0	0	0	4.413242	2.072572	8.510490	-0.000141	0.005917	0.007608	-1.092773	-0.622070	-0.367920	-0.332446	-0.257060	-0.025173	-0.907065	14.032580	-26.718204	136.395232	-0.646800	0.616042	0.449603	-0.590158	-0.777692	0.216584	0.483078	-0.125250	0.866573	0	0	0
13662	0	0	0	0	0	4.462536	2.037628	8.543865	-0.001203	0.004676	0.000403	-1.096191	-0.626953	-0.364990	-0.332473	-0.257056	-0.025180	-0.907056	14.033984	-26.716998	136.391714	-0.646769	0.616088	0.449584	-0.590197	-0.777656	0.216608	0.483071	-0.125248	0.866577	0	0	0
13663	0	0	0	0	0	4.437457	2.054940	8.527441	0.002494	0.002209	0.004005	-1.090820	-0.629639	-0.361084	-0.332475	-0.257066	-0.025192	-0.907052	14.035921	-26.717592	136.390796	-0.646756	0.616095	0.449593	-0.590191	-0.777652	0.216636	0.483096	-0.125236	0.866565	0	0	0
13664	0	0	0	0	0	4.437272	2.054778	8.527576	-0.000704	0.004719	0.006757	-1.102783	-0.628418	-0.358398	-0.332472	-0.257063	-0.025193	-0.907054	14.035830	-26.717245	136.391239	-0.646762	0.616092	0.449588	-0.590187	-0.777656	0.216635	0.483092	-0.125229	0.866568	0	0	0
13665	0	0	0	0	0	4.450376	2.058345	8.547857	0.000255	0.002624	0.005755	-1.096680	-0.623291	-0.359375	-0.332469	-0.257071	-0.025194	-0.907052	14.036289	-26.718136	136.391209	-0.646757	0.616088	0.449602	-0.590181	-0.777659	0.216641	0.483106	-0.125233	0.866559	0	0	0
13666	0	0	0	0	0	4.450154	2.058113	8.548028	0.000012	0.005204	0.005157	-1.095215	-0.625977	-0.365479	-0.332473	-0.257067	-0.025201	-0.907052	14.037022	-26.717297	136.390731	-0.646757	0.616097	0.449589	-0.590184	-0.777653	0.216653	0.483104	-0.125218	0.866563	0	0	0
13667	0	0	0	0	0	4.434776	2.029072	8.504454	0.002251	0.004789	0.003407	-1.092529	-0.622559	-0.366211	-0.332474	-0.257067	-0.025218	-0.907051	14.038919	-26.716566	136.390216	-0.646755	0.616107	0.449577	-0.590177	-0.777650	0.216683	0.483114	-0.125189	0.866561	0	0	0
13668	0	0	0	0	0	4.461133	2.036626	8.544836	-0.001830	0.002325	0.005054	-1.094482	-0.619873	-0.370117	-0.332481	-0.257073	-0.025212	-0.907047	14.038826	-26.717313	136.389227	-0.646740	0.616114	0.449589	-0.590189	-0.777642	0.216681	0.483119	-0.125206	0.866556	0	0	0
13669	0	0	0	0	0	4.423004	2.049748	8.508253	-0.001025	0.000942	0.006504	-1.097168	-0.623047	-0.357666	-0.332473	-0.257082	-0.025202	-0.907047	14.037992	-26.718902	136.390070	-0.646740	0.616096	0.449614	-0.590180	-0.777653	0.216665	0.483130	-0.125227	0.866547	0	0	0
13670	0	0	0	0	0	4.434400	2.028284	8.504838	0.000166	0.004491	0.002706	-1.092041	-0.626953	-0.358643	-0.332488	-0.257081	-0.025212	-0.907042	14.039548	-26.718118	136.387957	-0.646722	0.616124	0.449601	-0.590198	-0.777632	0.216690	0.483133	-0.125216	0.866547	0	0	0
13671	0	0	0	0	0	4.437654	2.078080	8.552379	-0.003507	0.003937	0.007656	-1.100830	-0.631592	-0.365723	-0.332479	-0.257078	-0.025196	-0.907047	14.037174	-26.718605	136.389656	-0.646738	0.616102	0.449609	-0.590194	-0.777646	0.216653	0.483117	-0.125239	0.866552	0	0	0
13672	0	0	0	0	0	4.418756	2.041127	8.542309	-0.000551	0.004007	0.004306	-1.096924	-0.632080	-0.360352	-0.332487	-0.257078	-0.025200	-0.907044	14.037905	-26.718313	136.388463	-0.646726	0.616118	0.449605	-0.590204	-0.777634	0.216665	0.483119	-0.125236	0.866552	0	0	0
13673	0	0	0	0	0	4.448752	2.056245	8.549207	0.000971	0.003108	0.004156	-1.094727	-0.627930	-0.356201	-0.332493	-0.257084	-0.025206	-0.907040	14.039164	-26.718595	136.387330	-0.646713	0.616129	0.449609	-0.590208	-0.777626	0.216683	0.483132	-0.125231	0.866545	0	0	0
13674	0	0	0	0	0	4.423716	2.073518	8.532772	0.001533	0.004305	0.005008	-1.091064	-0.626465	-0.357178	-0.332495	-0.257086	-0.025219	-0.907038	14.040872	-26.718235	136.386620	-0.646707	0.616139	0.449603	-0.590205	-0.777622	0.216710	0.483145	-0.125210	0.866541	0	0	0
13675	0	0	0	0	0	4.444664	2.048407	8.582988	-0.001114	0.002810	0.003454	-1.092773	-0.628174	-0.364990	-0.332508	-0.257092	-0.025216	-0.907031	14.041248	-26.718775	136.384745	-0.646684	0.616157	0.449612	-0.590225	-0.777605	0.216714	0.483150	-0.125227	0.866536	0	0	0
13676	0	0	0	0	0	4.417806	2.040522	8.542944	0.000728	0.005688	0.003558	-1.092773	-0.628662	-0.354980	-0.332518	-0.257086	-0.025230	-0.907029	14.042804	-26.717445	136.383348	-0.646676	0.616180	0.449591	-0.590235	-0.777590	0.216740	0.483149	-0.125203	0.866540	0	0	0
13677	0	0	0	0	0	4.462936	2.041922	8.512855	0.000098	0.003337	0.008209	-1.092041	-0.626465	-0.360107	-0.332511	-0.257091	-0.025226	-0.907030	14.042443	-26.718203	136.384193	-0.646681	0.616166	0.449603	-0.590224	-0.777600	0.216734	0.483155	-0.125209	0.866536	0	0	0
13678	0	0	0	0	0	4.404099	2.036228	8.523150	0.002900	0.004120	0.007311	-1.098633	-0.627197	-0.367188	-0.332501	-0.257097	-0.025242	-0.907032	14.044303	-26.718267	136.384888	-0.646688	0.616158	0.449604	-0.590199	-0.777611	0.216762	0.483176	-0.125179	0.866528	0	0	0
13679	0	0	0	0	0	4.433972	2.051353	8.530117	-0.000794	0.006588	0.003709	-1.088135	-0.626709	-0.367432	-0.332509	-0.257083	-0.025247	-0.907033	14.044278	-26.716501	136.384255	-0.646691	0.616175	0.449576	-0.590213	-0.777600	0.216765	0.483155	-0.125166	0.866542	0	0	0
13680	0	0	0	0	0	4.450535	2.062614	8.516984	0.001532	0.004305	0.005009	-1.093506	-0.626709	-0.355957	-0.332512	-0.257086	-0.025260	-0.907031	14.045985	-26.716141	136.383546	-0.646686	0.616185	0.449571	-0.590209	-0.777596	0.216791	0.483168	-0.125145	0.866538	0	0	0
13681	0	0	0	0	0	4.458055	2.033659	8.547149	0.000573	0.006402	0.006012	-1.099609	-0.620605	-0.363037	-0.332515	-0.257076	-0.025266	-0.907032	14.046207	-26.714802	136.383396	-0.646692	0.616194	0.449550	-0.590213	-0.777591	0.216797	0.483155	-0.125129	0.866547	0	0	0
13682	0	0	0	0	0	4.438371	2.083529	8.520934	0.000970	0.003108	0.004157	-1.099609	-0.623291	-0.362793	-0.332522	-0.257083	-0.025276	-0.907027	14.047914	-26.714989	136.381971	-0.646675	0.616209	0.449553	-0.590217	-0.777581	0.216822	0.483171	-0.125120	0.866539	0	0	0
13683	0	0	0	0	0	4.444324	2.029416	8.527356	0.000097	0.003338	0.008210	-1.084961	-0.617188	-0.358154	-0.332493	-0.257086	-0.025275	-0.907037	14.047200	-26.715808	136.385600	-0.646710	0.616163	0.449565	-0.590172	-0.777619	0.216810	0.483181	-0.125108	0.866536	0	0	0
13684	0	0	0	0	0	4.444059	2.029190	8.527548	0.000728	0.005689	0.003559	-1.104980	-0.630615	-0.362305	-0.332503	-0.257081	-0.025289	-0.907035	14.048755	-26.714477	136.384205	-0.646702	0.616186	0.449545	-0.590181	-0.777604	0.216836	0.483179	-0.125084	0.866540	0	0	0
13685	0	0	0	0	0	4.449230	2.061737	8.517878	0.000407	0.001911	0.003305	-1.100342	-0.623535	-0.358887	-0.332507	-0.257091	-0.025292	-0.907030	14.049877	-26.715417	136.383157	-0.646686	0.616193	0.449559	-0.590183	-0.777598	0.216851	0.483199	-0.125088	0.866529	0	0	0
13686	0	0	0	0	0	4.443698	2.028851	8.527817	0.000096	0.003338	0.008211	-1.097656	-0.628418	-0.363037	-0.332497	-0.257096	-0.025293	-0.907032	14.049933	-26.716040	136.384291	-0.646694	0.616177	0.449569	-0.590166	-0.777612	0.216851	0.483209	-0.125084	0.866524	0	0	0
13687	0	0	0	0	0	4.437340	2.082449	8.521735	0.000572	0.006402	0.006013	-1.089355	-0.625977	-0.364746	-0.332485	-0.257087	-0.025302	-0.907039	14.050085	-26.714884	136.386086	-0.646720	0.616163	0.449551	-0.590143	-0.777628	0.216855	0.483202	-0.125055	0.866532	0	0	0
13688	0	0	0	0	0	4.433246	2.074665	8.555494	0.000572	0.006403	0.006013	-1.095459	-0.626221	-0.363525	-0.332483	-0.257079	-0.025313	-0.907042	14.050814	-26.713498	136.386329	-0.646731	0.616168	0.449529	-0.590138	-0.777628	0.216869	0.483194	-0.125028	0.866540	0	0	0
13689	0	0	0	0	0	4.417864	2.045518	8.511941	0.001376	0.005019	0.007464	-1.091064	-0.620361	-0.364014	-0.332477	-0.257076	-0.025319	-0.907045	14.051086	-26.713063	136.387208	-0.646743	0.616160	0.449523	-0.590125	-0.777636	0.216874	0.483194	-0.125013	0.866542	0	0	0
13690	0	0	0	0	0	4.461055	2.064269	8.539079	-0.002231	0.005622	0.006911	-1.096924	-0.635010	-0.357422	-0.332475	-0.257066	-0.025315	-0.907048	14.050012	-26.712236	136.387888	-0.646755	0.616157	0.449510	-0.590127	-0.777639	0.216859	0.483176	-0.125013	0.866552	0	0	0
13691	0	0	0	0	0	4.425132	2.015928	8.542376	-0.001272	0.003525	0.005909	-1.095947	-0.627441	-0.354736	-0.332477	-0.257067	-0.025309	-0.907047	14.049449	-26.712575	136.387692	-0.646751	0.616157	0.449515	-0.590133	-0.777637	0.216850	0.483173	-0.125026	0.866552	0	0	0
13692	0	0	0	0	0	4.464257	2.071032	8.506038	-0.000710	0.004722	0.006762	-1.098389	-0.626953	-0.360352	-0.332475	-0.257064	-0.025310	-0.907049	14.049352	-26.712228	136.388139	-0.646757	0.616154	0.449510	-0.590129	-0.777640	0.216849	0.483169	-0.125020	0.866555	0	0	0
13693	0	0	0	0	0	4.447083	2.059256	8.519599	-0.001272	0.003525	0.005909	-1.096191	-0.626465	-0.359375	-0.332469	-0.257067	-0.025306	-0.907050	14.048842	-26.712759	136.388815	-0.646762	0.616144	0.449518	-0.590123	-0.777647	0.216841	0.483171	-0.125026	0.866553	0	0	0
13694	0	0	0	0	0	4.418250	2.068583	8.536801	-0.004558	0.007905	0.005611	-1.099854	-0.632324	-0.365723	-0.332476	-0.257043	-0.025296	-0.907055	14.046639	-26.710482	136.389042	-0.646777	0.616153	0.449482	-0.590144	-0.777639	0.216812	0.483124	-0.125031	0.866578	0	0	0
13695	0	0	0	0	0	4.429388	2.046973	8.533550	0.000968	0.003108	0.004159	-1.096191	-0.622559	-0.356201	-0.332480	-0.257049	-0.025303	-0.907052	14.047842	-26.710792	136.388197	-0.646766	0.616161	0.449487	-0.590145	-0.777634	0.216829	0.483138	-0.125025	0.866572	0	0	0
13696	0	0	0	0	0	4.432746	2.054239	8.500310	-0.003036	0.007006	0.005461	-1.093750	-0.621826	-0.368164	-0.332486	-0.257031	-0.025299	-0.907055	14.046616	-26.708994	136.388191	-0.646776	0.616171	0.449459	-0.590160	-0.777626	0.216814	0.483106	-0.125023	0.866590	0	0	0
13697	0	0	0	0	0	4.428680	2.046241	8.534093	-0.000711	0.004722	0.006763	-1.092773	-0.625244	-0.361328	-0.332474	-0.257027	-0.025298	-0.907060	14.045829	-26.708790	136.389970	-0.646797	0.616152	0.449456	-0.590143	-0.777642	0.216803	0.483099	-0.125016	0.866594	0	0	0
13698	0	0	0	0	0	4.449072	2.064854	8.487481	-0.000711	0.004722	0.006763	-1.093018	-0.622314	-0.361816	-0.332471	-0.257024	-0.025299	-0.907062	14.045730	-26.708443	136.390418	-0.646803	0.616149	0.449451	-0.590139	-0.777646	0.216802	0.483096	-0.125010	0.866597	0	0	0
13699	0	0	0	0	0	4.461924	2.068399	8.507903	-0.000233	0.007786	0.004565	-1.094482	-0.631104	-0.365234	-0.332474	-0.257006	-0.025307	-0.907066	14.045709	-26.706207	136.390514	-0.646817	0.616160	0.449416	-0.590144	-0.777641	0.216806	0.483071	-0.124986	0.866615	0	0	0
13700	0	0	0	0	0	4.431396	2.052863	8.501347	-0.000470	0.002142	0.007361	-1.093750	-0.617188	-0.363770	-0.332469	-0.257016	-0.025304	-0.907065	14.045761	-26.707377	136.390933	-0.646815	0.616149	0.449434	-0.590135	-0.777648	0.216804	0.483085	-0.124994	0.866605	0	0	0
13701	0	0	0	0	0	4.427473	2.044931	8.535033	-0.001515	0.006106	0.005313	-1.094727	-0.626709	-0.357666	-0.332470	-0.257003	-0.025302	-0.907069	14.044830	-26.706082	136.391364	-0.646827	0.616151	0.449414	-0.590140	-0.777647	0.216793	0.483063	-0.124990	0.866619	0	0	0
13702	0	0	0	0	0	4.444144	2.055965	8.521927	-0.001274	0.003525	0.005910	-1.096680	-0.627930	-0.363281	-0.332472	-0.257004	-0.025300	-0.907067	14.044731	-26.706281	136.391096	-0.646823	0.616153	0.449417	-0.590144	-0.777645	0.216791	0.483063	-0.124995	0.866618	0	0	0
13703	0	0	0	0	0	4.415493	2.065512	8.538971	0.000810	0.003822	0.006614	-1.090088	-0.630127	-0.364990	-0.332465	-0.257008	-0.025304	-0.907069	14.045138	-26.706607	136.391799	-0.646829	0.616143	0.449422	-0.590130	-0.777654	0.216796	0.483072	-0.124987	0.866614	0	0	0
13704	0	0	0	0	0	4.440068	2.047937	8.555714	0.000967	0.003108	0.004161	-1.093506	-0.631592	-0.355469	-0.332472	-0.257014	-0.025313	-0.907064	14.046841	-26.706794	136.390378	-0.646812	0.616158	0.449425	-0.590135	-0.777644	0.216822	0.483089	-0.124978	0.866606	0	0	0
13705	0	0	0	0	0	4.443596	2.055267	8.522381	-0.001274	0.003526	0.005911	-1.097656	-0.624023	-0.362305	-0.332483	-0.257016	-0.025306	-0.907060	14.046421	-26.707098	136.389026	-0.646796	0.616172	0.449430	-0.590156	-0.777629	0.216815	0.483085	-0.124998	0.866605	0	0	0
13706	0	0	0	0	0	4.445177	2.080047	8.546214	0.000810	0.003822	0.006615	-1.089111	-0.616943	-0.366943	-0.332479	-0.257019	-0.025313	-0.907060	14.047297	-26.707230	136.389243	-0.646798	0.616169	0.449432	-0.590145	-0.777634	0.216828	0.483096	-0.124986	0.866601	0	0	0
13707	0	0	0	0	0	4.437896	2.022029	8.532457	0.000331	0.000759	0.008813	-1.098389	-0.622314	-0.369629	-0.332458	-0.257034	-0.025306	-0.907064	14.046707	-26.709406	136.391614	-0.646811	0.616130	0.449466	-0.590112	-0.777663	0.216815	0.483119	-0.124997	0.866586	0	0	0
13708	0	0	0	0	0	4.460285	2.065830	8.509386	-0.000398	0.003295	0.001857	-1.093750	-0.628906	-0.361328	-0.332477	-0.257037	-0.025313	-0.907056	14.048259	-26.709170	136.388788	-0.646782	0.616163	0.449462	-0.590138	-0.777636	0.216839	0.483126	-0.124997	0.866582	0	0	0
13709	0	0	0	0	0	4.442942	2.054333	8.522947	0.001288	0.006887	0.004418	-1.096924	-0.625977	-0.359619	-0.332477	-0.257025	-0.025327	-0.907059	14.049132	-26.707302	136.388904	-0.646794	0.616172	0.449433	-0.590134	-0.777635	0.216855	0.483115	-0.124965	0.866593	0	0	0
13710	0	0	0	0	0	4.414137	2.064228	8.539983	0.003208	0.002691	0.002411	-1.102295	-0.628418	-0.358887	-0.332490	-0.257037	-0.025348	-0.907050	14.052637	-26.707478	136.386330	-0.646765	0.616200	0.449436	-0.590139	-0.777616	0.216908	0.483147	-0.124941	0.866579	0	0	0
13711	0	0	0	0	0	4.429050	2.050310	8.503185	-0.003757	0.006525	0.007064	-1.093994	-0.627686	-0.362305	-0.332479	-0.257022	-0.025336	-0.907059	14.050113	-26.706488	136.388660	-0.646796	0.616179	0.449420	-0.590131	-0.777632	0.216872	0.483116	-0.124945	0.866596	0	0	0
13712	0	0	0	0	0	4.441935	2.053708	8.523623	0.000006	0.005207	0.005165	-1.102295	-0.629395	-0.365234	-0.332482	-0.257018	-0.025344	-0.907059	14.050836	-26.705649	136.388191	-0.646795	0.616189	0.449407	-0.590134	-0.777627	0.216884	0.483113	-0.124930	0.866599	0	0	0
13713	0	0	0	0	0	4.441676	2.053408	8.523830	-0.001276	0.003527	0.005912	-1.096436	-0.617676	-0.370605	-0.332480	-0.257018	-0.025339	-0.907060	14.050185	-26.705943	136.388633	-0.646798	0.616183	0.449412	-0.590132	-0.777631	0.216874	0.483110	-0.124939	0.866600	0	0	0
13714	0	0	0	0	0	4.466167	2.035608	8.540669	-0.002078	0.004910	0.004461	-1.100098	-0.629883	-0.363281	-0.332489	-0.257011	-0.025337	-0.907058	14.049932	-26.705171	136.387679	-0.646793	0.616198	0.449400	-0.590150	-0.777618	0.216872	0.483097	-0.124942	0.866606	0	0	0
13715	0	0	0	0	0	4.441175	2.052588	8.524289	-0.003360	0.003230	0.005208	-1.096924	-0.630859	-0.369629	-0.332486	-0.257008	-0.025323	-0.907060	14.048060	-26.705444	136.388515	-0.646800	0.616187	0.449404	-0.590153	-0.777623	0.216843	0.483083	-0.124963	0.866611	0	0	0
13716	0	0	0	0	0	4.435346	2.019508	8.534380	-0.000954	0.007305	0.006169	-1.098633	-0.624023	-0.363281	-0.332486	-0.256993	-0.025329	-0.907065	14.047805	-26.703578	136.388998	-0.646816	0.616191	0.449375	-0.590154	-0.777623	0.216842	0.483061	-0.124943	0.866627	0	0	0
13717	0	0	0	0	0	4.452117	2.030385	8.521276	-0.005204	0.000354	0.005100	-1.096924	-0.627441	-0.356201	-0.332493	-0.256999	-0.025301	-0.907061	14.045248	-26.705424	136.388480	-0.646800	0.616187	0.449404	-0.590178	-0.777617	0.216800	0.483053	-0.125002	0.866622	0	0	0
13718	0	0	0	0	0	4.440579	2.051387	8.524888	0.003208	0.002690	0.002413	-1.099121	-0.627441	-0.363037	-0.332505	-0.257012	-0.025323	-0.907053	14.048751	-26.705601	136.385907	-0.646771	0.616215	0.449406	-0.590182	-0.777599	0.216853	0.483086	-0.124978	0.866608	0	0	0
13719	0	0	0	0	0	4.457280	2.062664	8.511728	-0.003442	0.005098	0.002156	-1.099854	-0.628906	-0.363770	-0.332519	-0.257002	-0.025316	-0.907050	14.047900	-26.704686	136.384515	-0.646761	0.616236	0.449392	-0.590211	-0.777580	0.216842	0.483064	-0.124991	0.866618	0	0	0
13720	0	0	0	0	0	4.441853	2.075972	8.548933	-0.000475	0.002143	0.007364	-1.096680	-0.620850	-0.369629	-0.332514	-0.257011	-0.025313	-0.907050	14.047947	-26.705855	136.384938	-0.646759	0.616225	0.449410	-0.590202	-0.777587	0.216840	0.483078	-0.124999	0.866609	0	0	0
13721	0	0	0	0	0	4.424798	2.064148	8.562408	-0.001997	0.003044	0.007513	-1.094727	-0.631348	-0.367432	-0.332501	-0.257012	-0.025302	-0.907055	14.046274	-26.706563	136.386926	-0.646777	0.616198	0.449421	-0.590187	-0.777606	0.216814	0.483073	-0.125013	0.866610	0	0	0
13722	0	0	0	0	0	4.422883	2.038503	8.538950	-0.003519	0.003945	0.007663	-1.092285	-0.628174	-0.360840	-0.332498	-0.257008	-0.025288	-0.907057	14.044367	-26.706772	136.387816	-0.646785	0.616187	0.449425	-0.590190	-0.777612	0.216784	0.483058	-0.125033	0.866615	0	0	0
13723	0	0	0	0	0	4.443553	2.056877	8.492308	-0.003121	0.000650	0.005805	-1.092529	-0.625977	-0.356445	-0.332509	-0.257018	-0.025268	-0.907051	14.042970	-26.708556	136.386376	-0.646759	0.616194	0.449452	-0.590217	-0.777598	0.216760	0.483060	-0.125083	0.866607	0	0	0
13724	0	0	0	0	0	4.428321	2.070112	8.529429	-0.001839	0.002330	0.005059	-1.098633	-0.624268	-0.359863	-0.332516	-0.257023	-0.025262	-0.907047	14.042866	-26.709301	136.385394	-0.646745	0.616201	0.449464	-0.590229	-0.777590	0.216757	0.483065	-0.125100	0.866602	0	0	0
13725	0	0	0	0	0	4.405677	2.025710	8.552727	-0.001277	0.003527	0.005914	-1.093994	-0.632813	-0.367920	-0.332511	-0.257026	-0.025258	-0.907048	14.042312	-26.709818	136.385995	-0.646748	0.616191	0.449472	-0.590224	-0.777596	0.216748	0.483066	-0.125108	0.866600	0	0	0
13726	0	0	0	0	0	4.450958	2.026848	8.522723	-0.001277	0.003527	0.005914	-1.098145	-0.632568	-0.365479	-0.332513	-0.257027	-0.025255	-0.907047	14.042208	-26.710017	136.385732	-0.646744	0.616193	0.449475	-0.590228	-0.777594	0.216746	0.483066	-0.125114	0.866599	0	0	0
13727	0	0	0	0	0	4.414536	2.065189	8.509828	-0.000716	0.004724	0.006768	-1.099609	-0.626709	-0.363281	-0.332517	-0.257022	-0.025252	-0.907047	14.041625	-26.709588	136.385477	-0.646744	0.616198	0.449468	-0.590237	-0.777589	0.216738	0.483055	-0.125119	0.866604	0	0	0
13728	0	0	0	0	0	4.439075	2.047307	8.526652	-0.001999	0.003044	0.007515	-1.092285	-0.629395	-0.355713	-0.332513	-0.257024	-0.025244	-0.907048	14.040693	-26.710278	136.386134	-0.646747	0.616187	0.449479	-0.590235	-0.777595	0.216722	0.483054	-0.125134	0.866603	0	0	0
13729	0	0	0	0	0	4.427456	2.068204	8.530341	0.000806	0.003822	0.006619	-1.096680	-0.628662	-0.364258	-0.332507	-0.257029	-0.025247	-0.907049	14.041160	-26.710659	136.386695	-0.646751	0.616179	0.449485	-0.590222	-0.777603	0.216728	0.483065	-0.125127	0.866598	0	0	0
13730	0	0	0	0	0	4.425530	2.042771	8.506832	-0.001999	0.003045	0.007515	-1.099365	-0.631592	-0.360840	-0.332503	-0.257031	-0.025239	-0.907050	14.040228	-26.711348	136.387353	-0.646754	0.616168	0.449496	-0.590219	-0.777610	0.216713	0.483064	-0.125141	0.866596	0	0	0
13731	0	0	0	0	0	4.455641	2.057446	8.513849	-0.003362	0.003232	0.005210	-1.097412	-0.630371	-0.368652	-0.332509	-0.257030	-0.025225	-0.907049	14.038697	-26.711756	136.386917	-0.646747	0.616170	0.449502	-0.590237	-0.777603	0.216689	0.483052	-0.125170	0.866599	0	0	0
13732	0	0	0	0	0	4.408176	2.030445	8.520568	-0.000716	0.004724	0.006770	-1.102051	-0.629150	-0.359375	-0.332506	-0.257027	-0.025226	-0.907050	14.038591	-26.711408	136.387372	-0.646754	0.616167	0.449497	-0.590232	-0.777607	0.216688	0.483048	-0.125164	0.866602	0	0	0
13733	0	0	0	0	0	4.460666	2.089411	8.504478	0.000164	0.004493	0.002714	-1.100098	-0.627197	-0.365234	-0.332516	-0.257025	-0.025233	-0.907047	14.039621	-26.710742	136.385982	-0.646743	0.616187	0.449486	-0.590244	-0.777593	0.216705	0.483048	-0.125154	0.866603	0	0	0
13734	0	0	0	0	0	4.434076	2.037453	8.561322	-0.002960	0.005144	0.008520	-1.102051	-0.626709	-0.369385	-0.332508	-0.257016	-0.025223	-0.907053	14.037710	-26.710405	136.387592	-0.646762	0.616170	0.449481	-0.590240	-0.777604	0.216677	0.483028	-0.125163	0.866613	0	0	0
13735	0	0	0	0	0	4.437616	2.044451	8.528097	-0.003363	0.003233	0.005210	-1.095947	-0.629883	-0.360840	-0.332506	-0.257013	-0.025209	-0.907055	14.035915	-26.710702	136.388316	-0.646768	0.616160	0.449486	-0.590244	-0.777609	0.216649	0.483015	-0.125185	0.866617	0	0	0
13736	0	0	0	0	0	4.425941	2.065338	8.531821	-0.000558	0.004010	0.004315	-1.094482	-0.637695	-0.353271	-0.332514	-0.257013	-0.025213	-0.907052	14.036636	-26.710410	136.387132	-0.646757	0.616175	0.449481	-0.590255	-0.777597	0.216661	0.483016	-0.125182	0.866617	0	0	0
13737	0	0	0	0	0	4.431564	2.011064	8.538337	-0.002239	0.005627	0.006920	-1.100586	-0.628906	-0.359863	-0.332520	-0.257006	-0.025205	-0.907052	14.035406	-26.709873	136.386913	-0.646758	0.616181	0.449473	-0.590270	-0.777591	0.216643	0.482997	-0.125195	0.866626	0	0	0
13738	0	0	0	0	0	4.444420	2.058413	8.461809	-0.001841	0.002331	0.005061	-1.097656	-0.629639	-0.357666	-0.332526	-0.257011	-0.025199	-0.907048	14.035300	-26.710618	136.385933	-0.646743	0.616188	0.449485	-0.590282	-0.777583	0.216640	0.483002	-0.125212	0.866620	0	0	0
13739	0	0	0	0	0	4.436907	2.042818	8.528857	-0.001763	0.000464	0.008113	-1.100586	-0.631592	-0.369141	-0.332513	-0.257027	-0.025185	-0.907049	14.034143	-26.713150	136.387341	-0.646744	0.616158	0.449524	-0.590265	-0.777601	0.216618	0.483021	-0.125242	0.866605	0	0	0
13740	0	0	0	0	0	4.438506	2.067449	8.552736	-0.000956	0.007306	0.006175	-1.102295	-0.631104	-0.367432	-0.332513	-0.257012	-0.025190	-0.907053	14.033884	-26.711285	136.387828	-0.646759	0.616163	0.449495	-0.590266	-0.777601	0.216617	0.482999	-0.125222	0.866621	0	0	0
13741	0	0	0	0	0	4.447841	2.020753	8.525797	-0.001280	0.003528	0.005916	-1.096191	-0.625977	-0.364990	-0.332512	-0.257011	-0.025185	-0.907054	14.033165	-26.711447	136.388215	-0.646763	0.616157	0.449497	-0.590267	-0.777604	0.216606	0.482994	-0.125231	0.866622	0	0	0
13742	0	0	0	0	0	4.423077	2.037853	8.509287	-0.001042	0.000946	0.006513	-1.104492	-0.629639	-0.352051	-0.332511	-0.257025	-0.025179	-0.907051	14.033207	-26.713163	136.387922	-0.646750	0.616152	0.449524	-0.590265	-0.777605	0.216603	0.483013	-0.125250	0.866609	0	0	0
13743	0	0	0	0	0	4.441772	2.073781	8.519826	-0.002962	0.005145	0.008522	-1.097168	-0.621582	-0.364502	-0.332493	-0.257017	-0.025167	-0.907060	14.030873	-26.713191	136.390830	-0.646781	0.616119	0.449525	-0.590246	-0.777630	0.216568	0.482995	-0.125258	0.866617	0	0	0
13744	0	0	0	0	0	4.434123	2.015516	8.506230	-0.002240	0.005627	0.006922	-1.099365	-0.630615	-0.354004	-0.332491	-0.257008	-0.025162	-0.907063	14.029787	-26.712363	136.391521	-0.646793	0.616115	0.449512	-0.590248	-0.777633	0.216553	0.482977	-0.125258	0.866628	0	0	0
13745	0	0	0	0	0	4.435609	2.040014	8.530203	-0.002963	0.005145	0.008523	-1.104980	-0.622070	-0.371826	-0.332475	-0.257000	-0.025150	-0.907072	14.027397	-26.712333	136.394251	-0.646823	0.616085	0.449511	-0.590231	-0.777655	0.216517	0.482958	-0.125267	0.866637	0	0	0
13746	0	0	0	0	0	4.450658	2.025947	8.493391	0.000401	0.001911	0.003312	-1.092041	-0.625000	-0.358154	-0.332487	-0.257011	-0.025156	-0.907064	14.029094	-26.713069	136.392117	-0.646795	0.616105	0.449523	-0.590243	-0.777639	0.216541	0.482979	-0.125270	0.866625	0	0	0
13747	0	0	0	0	0	4.452273	2.050697	8.517239	-0.002803	0.004431	0.006067	-1.097412	-0.623535	-0.362549	-0.332480	-0.257004	-0.025145	-0.907069	14.027288	-26.712890	136.393561	-0.646812	0.616089	0.449520	-0.590240	-0.777650	0.216514	0.482961	-0.125280	0.866633	0	0	0
13748	0	0	0	0	0	4.435037	2.039026	8.530737	0.000963	0.003108	0.004167	-1.091553	-0.622559	-0.360107	-0.332487	-0.257011	-0.025155	-0.907064	14.028984	-26.713079	136.392146	-0.646796	0.616104	0.449523	-0.590244	-0.777639	0.216540	0.482978	-0.125271	0.866625	0	0	0
13749	0	0	0	0	0	4.440272	2.071300	8.521211	-0.003201	0.007727	0.007928	-1.098877	-0.629883	-0.361572	-0.332477	-0.256990	-0.025145	-0.907074	14.026331	-26.711406	136.394525	-0.646831	0.616086	0.449497	-0.590239	-0.777653	0.216503	0.482937	-0.125270	0.866648	0	0	0
13750	0	0	0	0	0	4.434517	2.038291	8.531183	0.000639	-0.000671	0.003908	-1.098877	-0.623779	-0.367432	-0.332486	-0.257013	-0.025147	-0.907064	14.028177	-26.713660	136.392361	-0.646795	0.616099	0.449532	-0.590246	-0.777641	0.216526	0.482976	-0.125286	0.866624	0	0	0
13751	0	0	0	0	0	4.447569	2.041776	8.551513	-0.001118	0.008021	0.008635	-1.093994	-0.630371	-0.362305	-0.332469	-0.256993	-0.025147	-0.907076	14.026490	-26.711845	136.395382	-0.646837	0.616074	0.449504	-0.590224	-0.777664	0.216504	0.482946	-0.125265	0.866644	0	0	0
13752	0	0	0	0	0	4.422501	2.058983	8.535141	0.001524	0.004305	0.005024	-1.095947	-0.629883	-0.361328	-0.332471	-0.256996	-0.025160	-0.907074	14.028184	-26.711488	136.394686	-0.646832	0.616084	0.449498	-0.590221	-0.777659	0.216531	0.482958	-0.125244	0.866641	0	0	0
13753	0	0	0	0	0	4.467813	2.060262	8.505140	0.000240	0.002626	0.005769	-1.095459	-0.629883	-0.359375	-0.332477	-0.257003	-0.025158	-0.907070	14.028661	-26.712290	136.393698	-0.646817	0.616091	0.449511	-0.590228	-0.777652	0.216536	0.482969	-0.125254	0.866633	0	0	0
13754	0	0	0	0	0	4.439201	2.070010	8.522083	0.000962	0.003108	0.004168	-1.099854	-0.627441	-0.366699	-0.332484	-0.257010	-0.025168	-0.907065	14.030356	-26.712479	136.392284	-0.646801	0.616106	0.449514	-0.590232	-0.777642	0.216562	0.482986	-0.125245	0.866625	0	0	0
13755	0	0	0	0	0	4.450422	2.048499	8.518735	-0.000720	0.004726	0.006774	-1.091797	-0.631348	-0.364990	-0.332479	-0.257006	-0.025166	-0.907068	14.029752	-26.712263	136.393072	-0.646810	0.616098	0.449510	-0.590227	-0.777648	0.216553	0.482979	-0.125244	0.866629	0	0	0
13756	0	0	0	0	0	4.433097	2.036773	8.532284	-0.002081	0.004914	0.004467	-1.097656	-0.625977	-0.366211	-0.332489	-0.257000	-0.025164	-0.907066	14.029493	-26.711490	136.392125	-0.646804	0.616113	0.449498	-0.590244	-0.777636	0.216550	0.482965	-0.125248	0.866636	0	0	0
13757	0	0	0	0	0	4.434636	2.061458	8.556189	-0.001283	0.003529	0.005919	-1.097412	-0.625488	-0.369385	-0.332495	-0.257000	-0.025157	-0.907064	14.028842	-26.711676	136.391521	-0.646797	0.616119	0.449501	-0.590257	-0.777629	0.216540	0.482959	-0.125264	0.866637	0	0	0
13758	0	0	0	0	0	4.457438	2.018669	8.549246	0.003121	0.001534	0.007928	-1.094238	-0.627441	-0.364990	-0.332482	-0.257017	-0.025169	-0.907063	14.030832	-26.713262	136.392201	-0.646795	0.616103	0.449526	-0.590227	-0.777644	0.216567	0.482999	-0.125248	0.866617	0	0	0
13759	0	0	0	0	0	4.449610	2.047299	8.519448	-0.001520	0.006111	0.005324	-1.100342	-0.633545	-0.366943	-0.332486	-0.257004	-0.025166	-0.907066	14.029916	-26.711910	136.392234	-0.646803	0.616110	0.449505	-0.590238	-0.777639	0.216556	0.482975	-0.125246	0.866631	0	0	0
13760	0	0	0	0	0	4.420848	2.056919	8.536494	-0.001122	0.002815	0.003462	-1.102539	-0.628418	-0.366699	-0.332499	-0.257009	-0.025167	-0.907060	14.030634	-26.712164	136.390335	-0.646781	0.616130	0.449509	-0.590257	-0.777622	0.216566	0.482981	-0.125255	0.866626	0	0	0
13761	0	0	0	0	0	4.454741	2.079252	8.510072	-0.001445	0.004244	0.008377	-1.095215	-0.623535	-0.363281	-0.332487	-0.257005	-0.025159	-0.907066	14.029138	-26.712353	136.392321	-0.646802	0.616106	0.449512	-0.590242	-0.777639	0.216543	0.482972	-0.125260	0.866630	0	0	0
13762	0	0	0	0	0	4.435687	2.042476	8.499893	-0.000560	0.004011	0.004319	-1.091553	-0.627930	-0.371094	-0.332495	-0.257006	-0.025163	-0.907062	14.029855	-26.712061	136.391140	-0.646791	0.616121	0.449507	-0.590253	-0.777628	0.216555	0.482973	-0.125257	0.866630	0	0	0
13763	0	0	0	0	0	4.424075	2.063521	8.503560	0.000238	0.002626	0.005771	-1.094238	-0.630127	-0.360352	-0.332498	-0.257011	-0.025161	-0.907060	14.030071	-26.712684	136.390535	-0.646781	0.616125	0.449517	-0.590258	-0.777624	0.216557	0.482981	-0.125266	0.866624	0	0	0
13764	0	0	0	0	0	4.431482	2.034356	8.533698	-0.002082	0.004915	0.004468	-1.102783	-0.630127	-0.370117	-0.332507	-0.257005	-0.025160	-0.907058	14.029811	-26.711910	136.389589	-0.646775	0.616139	0.449505	-0.590275	-0.777612	0.216554	0.482968	-0.125269	0.866631	0	0	0
13765	0	0	0	0	0	4.431228	2.033983	8.533920	-0.001284	0.003530	0.005920	-1.095947	-0.622314	-0.365234	-0.332509	-0.257005	-0.025154	-0.907058	14.029192	-26.712182	136.389521	-0.646773	0.616139	0.449509	-0.590280	-0.777610	0.216545	0.482964	-0.125281	0.866632	0	0	0
13766	0	0	0	0	0	4.419533	2.054906	8.537660	-0.000161	0.005923	0.007633	-1.103516	-0.625488	-0.355957	-0.332501	-0.256997	-0.025158	-0.907062	14.029077	-26.711287	136.390700	-0.646790	0.616130	0.449495	-0.590268	-0.777620	0.216545	0.482956	-0.125263	0.866639	0	0	0
13767	0	0	0	0	0	4.461047	2.048439	8.541185	-0.000324	0.001430	0.004915	-1.095459	-0.625488	-0.368896	-0.332495	-0.257010	-0.025157	-0.907061	14.029379	-26.712826	136.391127	-0.646786	0.616117	0.449519	-0.590255	-0.777629	0.216546	0.482977	-0.125272	0.866626	0	0	0
13768	0	0	0	0	0	4.436328	2.065714	8.524621	0.000238	0.002626	0.005771	-1.103271	-0.625000	-0.363770	-0.332495	-0.257018	-0.025160	-0.907059	14.030242	-26.713506	136.390635	-0.646777	0.616119	0.449530	-0.590253	-0.777627	0.216558	0.482992	-0.125271	0.866617	0	0	0
13769	0	0	0	0	0	4.434344	2.040493	8.501070	0.001523	0.004305	0.005027	-1.097656	-0.629883	-0.366699	-0.332490	-0.257019	-0.025170	-0.907060	14.031256	-26.713230	136.391107	-0.646784	0.616115	0.449525	-0.590238	-0.777634	0.216574	0.483000	-0.125251	0.866616	0	0	0
13770	0	0	0	0	0	4.434049	2.040259	8.501280	-0.002082	0.004916	0.004469	-1.101318	-0.623291	-0.363525	-0.332499	-0.257012	-0.025168	-0.907059	14.030994	-26.712456	136.390162	-0.646778	0.616130	0.449513	-0.590256	-0.777621	0.216571	0.482987	-0.125254	0.866623	0	0	0
13771	0	0	0	0	0	4.439345	2.072515	8.491760	-0.002083	0.004916	0.004469	-1.096191	-0.625244	-0.359131	-0.332502	-0.257005	-0.025164	-0.907060	14.030130	-26.711802	136.390175	-0.646782	0.616133	0.449503	-0.590265	-0.777618	0.216559	0.482971	-0.125259	0.866631	0	0	0
13772	0	0	0	0	0	4.446810	2.043408	8.521843	0.001197	0.000526	0.004766	-1.096924	-0.625488	-0.368896	-0.332507	-0.257023	-0.025169	-0.907053	14.031971	-26.713510	136.388732	-0.646757	0.616140	0.449530	-0.590264	-0.777612	0.216584	0.483006	-0.125264	0.866611	0	0	0
13773	0	0	0	0	0	4.429655	2.031964	8.535217	0.001522	0.004305	0.005027	-1.096680	-0.623291	-0.362305	-0.332505	-0.257025	-0.025179	-0.907053	14.033079	-26.713277	136.388631	-0.646757	0.616143	0.449526	-0.590257	-0.777612	0.216601	0.483014	-0.125247	0.866608	0	0	0
13774	0	0	0	0	0	4.444711	2.018024	8.498390	0.000074	0.003342	0.008230	-1.098877	-0.634033	-0.364990	-0.332495	-0.257030	-0.025180	-0.907055	14.033111	-26.713901	136.389781	-0.646766	0.616127	0.449536	-0.590239	-0.777626	0.216601	0.483024	-0.125244	0.866604	0	0	0
13775	0	0	0	0	0	4.448132	2.067835	8.545932	-0.000561	0.004012	0.004320	-1.095703	-0.622559	-0.360352	-0.332502	-0.257029	-0.025180	-0.907053	14.033336	-26.713742	136.388866	-0.646757	0.616138	0.449533	-0.590250	-0.777617	0.216604	0.483023	-0.125247	0.866604	0	0	0
13776	0	0	0	0	0	4.429054	2.031208	8.535709	0.000798	0.003823	0.006629	-1.105469	-0.628174	-0.363281	-0.332498	-0.257033	-0.025187	-0.907053	14.034197	-26.713876	136.389095	-0.646758	0.616134	0.449535	-0.590239	-0.777621	0.216617	0.483033	-0.125235	0.866600	0	0	0
13777	0	0	0	0	0	4.459065	2.046081	8.542785	0.000000	0.005209	0.005177	-1.092529	-0.631104	-0.359131	-0.332491	-0.257028	-0.025192	-0.907056	14.034356	-26.713306	136.390069	-0.646772	0.616127	0.449526	-0.590226	-0.777630	0.216621	0.483031	-0.125218	0.866603	0	0	0
13778	0	0	0	0	0	4.420944	2.059681	8.506119	0.000960	0.003108	0.004171	-1.100098	-0.631104	-0.365234	-0.332498	-0.257035	-0.025202	-0.907052	14.036047	-26.713496	136.388658	-0.646756	0.616141	0.449529	-0.590231	-0.777620	0.216646	0.483047	-0.125209	0.866596	0	0	0
13779	0	0	0	0	0	4.445356	2.041991	8.522941	0.001359	0.005020	0.007486	-1.095215	-0.621826	-0.367432	-0.332494	-0.257034	-0.025207	-0.907053	14.036535	-26.713228	136.389164	-0.646763	0.616137	0.449525	-0.590220	-0.777625	0.216654	0.483051	-0.125195	0.866596	0	0	0
13780	0	0	0	0	0	4.433597	2.063127	8.526668	0.000724	0.005690	0.003576	-1.096680	-0.628662	-0.370361	-0.332503	-0.257029	-0.025221	-0.907051	14.038076	-26.711899	136.387785	-0.646755	0.616160	0.449505	-0.590230	-0.777611	0.216679	0.483049	-0.125172	0.866600	0	0	0
13781	0	0	0	0	0	4.420240	2.059258	8.506588	0.000634	-0.000670	0.003910	-1.097656	-0.635986	-0.360596	-0.332511	-0.257050	-0.025219	-0.907042	14.039204	-26.714089	136.385991	-0.646724	0.616168	0.449539	-0.590239	-0.777601	0.216692	0.483081	-0.125195	0.866579	0	0	0
13782	0	0	0	0	0	4.458105	2.045246	8.543486	0.000072	0.003342	0.008231	-1.105713	-0.628174	-0.366211	-0.332501	-0.257054	-0.025219	-0.907045	14.039234	-26.714712	136.387142	-0.646733	0.616152	0.449548	-0.590221	-0.777614	0.216692	0.483090	-0.125191	0.866574	0	0	0
13783	0	0	0	0	0	4.433277	2.062627	8.526955	0.003604	0.004597	0.005737	-1.091797	-0.631836	-0.360596	-0.332494	-0.257059	-0.025238	-0.907045	14.041479	-26.714474	136.387374	-0.646736	0.616151	0.449545	-0.590200	-0.777621	0.216726	0.483111	-0.125156	0.866568	0	0	0
13784	0	0	0	0	0	4.457602	2.045137	8.543774	0.002246	0.004786	0.003428	-1.094727	-0.622559	-0.363281	-0.332503	-0.257060	-0.025258	-0.907041	14.043997	-26.713627	136.385761	-0.646724	0.616173	0.449531	-0.590203	-0.777608	0.216766	0.483124	-0.125127	0.866565	0	0	0
13785	0	0	0	0	0	4.440317	2.033844	8.557170	0.002481	0.002204	0.004023	-1.092529	-0.624512	-0.364258	-0.332512	-0.257073	-0.025268	-0.907034	14.046210	-26.714434	136.383767	-0.646698	0.616192	0.449544	-0.590209	-0.777594	0.216798	0.483152	-0.125122	0.866550	0	0	0
13786	0	0	0	0	0	4.415619	2.051349	8.540540	0.001756	0.001723	0.005625	-1.100098	-0.631104	-0.361816	-0.332512	-0.257087	-0.025277	-0.907030	14.048047	-26.715595	136.383045	-0.646684	0.616193	0.449562	-0.590200	-0.777594	0.216823	0.483182	-0.125115	0.866534	0	0	0
13787	0	0	0	0	0	4.474379	2.056164	8.530709	-0.001215	0.001665	0.008976	-1.099854	-0.621582	-0.359131	-0.332500	-0.257097	-0.025264	-0.907032	14.046755	-26.717392	136.384546	-0.646689	0.616167	0.449590	-0.590185	-0.777611	0.216800	0.483191	-0.125139	0.866525	0	0	0
13788	0	0	0	0	0	4.443954	2.040908	8.523932	0.002409	0.004071	0.000970	-1.093018	-0.629150	-0.360107	-0.332520	-0.257102	-0.025286	-0.907023	14.050104	-26.716601	136.381293	-0.646659	0.616208	0.449578	-0.590204	-0.777583	0.216852	0.483210	-0.125113	0.866519	0	0	0
13789	0	0	0	0	0	4.443774	2.040939	8.524018	0.001756	0.001723	0.005625	-1.094971	-0.631348	-0.364502	-0.332515	-0.257117	-0.025292	-0.907020	14.051469	-26.718042	136.381230	-0.646650	0.616201	0.449600	-0.590189	-0.777589	0.216870	0.483240	-0.125110	0.866503	0	0	0
13790	0	0	0	0	0	4.447508	2.048414	8.490634	0.002878	0.004116	0.007339	-1.101807	-0.626465	-0.358887	-0.332505	-0.257122	-0.025308	-0.907022	14.053301	-26.718112	136.381948	-0.646657	0.616192	0.449601	-0.590164	-0.777600	0.216898	0.483261	-0.125080	0.866495	0	0	0
13791	0	0	0	0	0	4.426393	2.029507	8.537493	0.003042	0.003401	0.004881	-1.098877	-0.629150	-0.358154	-0.332503	-0.257132	-0.025323	-0.907019	14.055517	-26.718444	136.381402	-0.646650	0.616197	0.449607	-0.590151	-0.777600	0.216931	0.483286	-0.125058	0.866484	0	0	0
13792	0	0	0	0	0	4.445132	2.065853	8.547972	0.000398	0.001912	0.003316	-1.095703	-0.630127	-0.362305	-0.332515	-0.257143	-0.025329	-0.907011	14.057209	-26.719178	136.379272	-0.646623	0.616217	0.449618	-0.590164	-0.777584	0.216955	0.483307	-0.125060	0.866472	0	0	0
13793	0	0	0	0	0	4.462139	2.077066	8.534745	0.001755	0.001723	0.005626	-1.102783	-0.633057	-0.365967	-0.332515	-0.257158	-0.025334	-0.907007	14.058660	-26.720574	136.378618	-0.646608	0.616216	0.449640	-0.590157	-0.777584	0.216974	0.483336	-0.125061	0.866456	0	0	0
13794	0	0	0	0	0	4.420342	2.083129	8.531447	0.000795	0.003825	0.006632	-1.099365	-0.627441	-0.365967	-0.332511	-0.257161	-0.025341	-0.907007	14.059518	-26.720707	136.378850	-0.646609	0.616213	0.449642	-0.590146	-0.777589	0.216987	0.483347	-0.125049	0.866452	0	0	0
13795	0	0	0	0	0	4.442958	2.040223	8.524615	-0.001288	0.003533	0.005923	-1.101807	-0.619873	-0.363770	-0.332509	-0.257161	-0.025336	-0.907008	14.058847	-26.720982	136.379179	-0.646611	0.616208	0.449646	-0.590146	-0.777591	0.216976	0.483343	-0.125058	0.866452	0	0	0
13796	0	0	0	0	0	4.431337	2.061159	8.528318	-0.000727	0.004730	0.006781	-1.097412	-0.630127	-0.360352	-0.332506	-0.257158	-0.025337	-0.907010	14.058727	-26.720633	136.379644	-0.646618	0.616205	0.449641	-0.590142	-0.777595	0.216975	0.483339	-0.125052	0.866455	0	0	0
13797	0	0	0	0	0	4.425438	2.028171	8.538306	-0.001288	0.003533	0.005924	-1.098145	-0.622070	-0.354004	-0.332499	-0.257159	-0.025332	-0.907013	14.058028	-26.721064	136.380671	-0.646627	0.616191	0.449647	-0.590133	-0.777605	0.216964	0.483339	-0.125057	0.866455	0	0	0
13798	0	0	0	0	0	4.442248	2.039124	8.525248	-0.000166	0.005927	0.007639	-1.099365	-0.630859	-0.356934	-0.332492	-0.257152	-0.025337	-0.907017	14.057905	-26.720170	136.381856	-0.646645	0.616182	0.449633	-0.590120	-0.777615	0.216964	0.483331	-0.125039	0.866462	0	0	0
13799	0	0	0	0	0	4.442100	2.038892	8.525381	0.001193	0.000527	0.004769	-1.102051	-0.627930	-0.362793	-0.332488	-0.257173	-0.025340	-0.907012	14.059386	-26.722326	136.381383	-0.646627	0.616176	0.449667	-0.590108	-0.777619	0.216982	0.483369	-0.125046	0.866440	0	0	0
13800	0	0	0	0	0	4.419169	2.081336	8.532492	-0.000002	0.005211	0.005180	-1.099121	-0.625732	-0.364258	-0.332492	-0.257168	-0.025348	-0.907012	14.060096	-26.721487	136.380928	-0.646627	0.616185	0.449654	-0.590111	-0.777613	0.216994	0.483366	-0.125031	0.866444	0	0	0
13801	0	0	0	0	0	4.434056	2.067293	8.495795	-0.001523	0.006116	0.005329	-1.099609	-0.631592	-0.363037	-0.332489	-0.257157	-0.025347	-0.907017	14.059248	-26.720340	136.381793	-0.646643	0.616182	0.449636	-0.590109	-0.777618	0.216984	0.483346	-0.125024	0.866456	0	0	0
13802	0	0	0	0	0	4.454495	2.041938	8.546160	0.000958	0.003109	0.004174	-1.101563	-0.633545	-0.360596	-0.332496	-0.257164	-0.025356	-0.907012	14.060936	-26.720530	136.380384	-0.646627	0.616197	0.449639	-0.590114	-0.777607	0.217009	0.483363	-0.125014	0.866448	0	0	0
13803	0	0	0	0	0	4.459967	2.074385	8.536532	-0.000563	0.004014	0.004323	-1.098145	-0.628418	-0.360596	-0.332503	-0.257164	-0.025357	-0.907009	14.061274	-26.720434	136.379340	-0.646616	0.616209	0.449638	-0.590125	-0.777597	0.217014	0.483363	-0.125018	0.866447	0	0	0
13804	0	0	0	0	0	4.412260	2.047578	8.543181	-0.003770	0.006541	0.007079	-1.093506	-0.628418	-0.358154	-0.332503	-0.257148	-0.025347	-0.907014	14.059200	-26.719120	136.380274	-0.646634	0.616206	0.449617	-0.590134	-0.777599	0.216985	0.483329	-0.125024	0.866465	0	0	0
13805	0	0	0	0	0	4.427376	2.033331	8.506416	0.000301	0.000762	0.008830	-1.095947	-0.628418	-0.356934	-0.332491	-0.257165	-0.025340	-0.907014	14.058983	-26.721502	136.381362	-0.646632	0.616180	0.449654	-0.590114	-0.777616	0.216977	0.483355	-0.125043	0.866448	0	0	0
13806	0	0	0	0	0	4.470803	2.051631	8.533674	-0.002975	0.005156	0.008533	-1.093506	-0.628906	-0.356934	-0.332483	-0.257157	-0.025329	-0.907019	14.057054	-26.721161	136.382985	-0.646651	0.616164	0.449649	-0.590109	-0.777627	0.216949	0.483335	-0.125052	0.866458	0	0	0
13807	0	0	0	0	0	4.428709	2.057388	8.530594	-0.002319	0.007503	0.003877	-1.103027	-0.634521	-0.362061	-0.332497	-0.257139	-0.025328	-0.907019	14.056331	-26.719175	136.381820	-0.646650	0.616188	0.449618	-0.590137	-0.777608	0.216942	0.483304	-0.125051	0.866476	0	0	0
13808	0	0	0	0	0	4.445386	2.068328	8.517622	-0.000729	0.004731	0.006783	-1.098877	-0.626709	-0.362305	-0.332494	-0.257136	-0.025329	-0.907021	14.056208	-26.718826	136.382287	-0.646657	0.616184	0.449613	-0.590132	-0.777612	0.216941	0.483299	-0.125045	0.866479	0	0	0
13809	0	0	0	0	0	4.439385	2.035340	8.527643	-0.002085	0.004920	0.004473	-1.096191	-0.631104	-0.363037	-0.332500	-0.257130	-0.025324	-0.907021	14.055497	-26.718252	136.381866	-0.646656	0.616192	0.449604	-0.590146	-0.777605	0.216931	0.483285	-0.125052	0.866486	0	0	0
13810	0	0	0	0	0	4.427705	2.056284	8.531381	-0.000729	0.004731	0.006784	-1.097656	-0.627930	-0.359131	-0.332497	-0.257127	-0.025326	-0.907023	14.055374	-26.717903	136.382333	-0.646663	0.616189	0.449598	-0.590141	-0.777608	0.216930	0.483281	-0.125046	0.866489	0	0	0
13811	0	0	0	0	0	4.440687	2.059521	8.551809	-0.003538	0.003960	0.007676	-1.092529	-0.625000	-0.367432	-0.332495	-0.257123	-0.025308	-0.907025	14.053030	-26.718292	136.383183	-0.646670	0.616177	0.449604	-0.590149	-0.777613	0.216893	0.483263	-0.125075	0.866495	0	0	0
13812	0	0	0	0	0	4.431226	2.062980	8.498320	0.002313	0.002919	0.006487	-1.100586	-0.630127	-0.369629	-0.332490	-0.257133	-0.025320	-0.907024	14.054860	-26.718909	136.383184	-0.646666	0.616174	0.449614	-0.590131	-0.777619	0.216920	0.483288	-0.125056	0.866483	0	0	0
13813	0	0	0	0	0	4.440359	2.058916	8.552126	-0.002647	0.003724	0.003615	-1.099121	-0.625244	-0.362305	-0.332505	-0.257128	-0.025310	-0.907020	14.053925	-26.718596	136.381599	-0.646651	0.616193	0.449609	-0.590162	-0.777599	0.216906	0.483272	-0.125079	0.866489	0	0	0
13814	0	0	0	0	0	4.419385	2.083543	8.502238	-0.004333	0.005346	0.006223	-1.092285	-0.625488	-0.361572	-0.332509	-0.257116	-0.025297	-0.907022	14.051850	-26.717828	136.381814	-0.646658	0.616195	0.449597	-0.590178	-0.777595	0.216877	0.483243	-0.125098	0.866503	0	0	0
13815	0	0	0	0	0	4.441810	2.040205	8.495592	-0.004499	0.006063	0.008684	-1.095459	-0.619873	-0.364502	-0.332500	-0.257100	-0.025277	-0.907030	14.048399	-26.717171	136.384105	-0.646686	0.616173	0.449587	-0.590178	-0.777609	0.216826	0.483205	-0.125118	0.866521	0	0	0
13816	0	0	0	0	0	4.450975	2.035724	8.549475	-0.003140	0.000662	0.005812	-1.101807	-0.635254	-0.359619	-0.332505	-0.257112	-0.025262	-0.907026	14.047451	-26.718949	136.383334	-0.646668	0.616172	0.449614	-0.590192	-0.777604	0.216808	0.483213	-0.125156	0.866511	0	0	0
13817	0	0	0	0	0	4.437715	2.031677	8.529386	0.000956	0.003109	0.004177	-1.105469	-0.624512	-0.366455	-0.332509	-0.257118	-0.025268	-0.907023	14.048633	-26.719336	136.382519	-0.646657	0.616179	0.449620	-0.590192	-0.777599	0.216825	0.483228	-0.125151	0.866504	0	0	0
13818	0	0	0	0	0	4.437540	2.031635	8.529487	0.001122	0.002393	0.001717	-1.099121	-0.630859	-0.363037	-0.332527	-0.257128	-0.025280	-0.907013	14.051152	-26.719582	136.379470	-0.646622	0.616212	0.449624	-0.590211	-0.777574	0.216863	0.483250	-0.125145	0.866492	0	0	0
13819	0	0	0	0	0	4.443088	2.064282	8.519803	0.003039	0.003399	0.004887	-1.093994	-0.625732	-0.369385	-0.332519	-0.257136	-0.025296	-0.907013	14.053206	-26.719864	136.379790	-0.646624	0.616207	0.449629	-0.590189	-0.777582	0.216893	0.483274	-0.125117	0.866482	0	0	0
13820	0	0	0	0	0	4.437259	2.031625	8.529635	-0.000166	0.000716	0.002460	-1.104492	-0.621582	-0.362305	-0.332536	-0.257152	-0.025299	-0.907002	14.054896	-26.721145	136.376942	-0.646586	0.616232	0.449649	-0.590210	-0.777560	0.216916	0.483300	-0.125132	0.866466	0	0	0
13821	0	0	0	0	0	4.478806	2.025349	8.533137	0.001849	0.002873	0.000115	-1.097656	-0.626465	-0.354492	-0.332551	-0.257159	-0.025314	-0.906994	14.057516	-26.720992	136.374313	-0.646559	0.616263	0.449646	-0.590224	-0.777538	0.216956	0.483319	-0.125117	0.866457	0	0	0
13822	0	0	0	0	0	4.448220	2.010613	8.526284	0.004658	0.003643	-0.000776	-1.096436	-0.628174	-0.360352	-0.332575	-0.257168	-0.025348	-0.906982	14.062671	-26.720195	136.369908	-0.646516	0.616317	0.449634	-0.590242	-0.777502	0.217036	0.483354	-0.125076	0.866444	0	0	0
13823	0	0	0	0	0	4.429163	1.975025	8.515749	0.010348	-0.001894	-0.004688	-1.093994	-0.620117	-0.366211	-0.332608	-0.257214	-0.025400	-0.906955	14.072189	-26.722277	136.362641	-0.646426	0.616387	0.449666	-0.590255	-0.777454	0.217176	0.483459	-0.125030	0.866392	0	0	0
13824	0	0	0	0	0	4.472821	2.081419	8.526518	0.008431	-0.002901	-0.007858	-1.097168	-0.629883	-0.365234	-0.332661	-0.257259	-0.025449	-0.906922	14.081946	-26.724129	136.352809	-0.646310	0.616488	0.449695	-0.590301	-0.777378	0.217320	0.483558	-0.125000	0.866341	0	0	0
13825	0	0	0	0	0	4.476635	1.744680	8.556813	0.024067	-0.007032	-0.014590	-1.096436	-0.626465	-0.360352	-0.332722	-0.257345	-0.025566	-0.906871	14.102154	-26.727354	136.338593	-0.646138	0.616631	0.449745	-0.590314	-0.777284	0.217619	0.483771	-0.124879	0.866240	0	0	0
13826	0	0	0	0	0	4.397538	2.070586	8.547981	0.041779	-0.010870	-0.020607	-1.099609	-0.621582	-0.359863	-0.332791	-0.257480	-0.025769	-0.906802	14.135148	-26.731847	136.319580	-0.645908	0.616821	0.449815	-0.590281	-0.777172	0.218109	0.484118	-0.124639	0.866080	0	0	0
13827	0	0	0	0	0	4.453548	2.029735	8.489321	0.041417	-0.017660	-0.012292	-1.095947	-0.619629	-0.360352	-0.332813	-0.257646	-0.025946	-0.906742	14.165481	-26.741534	136.306038	-0.645708	0.616921	0.449966	-0.590182	-0.777124	0.218549	0.484507	-0.124443	0.865891	0	0	0
13828	0	0	0	0	0	4.458518	2.084307	8.534872	0.046862	-0.020611	-0.016786	-1.095947	-0.631348	-0.357178	-0.332859	-0.257834	-0.026151	-0.906666	14.201016	-26.751955	136.287862	-0.645453	0.617070	0.450129	-0.590099	-0.777042	0.219066	0.484948	-0.124224	0.865676	0	0	0
13829	0	0	0	0	0	4.463833	2.096426	8.499512	0.045964	-0.020369	-0.012717	-1.095703	-0.624756	-0.362793	-0.332882	-0.258020	-0.026344	-0.906599	14.234323	-26.763046	136.273081	-0.645230	0.617176	0.450302	-0.589987	-0.776991	0.219548	0.485380	-0.124013	0.865464	0	0	0
13830	0	0	0	0	0	4.453654	2.035706	8.517489	0.044132	-0.015015	-0.016216	-1.097412	-0.625488	-0.363770	-0.332928	-0.258178	-0.026546	-0.906531	14.267749	-26.770421	136.256127	-0.645006	0.617327	0.450417	-0.589913	-0.776908	0.220038	0.485768	-0.123781	0.865279	0	0	0
13831	0	0	0	0	0	4.437772	2.115401	8.512795	0.044032	-0.021373	-0.015867	-1.088867	-0.630127	-0.357910	-0.332967	-0.258362	-0.026732	-0.906459	14.300719	-26.781414	136.239428	-0.644764	0.617455	0.450588	-0.589829	-0.776837	0.220515	0.486191	-0.123590	0.865069	0	0	0
13832	0	0	0	0	0	4.461778	2.077294	8.504165	0.044280	-0.015728	-0.018659	-1.092285	-0.633057	-0.363525	-0.333024	-0.258523	-0.026936	-0.906386	14.334975	-26.788821	136.220829	-0.644521	0.617624	0.450703	-0.589770	-0.776739	0.221018	0.486584	-0.123361	0.864880	0	0	0
13833	0	0	0	0	0	4.472291	2.035785	8.475445	0.052758	-0.015269	-0.018266	-1.096191	-0.627441	-0.355957	-0.333079	-0.258695	-0.027172	-0.906310	14.373450	-26.795986	136.201386	-0.644271	0.617803	0.450815	-0.589686	-0.776640	0.221584	0.487017	-0.123079	0.864677	0	0	0
13834	0	0	0	0	0	4.516633	2.059664	8.500802	0.042112	-0.014156	-0.022408	-1.094971	-0.634277	-0.354004	-0.333155	-0.258845	-0.027374	-0.906233	14.407412	-26.801965	136.180694	-0.644014	0.618004	0.450908	-0.589661	-0.776516	0.222085	0.487387	-0.122857	0.864500	0	0	0
13835	0	0	0	0	0	4.452892	2.113559	8.502585	0.052269	-0.015319	-0.024616	-1.098877	-0.630859	-0.353271	-0.333227	-0.259017	-0.027619	-0.906150	14.447443	-26.808514	136.158779	-0.643740	0.618214	0.451010	-0.589599	-0.776394	0.222676	0.487823	-0.122570	0.864295	0	0	0
13836	0	0	0	0	0	4.463061	2.072591	8.473956	0.047954	-0.012186	-0.032141	-1.096924	-0.632568	-0.351318	-0.333340	-0.259166	-0.027863	-0.906058	14.487347	-26.811983	136.132342	-0.643435	0.618492	0.451064	-0.589608	-0.776217	0.223271	0.488215	-0.122291	0.864113	0	0	0
13837	0	0	0	0	0	4.467276	2.128330	8.519414	0.046172	-0.016917	-0.029179	-1.095947	-0.629395	-0.357910	-0.333435	-0.259336	-0.028084	-0.905968	14.525309	-26.818845	136.107917	-0.643132	0.618729	0.451171	-0.589596	-0.776065	0.223830	0.488628	-0.122056	0.863912	0	0	0
13838	0	0	0	0	0	4.411018	2.240091	8.534579	0.043684	-0.019130	-0.033188	-1.097656	-0.635254	-0.363037	-0.333559	-0.259509	-0.028299	-0.905866	14.563573	-26.825982	136.079702	-0.642787	0.619007	0.451282	-0.589631	-0.775875	0.224393	0.489039	-0.121853	0.863708	0	0	0
13839	0	0	0	0	0	4.457358	2.159606	8.519502	0.036881	-0.010768	-0.025846	-1.092529	-0.634766	-0.357666	-0.333653	-0.259632	-0.028483	-0.905790	14.594563	-26.829519	136.058075	-0.642533	0.619230	0.451337	-0.589650	-0.775728	0.224853	0.489351	-0.121655	0.863560	0	0	0
13840	0	0	0	0	0	4.472957	2.149734	8.481380	0.032556	-0.010638	-0.024805	-1.093506	-0.640625	-0.360840	-0.333753	-0.259749	-0.028650	-0.905714	14.623489	-26.833130	136.036432	-0.642279	0.619453	0.451394	-0.589685	-0.775577	0.225282	0.489642	-0.121486	0.863419	0	0	0
13841	0	0	0	0	0	4.387907	2.183739	8.530471	0.034469	-0.009614	-0.021636	-1.094238	-0.634521	-0.356445	-0.333843	-0.259864	-0.028818	-0.905643	14.652007	-26.836540	136.016081	-0.642039	0.619662	0.451447	-0.589707	-0.775437	0.225705	0.489929	-0.121310	0.863281	0	0	0
13842	0	0	0	0	0	4.450785	2.199829	8.485820	0.028067	-0.009784	-0.021308	-1.089355	-0.638184	-0.350342	-0.333932	-0.259971	-0.028962	-0.905575	14.677322	-26.840167	135.996745	-0.641810	0.619859	0.451503	-0.589742	-0.775302	0.226079	0.490188	-0.121171	0.863153	0	0	0
13843	0	0	0	0	0	4.439967	2.137970	8.504888	0.026545	-0.008880	-0.021161	-1.097656	-0.644043	-0.356201	-0.334027	-0.260070	-0.029095	-0.905507	14.701212	-26.843426	135.977135	-0.641579	0.620061	0.451554	-0.589794	-0.775159	0.226432	0.490428	-0.121050	0.863034	0	0	0
13844	0	0	0	0	0	4.453338	2.231198	8.507309	0.021581	-0.011085	-0.015465	-1.101318	-0.631104	-0.357178	-0.334098	-0.260173	-0.029200	-0.905448	14.721272	-26.848610	135.961211	-0.641377	0.620211	0.451635	-0.589823	-0.775052	0.226724	0.490657	-0.120969	0.862915	0	0	0
13845	0	0	0	0	0	4.469350	2.132787	8.486434	0.012948	-0.005605	-0.008248	-1.091309	-0.634766	-0.361328	-0.334140	-0.260236	-0.029262	-0.905412	14.733344	-26.851903	135.951628	-0.641255	0.620300	0.451686	-0.589840	-0.774988	0.226899	0.490797	-0.120922	0.862842	0	0	0
13846	0	0	0	0	0	4.478705	2.217582	8.522761	0.014707	-0.006099	-0.016353	-1.095459	-0.637207	-0.346191	-0.334224	-0.260304	-0.029345	-0.905359	14.749350	-26.854188	135.935963	-0.641072	0.620463	0.451722	-0.589908	-0.774867	0.227136	0.490953	-0.120864	0.862761	0	0	0
13847	0	0	0	0	0	4.410621	2.217322	8.478669	0.010471	-0.002600	-0.007111	-1.093506	-0.639648	-0.355469	-0.334270	-0.260350	-0.029399	-0.905327	14.759526	-26.855990	135.926784	-0.640963	0.620555	0.451750	-0.589940	-0.774798	0.227285	0.491058	-0.120824	0.862707	0	0	0
13848	0	0	0	0	0	4.469694	2.137112	8.485165	0.007274	-0.000073	-0.004375	-1.091064	-0.637451	-0.359131	-0.334308	-0.260380	-0.029443	-0.905303	14.767469	-26.856679	135.919543	-0.640880	0.620633	0.451760	-0.589968	-0.774743	0.227403	0.491132	-0.120785	0.862670	0	0	0
13849	0	0	0	0	0	4.486135	2.235462	8.454887	0.004798	0.002930	-0.003240	-1.090576	-0.634766	-0.355225	-0.334349	-0.260391	-0.029473	-0.905284	14.772859	-26.855796	135.913001	-0.640815	0.620711	0.451747	-0.590012	-0.774684	0.227486	0.491164	-0.120759	0.862656	0	0	0
13850	0	0	0	0	0	4.404898	2.100400	8.505293	0.002401	0.004080	0.000954	-1.097900	-0.636475	-0.353271	-0.334369	-0.260395	-0.029495	-0.905275	14.776207	-26.854961	135.909749	-0.640784	0.620752	0.451734	-0.590030	-0.774655	0.227538	0.491183	-0.120733	0.862649	0	0	0
13851	0	0	0	0	0	4.470213	2.249989	8.491990	0.002961	0.005281	0.001806	-1.092041	-0.635010	-0.358154	-0.334380	-0.260394	-0.029517	-0.905270	14.778933	-26.853694	135.907819	-0.640770	0.620780	0.451714	-0.590036	-0.774638	0.227582	0.491193	-0.120700	0.862648	0	0	0
13852	0	0	0	0	0	4.439716	2.234654	8.485434	-0.001838	0.002351	0.005046	-1.098633	-0.640869	-0.354248	-0.334387	-0.260399	-0.029511	-0.905266	14.778833	-26.854415	135.906825	-0.640756	0.620787	0.451725	-0.590049	-0.774629	0.227579	0.491198	-0.120717	0.862643	0	0	0
13853	0	0	0	0	0	4.454876	2.133471	8.465788	-0.009266	0.011361	0.008449	-1.095703	-0.637939	-0.349609	-0.334385	-0.260350	-0.029479	-0.905282	14.772241	-26.850673	135.909785	-0.640809	0.620775	0.451667	-0.590076	-0.774636	0.227487	0.491096	-0.120742	0.862697	0	0	0
13854	0	0	0	0	0	4.455681	2.244106	8.473052	-0.007351	0.007157	0.006464	-1.094238	-0.644287	-0.362793	-0.334392	-0.260325	-0.029454	-0.905287	14.768229	-26.848939	135.910458	-0.640826	0.620777	0.451640	-0.590106	-0.774629	0.227430	0.491037	-0.120772	0.862726	0	0	0
13855	0	0	0	0	0	4.455552	2.156529	8.490393	-0.009910	0.009031	0.013111	-1.079834	-0.638184	-0.356201	-0.334375	-0.260287	-0.029408	-0.905306	14.760242	-26.847144	135.915227	-0.640888	0.620733	0.451612	-0.590115	-0.774657	0.227314	0.490945	-0.120820	0.862772	0	0	0
13856	0	0	0	0	0	4.449423	2.122350	8.501159	-0.013108	0.011559	0.015848	-1.089111	-0.637695	-0.353027	-0.334347	-0.260233	-0.029353	-0.905334	14.749974	-26.844340	135.922448	-0.640982	0.620668	0.451568	-0.590113	-0.774702	0.227165	0.490824	-0.120868	0.862834	0	0	0
13857	0	0	0	0	0	4.448475	2.206872	8.485202	-0.015188	0.011261	0.015140	-1.093994	-0.642334	-0.345215	-0.334340	-0.260176	-0.029281	-0.905355	14.738285	-26.841518	135.927298	-0.641050	0.620629	0.451524	-0.590156	-0.774719	0.226994	0.490684	-0.120955	0.862902	0	0	0
13858	0	0	0	0	0	4.463019	2.190792	8.449238	-0.016309	0.014088	0.018589	-1.092285	-0.636475	-0.350586	-0.334302	-0.260107	-0.029212	-0.905391	14.725229	-26.837709	135.936632	-0.641173	0.620545	0.451465	-0.590152	-0.774777	0.226805	0.490528	-0.121012	0.862982	0	0	0
13859	0	0	0	0	0	4.460134	2.206454	8.507295	-0.017270	0.016192	0.019586	-1.090820	-0.640869	-0.356201	-0.334264	-0.260028	-0.029137	-0.905430	14.710936	-26.833225	135.946575	-0.641306	0.620459	0.451395	-0.590153	-0.774837	0.226599	0.490353	-0.121073	0.863073	0	0	0
13860	0	0	0	0	0	4.430955	2.170538	8.444744	-0.024154	0.018195	0.027272	-1.098389	-0.640381	-0.360840	-0.334197	-0.259927	-0.029028	-0.905487	14.690652	-26.828398	135.961968	-0.641500	0.620313	0.451320	-0.590132	-0.774939	0.226303	0.490124	-0.121165	0.863190	0	0	0
13861	0	0	0	0	0	4.416425	2.206375	8.506543	-0.026637	0.021202	0.028414	-1.089355	-0.636230	-0.361084	-0.334133	-0.259808	-0.028906	-0.905549	14.667881	-26.822009	135.978034	-0.641710	0.620168	0.451220	-0.590128	-0.775039	0.225973	0.489855	-0.121269	0.863329	0	0	0
13862	0	0	0	0	0	4.456831	2.196445	8.511615	-0.031361	0.024637	0.031302	-1.100830	-0.628174	-0.346924	-0.334056	-0.259667	-0.028770	-0.905622	14.641872	-26.814185	135.996970	-0.641959	0.619999	0.451099	-0.590116	-0.775158	0.225596	0.489542	-0.121377	0.863491	0	0	0
13863	0	0	0	0	0	4.466962	2.170795	8.510048	-0.035616	0.022914	0.035403	-1.095947	-0.643311	-0.358398	-0.333958	-0.259527	-0.028604	-0.905704	14.611803	-26.808130	136.019346	-0.642236	0.619781	0.451004	-0.590087	-0.775308	0.225155	0.489214	-0.121529	0.863655	0	0	0
13864	0	0	0	0	0	4.422257	2.147081	8.484920	-0.037144	0.023821	0.035555	-1.093750	-0.629395	-0.352783	-0.333869	-0.259381	-0.028435	-0.905784	14.581358	-26.801355	136.040781	-0.642506	0.619578	0.450899	-0.590076	-0.775446	0.224710	0.488873	-0.121687	0.863826	0	0	0
13865	0	0	0	0	0	4.390561	2.170269	8.560475	-0.035003	0.022264	0.039337	-1.089600	-0.636475	-0.365234	-0.333761	-0.259245	-0.028264	-0.905868	14.550732	-26.796126	136.064347	-0.642790	0.619342	0.450817	-0.590033	-0.775609	0.224258	0.488550	-0.121846	0.863986	0	0	0
13866	0	0	0	0	0	4.410496	2.184100	8.515363	-0.035737	0.021791	0.040949	-1.102051	-0.633057	-0.366699	-0.333647	-0.259111	-0.028090	-0.905954	14.519738	-26.791232	136.088796	-0.643082	0.619094	0.450741	-0.589980	-0.775781	0.223801	0.488230	-0.122006	0.864145	0	0	0
13867	0	0	0	0	0	4.348841	2.149058	8.503484	-0.035981	0.024376	0.040358	-1.101318	-0.637695	-0.348389	-0.333535	-0.258961	-0.027916	-0.906043	14.487807	-26.784584	136.113496	-0.643387	0.618853	0.450637	-0.589936	-0.775950	0.223332	0.487882	-0.122158	0.864320	0	0	0
13868	0	0	0	0	0	4.398799	2.220511	8.545994	-0.041138	0.022902	0.048521	-1.098145	-0.631104	-0.356689	-0.333393	-0.258814	-0.027711	-0.906144	14.451526	-26.780133	136.142820	-0.643729	0.618548	0.450568	-0.589860	-0.776162	0.222793	0.487522	-0.122354	0.864495	0	0	0
13869	0	0	0	0	0	4.424920	2.093118	8.523865	-0.039657	0.013782	0.051797	-1.096436	-0.637451	-0.357178	-0.333228	-0.258713	-0.027490	-0.906240	14.415489	-26.781614	136.173623	-0.644053	0.618194	0.450591	-0.589745	-0.776406	0.222247	0.487233	-0.122595	0.864624	0	0	0
13870	0	0	0	0	0	4.404072	2.155154	8.555646	-0.038418	0.012466	0.059644	-1.094482	-0.631592	-0.354736	-0.333034	-0.258619	-0.027265	-0.906345	14.378403	-26.784506	136.208191	-0.644409	0.617789	0.450636	-0.589584	-0.776690	0.221681	0.486957	-0.122834	0.864745	0	0	0
13871	0	0	0	0	0	4.425390	2.124172	8.607067	-0.039585	0.001855	0.061349	-1.092773	-0.639404	-0.363525	-0.332837	-0.258573	-0.027011	-0.906438	14.340580	-26.793718	136.241776	-0.644719	0.617361	0.450780	-0.589424	-0.776979	0.221093	0.486741	-0.123158	0.864821	0	0	0
13872	0	0	0	0	0	4.430878	2.125555	8.574270	-0.036037	-0.006976	0.065335	-1.098877	-0.635742	-0.364990	-0.332616	-0.258572	-0.026757	-0.906527	14.304640	-26.808170	136.276805	-0.645014	0.616889	0.451005	-0.589214	-0.777301	0.220522	0.486604	-0.123499	0.864850	0	0	0
13873	0	0	0	0	0	4.504853	1.913057	8.536642	-0.021424	-0.017241	0.063041	-1.091064	-0.630127	-0.358154	-0.332401	-0.258639	-0.026549	-0.906593	14.277991	-26.827827	136.307392	-0.645231	0.616437	0.451311	-0.588971	-0.777610	0.220082	0.486610	-0.123806	0.864802	0	0	0
13874	0	0	0	0	0	4.349784	2.249307	8.664903	-0.040808	-0.032259	0.067774	-1.102295	-0.622559	-0.350586	-0.332178	-0.258745	-0.026228	-0.906654	14.240401	-26.856628	136.339971	-0.645418	0.615914	0.451759	-0.588768	-0.777940	0.219458	0.486609	-0.124339	0.864726	0	0	0
13875	0	0	0	0	0	4.414968	2.057267	8.629439	-0.029958	-0.051273	0.073838	-1.100342	-0.628418	-0.358154	-0.331911	-0.258957	-0.025914	-0.906700	14.208194	-26.897146	136.374038	-0.645552	0.615309	0.452390	-0.588467	-0.778327	0.218894	0.486795	-0.124909	0.864540	0	0	0
13876	0	0	0	0	0	4.404984	2.040878	8.640325	-0.015136	-0.079431	0.073426	-1.092285	-0.623047	-0.358154	-0.331636	-0.259320	-0.025624	-0.906705	14.187017	-26.952912	136.402761	-0.645541	0.614681	0.453258	-0.588102	-0.778722	0.218466	0.487249	-0.125533	0.864193	0	0	0
13877	0	0	0	0	0	4.249815	2.043985	8.743490	-0.005739	-0.111692	0.075416	-1.100586	-0.623779	-0.354980	-0.331343	-0.259844	-0.025316	-0.906671	14.172374	-27.026961	136.427801	-0.645385	0.613995	0.454410	-0.587682	-0.779141	0.218102	0.487963	-0.126289	0.863680	0	0	0
13878	0	0	0	0	0	4.226338	2.139775	8.862339	0.001688	-0.165104	0.087220	-1.105225	-0.623779	-0.360107	-0.330994	-0.260625	-0.024942	-0.906584	14.162959	-27.132242	136.451710	-0.645035	0.613149	0.456046	-0.587147	-0.779642	0.217755	0.489069	-0.127306	0.862905	0	0	0
13879	0	0	0	0	0	4.283913	2.122479	8.890430	0.009626	-0.236657	0.090571	-1.112305	-0.621094	-0.351563	-0.330621	-0.261742	-0.024479	-0.906412	14.161570	-27.277831	136.467545	-0.644362	0.612171	0.458306	-0.586543	-0.780182	0.217450	0.490678	-0.128699	0.861784	0	0	0
13880	0	0	0	0	0	4.198896	2.203156	9.026643	0.014528	-0.329040	0.107996	-1.105957	-0.629395	-0.349365	-0.330180	-0.263289	-0.023865	-0.906141	14.165292	-27.477096	136.478642	-0.643321	0.610945	0.461394	-0.585812	-0.780824	0.217115	0.492912	-0.130616	0.860219	0	0	0
13881	0	0	0	0	0	4.164177	2.251647	9.138399	0.010765	-0.446635	0.125266	-1.105957	-0.622070	-0.350830	-0.329671	-0.265363	-0.023014	-0.905743	14.169884	-27.744284	136.482992	-0.641800	0.609408	0.465526	-0.584979	-0.781575	0.216654	0.495875	-0.133274	0.858106	0	0	0
13882	0	0	0	0	0	4.259740	2.307145	9.223970	-0.004378	-0.575170	0.156626	-1.115234	-0.618652	-0.341064	-0.329059	-0.267996	-0.021844	-0.905219	14.166641	-28.087103	136.485634	-0.639797	0.607449	0.470813	-0.584033	-0.782486	0.215920	0.499565	-0.136825	0.855402	0	0	0
13883	0	0	0	0	0	4.275739	2.394519	9.301959	-0.023436	-0.723886	0.188479	-1.116211	-0.614746	-0.324463	-0.328337	-0.271268	-0.020296	-0.904542	14.153364	-28.516883	136.485582	-0.637217	0.605001	0.477418	-0.582978	-0.783565	0.214852	0.504074	-0.141417	0.852004	0	0	0
13884	0	0	0	0	0	4.309642	2.478028	9.373689	-0.057015	-0.907340	0.222621	-1.117676	-0.606689	-0.317871	-0.327524	-0.275316	-0.018253	-0.903657	14.125218	-29.053490	136.477235	-0.633859	0.601989	0.485626	-0.581887	-0.784790	0.213333	0.509539	-0.147356	0.847736	0	0	0
13885	0	0	0	0	0	4.436180	2.745569	9.504540	-0.129959	-1.099181	0.260789	-1.119629	-0.612061	-0.316162	-0.326633	-0.280108	-0.015511	-0.902558	14.057570	-29.702328	136.464887	-0.629702	0.598299	0.495494	-0.580920	-0.786141	0.210983	0.515759	-0.154986	0.842598	0	0	0
13886	0	0	0	0	0	3.706132	2.532403	9.656416	-0.137246	-1.331610	0.308494	-1.125000	-0.606934	-0.299805	-0.325555	-0.285929	-0.012290	-0.901170	13.989519	-30.486716	136.444774	-0.624517	0.593790	0.507339	-0.579733	-0.787725	0.208322	0.523343	-0.164020	0.836187	0	0	0
13887	0	0	0	0	0	4.343857	3.752665	9.665318	-0.242052	-1.579926	0.385909	-1.130615	-0.608398	-0.284668	-0.324281	-0.292680	-0.008076	-0.899508	13.854785	-31.419405	136.436135	-0.618361	0.588114	0.521299	-0.578659	-0.789554	0.204351	0.531775	-0.175292	0.828546	0	0	0
13888	0	0	0	0	0	4.386401	3.007902	9.578184	-0.340222	-1.847176	0.488381	-1.145752	-0.597168	-0.256104	-0.322668	-0.300461	-0.002843	-0.897552	13.650239	-32.515297	136.455228	-0.611217	0.580931	0.537525	-0.577515	-0.791754	0.199002	0.541194	-0.188795	0.819430	0	0	0
13889	0	0	0	0	0	4.419572	3.378367	9.666988	-0.399623	-2.151961	0.643059	-1.145508	-0.585205	-0.233398	-0.320425	-0.309478	0.003386	-0.895287	13.378047	-33.801266	136.533678	-0.603102	0.571649	0.556314	-0.575841	-0.794633	0.192266	0.551974	-0.204392	0.808423	0	0	0
13890	0	0	0	0	0	4.810555	2.687069	9.323172	-0.441998	-2.499080	0.853059	-1.152588	-0.578613	-0.211914	-0.317246	-0.319934	0.010681	-0.892683	13.025525	-35.308313	136.709550	-0.593995	0.559566	0.577976	-0.573234	-0.798482	0.183926	0.564422	-0.222064	0.795056	0	0	0
13891	0	0	0	0	0	5.115294	4.026073	9.560999	-0.416545	-2.908040	1.119012	-1.172363	-0.560303	-0.183838	-0.312759	-0.332168	0.018938	-0.889656	12.602777	-37.076219	137.020346	-0.583692	0.543914	0.602877	-0.569077	-0.803646	0.174080	0.579184	-0.241475	0.778611	0	0	0
13892	0	0	0	0	0	5.077516	4.141198	9.689551	-0.534988	-3.313962	1.476982	-1.188965	-0.541016	-0.145020	-0.306737	-0.345896	0.028942	-0.886245	11.968304	-39.113039	137.552569	-0.572536	0.523667	0.630852	-0.563711	-0.810149	0.160899	0.595342	-0.263497	0.759037	0	0	0
13893	0	0	0	0	0	5.088990	5.221397	9.369393	-0.545917	-3.748616	1.855055	-1.201172	-0.522705	-0.108398	-0.298866	-0.361329	0.040308	-0.882324	11.139156	-41.430585	138.350935	-0.560241	0.498264	0.661712	-0.556522	-0.818109	0.144848	0.613525	-0.287108	0.735633	0	0	0
13894	0	0	0	0	0	7.466078	6.129599	9.145831	-0.528131	-4.082863	2.253334	-1.208984	-0.493164	-0.060791	-0.289000	-0.378017	0.052789	-0.877950	10.066657	-43.969184	139.486578	-0.547165	0.467545	0.694271	-0.547365	-0.827385	0.125801	0.633247	-0.311186	0.708633	0	0	0
13895	0	0	0	0	0	10.875986	5.786294	8.746851	-0.349520	-4.078702	2.502898	-1.217285	-0.465088	-0.013428	-0.277551	-0.394631	0.064928	-0.873508	8.828408	-46.507780	140.945583	-0.534464	0.433641	0.725468	-0.536131	-0.837499	0.105631	0.653385	-0.332490	0.680102	0	0	0
13896	0	0	0	0	0	18.218686	4.448457	9.369145	0.228294	-3.712459	2.442983	-1.234375	-0.426270	0.027100	-0.265182	-0.410290	0.073876	-0.869415	7.780806	-48.816649	142.540110	-0.522680	0.400486	0.752606	-0.521728	-0.848442	0.089146	0.674244	-0.346061	0.652408	0	0	0
13897	0	0	0	0	0	22.005428	10.613720	12.107170	0.482147	-2.494791	2.096822	-1.240479	-0.399170	0.066162	-0.254161	-0.420902	0.079377	-0.867147	6.871398	-50.382255	144.093119	-0.516488	0.373970	0.770316	-0.507609	-0.858203	0.076291	0.689618	-0.351616	0.633082	0	0	0
13898	0	0	0	0	0	18.194849	8.743514	8.140751	-0.119499	-1.647515	1.896620	-1.242432	-0.384277	0.084717	-0.245539	-0.427128	0.085962	-0.865958	5.604480	-51.440650	145.637708	-0.514545	0.351819	0.781963	-0.498686	-0.864643	0.060874	0.697535	-0.358631	0.620345	0	0	0
13899	0	0	0	0	0	14.783938	5.063609	5.929190	-0.122054	-1.508505	1.319682	-1.253418	-0.362061	0.110107	-0.239451	-0.432892	0.091151	-0.864268	4.673757	-52.365489	146.729602	-0.510536	0.334982	0.791922	-0.492816	-0.868710	0.049755	0.704617	-0.364870	0.608592	0	0	0
13900	0	0	0	0	0	11.255240	6.754020	4.209743	0.420422	-1.725729	0.866259	-1.245850	-0.350586	0.147461	-0.234022	-0.440458	0.093258	-0.861704	4.369326	-53.392305	147.414107	-0.502461	0.321163	0.802737	-0.485468	-0.873073	0.045432	0.715439	-0.366876	0.594600	0	0	0
13901	0	0	0	0	0	12.691362	7.077843	5.446274	0.012993	-2.220099	0.806245	-1.245117	-0.338135	0.173584	-0.229455	-0.449680	0.097559	-0.857684	3.871200	-54.699848	148.042055	-0.490278	0.305859	0.816136	-0.481340	-0.875665	0.039014	0.726595	-0.373711	0.576541	0	0	0
13902	0	0	0	0	0	12.923860	5.436901	6.778143	0.009009	-2.151457	0.498440	-1.250977	-0.332520	0.213135	-0.226257	-0.458666	0.101090	-0.853355	3.586134	-55.950543	148.395548	-0.476866	0.293421	0.828555	-0.478887	-0.877178	0.035022	0.737066	-0.380083	0.558812	0	0	0
13903	0	0	0	0	0	10.843849	5.522210	7.210816	-0.063149	-2.018506	0.224604	-1.242676	-0.319092	0.238281	-0.224375	-0.467167	0.104138	-0.848862	3.468854	-57.124555	148.499195	-0.462822	0.283626	0.839853	-0.478226	-0.877623	0.032844	0.746389	-0.386438	0.541820	0	0	0
13904	0	0	0	0	0	9.220991	5.058949	7.397706	-0.221853	-1.958488	0.019338	-1.243408	-0.306885	0.261719	-0.223802	-0.475219	0.107303	-0.844136	3.437452	-58.247366	148.386538	-0.448159	0.275854	0.850328	-0.479824	-0.876797	0.031554	0.754269	-0.393867	0.525306	0	0	0
13905	0	0	0	0	0	8.074700	3.951395	7.609290	-0.321154	-1.859004	-0.192520	-1.227539	-0.319580	0.291016	-0.224359	-0.482829	0.110262	-0.839274	3.546441	-59.308580	148.047250	-0.433079	0.270121	0.859929	-0.483073	-0.875011	0.031573	0.760975	-0.401735	0.509437	0	0	0
13906	0	0	0	0	0	6.367657	3.504278	7.755191	-0.383776	-1.709040	-0.407204	-1.226318	-0.321533	0.309570	-0.226064	-0.489796	0.112788	-0.834430	3.841666	-60.272767	147.451785	-0.417989	0.266783	0.868396	-0.487756	-0.872347	0.033223	0.766406	-0.409679	0.494757	0	0	0
13907	0	0	0	0	0	4.502132	2.821402	7.686427	-0.456886	-1.567399	-0.591522	-1.216309	-0.324219	0.337158	-0.228781	-0.496157	0.114995	-0.829616	4.304496	-61.146623	146.621972	-0.402974	0.265491	0.875857	-0.493713	-0.868871	0.036220	0.770623	-0.417826	0.481209	0	0	0
13908	0	0	0	0	0	2.606219	2.047777	7.724586	-0.488170	-1.435372	-0.757024	-1.197266	-0.329590	0.355957	-0.232320	-0.501991	0.116765	-0.824863	4.952214	-61.933353	145.567662	-0.388064	0.266035	0.882401	-0.500495	-0.864786	0.040616	0.773893	-0.425875	0.468742	0	0	0
13909	0	0	0	0	0	0.960480	1.413515	7.737266	-0.458650	-1.288898	-0.920990	-1.193115	-0.336182	0.368896	-0.236532	-0.507316	0.117819	-0.820245	5.830063	-62.620866	144.280143	-0.373365	0.268486	0.887983	-0.507571	-0.860342	0.046713	0.776511	-0.433273	0.457498	0	0	0
13910	0	0	0	0	0	-0.502796	1.006681	7.806343	-0.405205	-1.108691	-1.053252	-1.182373	-0.337158	0.383057	-0.241240	-0.512010	0.118101	-0.815905	6.915871	-63.187092	142.800273	-0.359299	0.272720	0.892484	-0.514596	-0.855710	0.054315	0.778521	-0.439754	0.447797	0	0	0
13911	0	0	0	0	0	-1.812971	0.465703	7.891320	-0.343781	-0.884223	-1.152848	-1.172363	-0.348389	0.400879	-0.246317	-0.515889	0.117596	-0.812009	8.168545	-63.604167	141.180022	-0.346373	0.278690	0.895744	-0.521355	-0.850999	0.063167	0.779881	-0.445121	0.440060	0	0	0
13912	0	0	0	0	0	-3.020983	-0.189166	8.050105	-0.237425	-0.636352	-1.222299	-1.155029	-0.355469	0.400879	-0.251532	-0.518907	0.116173	-0.808685	9.556738	-63.858240	139.480839	-0.334934	0.286255	0.897707	-0.527386	-0.846471	0.073149	0.780822	-0.448938	0.434479	0	0	0
13913	0	0	0	0	0	-4.118642	-0.626254	8.254162	-0.121968	-0.345758	-1.234837	-1.151123	-0.361084	0.393799	-0.256658	-0.520877	0.113874	-0.806131	10.989307	-63.928084	137.808757	-0.325628	0.295171	0.898243	-0.532428	-0.842319	0.083780	0.781337	-0.450968	0.431440	0	0	0
13914	0	0	0	0	0	-5.175736	-0.933141	8.371977	-0.015761	-0.027119	-1.204265	-1.138428	-0.365967	0.393066	-0.261553	-0.521663	0.110819	-0.804473	12.372539	-63.805094	136.258534	-0.318916	0.305204	0.897298	-0.536445	-0.838618	0.094583	0.781357	-0.451187	0.431174	0	0	0
13915	0	0	0	0	0	-5.813929	-0.195593	8.482776	0.001778	0.288463	-1.181738	-1.128906	-0.370117	0.378174	-0.266479	-0.521167	0.107329	-0.803651	13.639844	-63.492304	134.846493	-0.314748	0.316439	0.894874	-0.540184	-0.834939	0.105250	0.780471	-0.450270	0.433731	0	0	0
13916	0	0	0	0	0	-6.667564	0.196439	8.299366	-0.132269	0.569361	-1.259874	-1.122559	-0.379883	0.357422	-0.272206	-0.519387	0.103802	-0.803347	14.801613	-63.000042	133.461162	-0.312283	0.329524	0.891007	-0.545178	-0.830259	0.115982	0.777985	-0.449538	0.438925	0	0	0
13917	0	0	0	0	0	-7.042167	-0.131073	8.433227	-0.304921	0.713601	-1.402916	-1.104980	-0.390137	0.347900	-0.279016	-0.516832	0.100387	-0.803092	15.927623	-62.392995	131.998493	-0.310069	0.344385	0.886147	-0.551918	-0.824145	0.127169	0.774108	-0.449649	0.445614	0	0	0
13918	0	0	0	0	0	-6.413677	-1.011385	8.544073	-0.314070	0.875561	-1.602657	-1.112061	-0.398193	0.318848	-0.286711	-0.513681	0.096267	-0.802908	17.144230	-61.651828	130.417742	-0.307858	0.361505	0.880078	-0.559307	-0.817059	0.139969	0.769675	-0.449143	0.453730	0	0	0
13919	0	0	0	0	0	-5.820553	-1.294532	8.904738	-0.295380	1.063279	-1.779339	-1.091553	-0.424805	0.291504	-0.295131	-0.509830	0.091331	-0.802888	18.411314	-60.760144	128.779949	-0.305942	0.380788	0.872582	-0.567042	-0.809112	0.154276	0.764763	-0.447591	0.463464	0	0	0
13920	0	0	0	0	0	-4.680558	-1.510443	9.244166	-0.312634	1.259268	-1.871331	-1.078125	-0.431641	0.265625	-0.304017	-0.505155	0.085939	-0.803123	19.602221	-59.729676	127.202509	-0.304784	0.401502	0.863657	-0.575151	-0.800376	0.169113	0.759149	-0.445190	0.474866	0	0	0
13921	0	0	0	0	0	-3.081184	-1.996237	9.562888	-0.361443	1.484623	-1.905141	-1.076172	-0.451172	0.233643	-0.313218	-0.499436	0.080293	-0.803749	20.628525	-58.554843	125.766899	-0.304918	0.423294	0.853140	-0.583699	-0.790895	0.183793	0.752543	-0.441936	0.488234	0	0	0
13922	0	0	0	0	0	-1.373202	-2.390470	9.870446	-0.373390	1.736426	-1.888230	-1.058350	-0.464355	0.206055	-0.322430	-0.492609	0.074340	-0.804891	21.461699	-57.238570	124.531449	-0.306751	0.445801	0.840931	-0.592283	-0.781025	0.197993	0.745053	-0.437335	0.503621	0	0	0
13923	0	0	0	0	0	0.538825	-2.204906	9.935117	-0.382183	2.008198	-1.840534	-1.048096	-0.488281	0.163818	-0.331517	-0.484557	0.068080	-0.806639	22.084246	-55.777907	123.523486	-0.310603	0.468852	0.826864	-0.600806	-0.770924	0.211446	0.736586	-0.431109	0.521140	0	0	0
13924	0	0	0	0	0	2.607751	-1.415311	10.057924	-0.471407	2.268520	-1.746724	-1.044922	-0.500488	0.131104	-0.340462	-0.475189	0.061970	-0.808975	22.439840	-54.196598	122.760206	-0.316561	0.491956	0.811029	-0.609746	-0.760490	0.223304	0.726636	-0.423832	0.540710	0	0	0
13925	0	0	0	0	0	4.732204	-0.761532	10.193762	-0.632584	2.515381	-1.638995	-1.036865	-0.511719	0.077881	-0.349357	-0.464397	0.056326	-0.811858	22.508730	-52.504743	122.223551	-0.324571	0.514941	0.793404	-0.619570	-0.749555	0.233023	0.714693	-0.415937	0.562326	0	0	0
13926	0	0	0	0	0	6.543577	-0.413179	10.144618	-0.763175	2.725152	-1.578180	-1.019531	-0.525146	0.046631	-0.358278	-0.452405	0.050980	-0.815087	22.379650	-50.717130	121.831004	-0.333933	0.537929	0.774030	-0.630184	-0.738075	0.241067	0.700969	-0.407281	0.585462	0	0	0
13927	0	0	0	0	0	7.883124	0.058446	10.015438	-0.818809	2.866472	-1.591673	-1.002197	-0.531250	0.007813	-0.367319	-0.439603	0.045557	-0.818383	22.176812	-48.850444	121.483092	-0.343652	0.561161	0.752995	-0.641269	-0.726003	0.248383	0.686059	-0.397515	0.609348	0	0	0
13928	0	0	0	0	0	9.065583	0.698073	9.800570	-0.838875	2.902461	-1.612775	-0.986816	-0.547119	-0.038574	-0.376392	-0.426508	0.040098	-0.821470	21.957613	-46.962880	121.131436	-0.352840	0.584185	0.730912	-0.652593	-0.713443	0.255190	0.670542	-0.386946	0.632966	0	0	0
13929	0	0	0	0	0	9.917154	1.065940	9.429619	-0.850790	2.857607	-1.597920	-0.973145	-0.563965	-0.066406	-0.385311	-0.413434	0.034785	-0.824256	21.723609	-45.101327	120.779984	-0.361216	0.606428	0.708356	-0.663952	-0.700651	0.261258	0.654744	-0.375944	0.655725	0	0	0
13930	0	0	0	0	0	10.358200	1.231969	8.780543	-0.794423	2.687068	-1.541841	-0.951904	-0.573242	-0.115479	-0.393748	-0.401064	0.029682	-0.826577	21.520115	-43.345354	120.419844	-0.368220	0.627118	0.686394	-0.674735	-0.688162	0.266768	0.639646	-0.364905	0.676534	0	0	0
13931	0	0	0	0	0	10.639409	1.346548	8.080539	-0.679784	2.367583	-1.453422	-0.936035	-0.577393	-0.144043	-0.401453	-0.390119	0.024898	-0.828265	21.390082	-41.777108	120.036843	-0.373286	0.645592	0.666235	-0.684445	-0.676432	0.271984	0.626253	-0.354473	0.694375	0	0	0
13932	0	0	0	0	0	11.154265	1.322395	7.569711	-0.482706	1.918823	-1.357562	-0.913086	-0.593506	-0.166748	-0.408250	-0.381363	0.020388	-0.829143	21.399787	-40.470523	119.602341	-0.375788	0.661444	0.649057	-0.692545	-0.665833	0.277574	0.615763	-0.345192	0.708292	0	0	0
13933	0	0	0	0	0	13.232975	2.387281	7.985422	-0.318031	1.468658	-1.221705	-0.901855	-0.594238	-0.195313	-0.414075	-0.374736	0.016366	-0.829366	21.508466	-39.430282	119.149783	-0.376231	0.674573	0.635139	-0.699104	-0.656549	0.283191	0.608033	-0.337483	0.718611	0	0	0
13934	0	0	0	0	0	15.475775	3.070743	8.801582	-0.454514	1.295900	-0.997514	-0.883789	-0.605957	-0.208740	-0.419178	-0.368508	0.013691	-0.829641	21.462197	-38.530851	118.810154	-0.376984	0.685444	0.622936	-0.705625	-0.648205	0.286224	0.599981	-0.331657	0.728029	0	0	0
13935	0	0	0	0	0	16.233958	1.777183	8.669716	-0.426512	1.289713	-0.841341	-0.877930	-0.611572	-0.225586	-0.423552	-0.362313	0.011195	-0.830185	21.360935	-37.666030	118.578544	-0.378665	0.695141	0.611058	-0.711366	-0.640957	0.288329	0.592091	-0.325505	0.737207	0	0	0
13936	0	0	0	0	0	17.600634	1.593801	8.219692	-0.227170	1.414247	-0.696726	-0.861084	-0.607910	-0.244629	-0.426945	-0.356008	0.007874	-0.831212	21.293025	-36.766847	118.476452	-0.381952	0.704158	0.598560	-0.715371	-0.635311	0.290902	0.585113	-0.317082	0.746393	0	0	0
13937	0	0	0	0	0	17.472494	1.499570	7.028534	-0.081044	1.658489	-0.508486	-0.853027	-0.616699	-0.268066	-0.429276	-0.348954	0.003756	-0.833030	21.195699	-35.774941	118.562638	-0.387907	0.712578	0.584603	-0.717821	-0.631416	0.293336	0.578153	-0.305853	0.756435	0	0	0
13938	0	0	0	0	0	16.151494	0.567789	5.023889	0.111571	1.784221	-0.304475	-0.836670	-0.623291	-0.285889	-0.430389	-0.341771	-0.001075	-0.835438	21.117187	-34.759424	118.810193	-0.395914	0.719862	0.570132	-0.718392	-0.629528	0.295986	0.571983	-0.292393	0.766382	0	0	0
13939	0	0	0	0	0	14.427831	0.151535	2.992478	0.321017	1.700647	-0.070365	-0.831299	-0.614014	-0.290039	-0.430133	-0.335351	-0.006203	-0.838145	21.089765	-33.835442	119.185270	-0.405049	0.725188	0.556810	-0.716868	-0.629893	0.298889	0.567482	-0.278094	0.775002	0	0	0
13940	0	0	0	0	0	12.975643	0.111871	1.306357	0.529916	1.393601	0.155240	-0.823242	-0.614258	-0.305176	-0.428564	-0.330664	-0.011166	-0.840755	21.151465	-33.123482	119.624727	-0.413988	0.728019	0.546445	-0.713250	-0.632417	0.302197	0.565586	-0.264646	0.781073	0	0	0
13941	0	0	0	0	0	12.326446	0.610953	0.418224	0.677339	0.906172	0.334286	-0.818359	-0.615967	-0.310791	-0.426005	-0.328327	-0.015407	-0.842902	21.304456	-32.708682	120.057241	-0.421442	0.728278	0.540368	-0.708044	-0.636565	0.305711	0.566622	-0.253765	0.783928	0	0	0
13942	0	0	0	0	0	13.598654	2.162738	0.171710	0.650311	0.444707	0.478360	-0.818359	-0.609375	-0.304688	-0.422908	-0.327889	-0.018315	-0.844572	21.457244	-32.572150	120.465712	-0.427275	0.726363	0.538361	-0.702342	-0.641627	0.308271	0.569343	-0.246397	0.784306	0	0	0
13943	0	0	0	0	0	14.273328	2.429005	-0.153484	0.390129	0.185434	0.536324	-0.822021	-0.608887	-0.316406	-0.420009	-0.327987	-0.019479	-0.845954	21.475368	-32.585783	120.847025	-0.432034	0.723393	0.538562	-0.697838	-0.646427	0.308472	0.571287	-0.242558	0.784090	0	0	0
13944	0	0	0	0	0	13.769905	1.513725	-1.247045	0.328527	-0.054961	0.430927	-0.815186	-0.606934	-0.306396	-0.417676	-0.328969	-0.020052	-0.846714	21.526980	-32.706378	121.101214	-0.434653	0.720497	0.540334	-0.694111	-0.650289	0.308761	0.573835	-0.240848	0.782755	0	0	0
13945	0	0	0	0	0	13.408372	2.099031	-2.326203	0.371045	-0.344893	0.266510	-0.813232	-0.616943	-0.297607	-0.415995	-0.331240	-0.020467	-0.846646	21.697217	-32.946673	121.179196	-0.434456	0.717960	0.543858	-0.690842	-0.653058	0.310245	0.577915	-0.240932	0.779722	0	0	0
13946	0	0	0	0	0	12.585225	3.047375	-3.114260	0.284346	-0.717667	0.152436	-0.815430	-0.603760	-0.308350	-0.414974	-0.334901	-0.019931	-0.845719	21.910144	-33.361669	121.088671	-0.431275	0.715253	0.549922	-0.688554	-0.654798	0.311663	0.583006	-0.244238	0.774888	0	0	0
13947	0	0	0	0	0	12.697003	4.027421	-3.007531	0.039832	-1.160722	0.102151	-0.822021	-0.605957	-0.291260	-0.414609	-0.339910	-0.017522	-0.843951	22.065198	-34.000864	120.850134	-0.425121	0.711731	0.559205	-0.687908	-0.655585	0.311434	0.588264	-0.252284	0.768309	0	0	0
13948	0	0	0	0	0	13.010448	3.577240	-2.438674	-0.236262	-1.454050	0.069096	-0.829834	-0.604248	-0.285156	-0.414860	-0.345570	-0.013399	-0.841601	22.122579	-34.788448	120.509811	-0.416944	0.707554	0.570548	-0.689033	-0.655423	0.309279	0.592782	-0.264174	0.760803	0	0	0
13949	0	0	0	0	0	21.080911	6.968065	0.740300	-0.266705	-1.784943	0.740871	-0.835938	-0.597168	-0.263916	-0.412327	-0.352578	-0.007295	-0.840013	21.965700	-35.896595	120.516830	-0.411350	0.697865	0.586324	-0.687577	-0.659866	0.303010	0.598355	-0.278500	0.751271	0	0	0
13950	0	0	0	0	0	27.080209	17.642716	11.905532	-1.956375	0.192231	0.275263	-0.844238	-0.589600	-0.282959	-0.414618	-0.347748	0.001005	-0.840930	20.713054	-35.852209	120.742467	-0.414327	0.696630	0.585696	-0.698027	-0.656182	0.286675	0.584030	-0.290055	0.758141	0	0	0
13951	0	0	0	0	0	13.672136	3.194531	2.875572	-0.882118	2.638114	-1.107044	-0.821045	-0.596436	-0.305420	-0.420797	-0.334814	-0.002681	-0.843103	20.256314	-34.215642	120.657845	-0.421659	0.711346	0.562309	-0.707755	-0.645845	0.286299	0.566822	-0.277256	0.775784	0	0	0
13952	0	0	0	0	0	1.186455	2.123005	8.812018	-1.159209	1.727033	-0.504136	-0.819092	-0.594971	-0.330566	-0.424840	-0.325088	-0.002278	-0.844881	19.551826	-33.187819	120.731360	-0.427657	0.719360	0.547385	-0.716398	-0.639011	0.280070	0.551256	-0.272372	0.788625	0	0	0
13953	0	0	0	0	0	6.213390	1.223405	13.398254	-0.676189	2.245681	-0.345366	-0.803955	-0.589600	-0.357910	-0.427368	-0.314159	-0.004753	-0.847725	19.015122	-31.909477	121.009001	-0.437322	0.727567	0.528579	-0.721594	-0.634669	0.276582	0.536704	-0.260464	0.802563	0	0	0
13954	0	0	0	0	0	-2.198119	3.856456	12.416218	-0.231689	2.048547	-0.048771	-0.793457	-0.602539	-0.366943	-0.427892	-0.304982	-0.008230	-0.850780	18.670534	-30.790610	121.417110	-0.447789	0.733104	0.511902	-0.723064	-0.633681	0.275002	0.525988	-0.246995	0.813837	0	0	0
13955	0	0	0	0	0	4.449120	8.737069	9.436470	-0.481275	1.481204	0.193774	-0.787354	-0.593506	-0.386719	-0.427753	-0.297670	-0.009056	-0.853428	18.178025	-30.021952	121.845554	-0.456841	0.735503	0.500332	-0.724720	-0.633891	0.270115	0.515826	-0.239201	0.822622	0	0	0
13956	0	0	0	0	0	8.458710	2.915634	7.771630	-0.897338	1.108969	0.365394	-0.786865	-0.580322	-0.393799	-0.427493	-0.291045	-0.007059	-0.855858	17.441702	-29.482108	122.294279	-0.465085	0.735855	0.492152	-0.727637	-0.634400	0.260922	0.504222	-0.236757	0.830486	0	0	0
13957	0	0	0	0	0	6.057522	-3.320354	10.654692	-0.713068	0.691109	0.251407	-0.782959	-0.578613	-0.404541	-0.427450	-0.286589	-0.005119	-0.857396	16.892668	-29.147811	122.581511	-0.470307	0.735921	0.487064	-0.730053	-0.634521	0.253782	0.495816	-0.236227	0.835681	0	0	0
13958	0	0	0	0	0	3.606343	-3.281325	10.681394	-0.115618	0.182553	-0.023557	-0.789063	-0.576416	-0.409180	-0.427737	-0.285577	-0.005051	-0.857590	16.819498	-29.044931	122.596783	-0.470973	0.736531	0.485495	-0.730761	-0.634031	0.252968	0.494138	-0.235640	0.836840	0	0	0
13959	0	0	0	0	0	4.814716	1.975731	8.735492	0.122733	-0.052227	-0.199637	-0.789795	-0.580078	-0.405029	-0.428444	-0.286078	-0.005750	-0.857066	16.957644	-29.041869	122.457094	-0.469190	0.737699	0.485449	-0.731120	-0.632805	0.254992	0.495302	-0.235281	0.836253	0	0	0
13960	0	0	0	0	0	5.111851	2.108063	8.017029	0.074078	-0.079067	-0.265090	-0.785889	-0.591064	-0.396240	-0.429502	-0.286586	-0.006281	-0.856363	17.090854	-29.041840	122.271151	-0.466794	0.739218	0.485448	-0.732018	-0.630978	0.256936	0.496239	-0.235421	0.835658	0	0	0
13961	0	0	0	0	0	5.368620	1.938345	7.748269	0.138671	-0.036920	-0.277317	-0.783691	-0.587402	-0.398682	-0.430516	-0.287052	-0.007191	-0.855690	17.260232	-29.016651	122.085837	-0.464514	0.740905	0.485064	-0.732648	-0.629208	0.259468	0.497448	-0.234854	0.835098	0	0	0
