// General information: 
//  MT Manager version: 2022.2.0 
//  XDA version: 2022.2.0 build 7381 rev 124627 built on 2023-07-19
// Device information: 
//  DeviceId: 10B426ED
//  ProductCode: MTW2-3A7G6
//  Firmware Version: 4.14.0
//  Hardware Version: 3.0.0
// Device settings: 
//  Filter Profile: human(46.1)
//  Option Flags: Orientation Smoother Disabled, Position/Velocity Smoother Disabled, Continuous Zero Rotation Update Disabled, AHS Disabled, ICC Disabled
// Coordinate system: ENU
PacketCounter	SampleTimeFine	Year	Month	Day	Second	Acc_X	Acc_Y	Acc_Z	Gyr_X	Gyr_Y	Gyr_Z	Mag_X	Mag_Y	Mag_Z	Quat_q0	Quat_q1	Quat_q2	Quat_q3	Roll	Pitch	Yaw	Mat[1][1]	Mat[2][1]	Mat[3][1]	Mat[1][2]	Mat[2][2]	Mat[3][2]	Mat[1][3]	Mat[2][3]	Mat[3][3]	Vel_E	Vel_N	Vel_U
13511	0	0	0	0	0	9.667623	1.267412	-1.011705	0.007456	0.001056	-0.001346	-0.487305	-0.580566	-0.437988	0.671760	0.153731	-0.722766	0.052103	125.047783	-80.776314	-108.255156	-0.050210	-0.152222	0.987070	-0.292224	0.947304	0.131225	-0.955031	-0.281857	-0.092048	0	0	0
13512	0	0	0	0	0	9.690414	1.272984	-1.004924	0.007456	0.001056	-0.001346	-0.481201	-0.581543	-0.432373	0.671756	0.153739	-0.722766	0.052125	125.054162	-80.777130	-108.259092	-0.050217	-0.152205	0.987072	-0.292265	0.947295	0.131203	-0.955018	-0.281898	-0.092054	0	0	0
13513	0	0	0	0	0	9.690438	1.272977	-1.004703	0.007738	0.005500	-0.000076	-0.490967	-0.583740	-0.429688	0.671768	0.153745	-0.722752	0.052157	125.050095	-80.780080	-108.251946	-0.050182	-0.152163	0.987081	-0.292313	0.947284	0.131168	-0.955005	-0.281955	-0.092016	0	0	0
13514	0	0	0	0	0	9.673154	1.296366	-0.964966	0.008190	0.005234	-0.005231	-0.488037	-0.583252	-0.430908	0.671778	0.153772	-0.722735	0.052175	125.037688	-80.780343	-108.235762	-0.050137	-0.152173	0.987081	-0.292374	0.947264	0.131184	-0.954989	-0.282020	-0.091985	0	0	0
13515	0	0	0	0	0	9.715682	1.237659	-0.971485	0.000753	0.004909	-0.005991	-0.482910	-0.584717	-0.431396	0.671794	0.153776	-0.722720	0.052162	125.019334	-80.780323	-108.218197	-0.050091	-0.152189	0.987081	-0.292358	0.947264	0.131214	-0.954996	-0.282009	-0.091943	0	0	0
13516	0	0	0	0	0	9.642870	1.282529	-0.938748	0.006759	-0.001664	-0.001675	-0.484863	-0.582764	-0.433594	0.671780	0.153789	-0.722730	0.052182	125.033108	-80.779962	-108.229265	-0.050122	-0.152185	0.987080	-0.292405	0.947252	0.131197	-0.954980	-0.282052	-0.091978	0	0	0
13517	0	0	0	0	0	9.679783	1.305278	-0.905660	0.011183	0.001582	-0.002020	-0.484619	-0.585205	-0.434082	0.671775	0.153813	-0.722726	0.052218	125.038391	-80.780711	-108.229592	-0.050119	-0.152172	0.987082	-0.292487	0.947229	0.131178	-0.954955	-0.282135	-0.091983	0	0	0
13518	0	0	0	0	0	9.689627	1.273064	-0.912685	0.004557	-0.002924	-0.002556	-0.483643	-0.578125	-0.435059	0.671759	0.153821	-0.722739	0.052224	125.052233	-80.779557	-108.242289	-0.050159	-0.152180	0.987079	-0.292509	0.947224	0.131172	-0.954946	-0.282150	-0.092026	0	0	0
13519	0	0	0	0	0	9.687138	1.314899	-0.938214	0.005572	0.005699	-0.005172	-0.492920	-0.585205	-0.422607	0.671774	0.153837	-0.722721	0.052232	125.036015	-80.780182	-108.224091	-0.050107	-0.152186	0.987081	-0.292539	0.947212	0.131189	-0.954940	-0.282186	-0.091982	0	0	0
13520	0	0	0	0	0	9.689057	1.295711	-1.016483	0.002655	0.000992	-0.004274	-0.484863	-0.584961	-0.421143	0.671772	0.153844	-0.722721	0.052231	125.035381	-80.779503	-108.222932	-0.050108	-0.152198	0.987079	-0.292548	0.947208	0.131199	-0.954937	-0.282194	-0.091988	0	0	0
13521	0	0	0	0	0	9.704396	1.292461	-0.977025	-0.002994	0.003651	-0.003212	-0.487793	-0.581055	-0.418945	0.671787	0.153825	-0.722713	0.052213	125.024148	-80.780373	-108.214756	-0.050081	-0.152191	0.987081	-0.292496	0.947223	0.131205	-0.954955	-0.282146	-0.091953	0	0	0
13522	0	0	0	0	0	9.692744	1.234090	-0.977213	-0.009057	0.008034	-0.001209	-0.493652	-0.585449	-0.431885	0.671816	0.153787	-0.722695	0.052191	125.003585	-80.783287	-108.199229	-0.050024	-0.152157	0.987090	-0.292407	0.947251	0.131197	-0.954985	-0.282069	-0.091877	0	0	0
13523	0	0	0	0	0	9.701454	1.222770	-0.996019	-0.003805	0.007830	-0.003437	-0.482178	-0.577148	-0.437012	0.671846	0.153765	-0.722673	0.052172	124.979335	-80.785424	-108.178336	-0.049957	-0.152140	0.987096	-0.292347	0.947269	0.131206	-0.955007	-0.282020	-0.091801	0	0	0
13524	0	0	0	0	0	9.648478	1.202549	-0.976700	0.010730	0.001849	0.003136	-0.491699	-0.581787	-0.433838	0.671841	0.153769	-0.722674	0.052223	124.994999	-80.788589	-108.189591	-0.049970	-0.152078	0.987104	-0.292420	0.947256	0.131136	-0.954984	-0.282096	-0.091805	0	0	0
13525	0	0	0	0	0	9.708152	1.230722	-0.937174	0.023309	-0.007187	-0.006027	-0.483887	-0.578613	-0.424561	0.671796	0.153851	-0.722694	0.052282	125.024480	-80.784575	-108.207393	-0.050039	-0.152129	0.987093	-0.292620	0.947193	0.131145	-0.954919	-0.282281	-0.091913	0	0	0
13526	0	0	0	0	0	9.711103	1.300980	-0.917383	0.018995	-0.001278	0.002011	-0.493896	-0.579590	-0.431152	0.671772	0.153890	-0.722702	0.052358	125.052445	-80.786127	-108.225916	-0.050080	-0.152087	0.987098	-0.292779	0.947153	0.131079	-0.954868	-0.282437	-0.091961	0	0	0
13527	0	0	0	0	0	9.695733	1.304351	-0.957039	0.019428	-0.002276	-0.001039	-0.488281	-0.579346	-0.435059	0.671747	0.153940	-0.722710	0.052424	125.075603	-80.786066	-108.239565	-0.050116	-0.152076	0.987097	-0.292939	0.947109	0.131042	-0.954817	-0.282592	-0.092015	0	0	0
13528	0	0	0	0	0	9.688220	1.295380	-0.925199	0.011730	-0.006318	-0.005174	-0.483887	-0.578369	-0.421387	0.671713	0.153978	-0.722732	0.052444	125.099348	-80.782683	-108.258495	-0.050185	-0.152115	0.987088	-0.293024	0.947081	0.131052	-0.954787	-0.282664	-0.092103	0	0	0
13529	0	0	0	0	0	9.678216	1.328112	-0.919056	-0.004685	-0.006962	-0.003028	-0.489502	-0.576660	-0.426025	0.671690	0.153955	-0.722761	0.052412	125.118179	-80.780144	-108.281757	-0.050260	-0.152136	0.987081	-0.292955	0.947101	0.131057	-0.954804	-0.282583	-0.092171	0	0	0
13530	0	0	0	0	0	9.695455	1.305273	-0.958595	-0.012236	-0.000387	-0.003684	-0.487793	-0.573242	-0.433838	0.671694	0.153911	-0.722771	0.052359	125.114735	-80.779281	-108.286367	-0.050277	-0.152146	0.987078	-0.292822	0.947140	0.131075	-0.954844	-0.282448	-0.092171	0	0	0
13531	0	0	0	0	0	9.678766	1.330262	-1.010652	-0.015115	-0.003638	-0.007000	-0.491455	-0.589111	-0.436035	0.671692	0.153867	-0.722787	0.052279	125.109923	-80.775976	-108.291730	-0.050309	-0.152196	0.987069	-0.292656	0.947184	0.131129	-0.954893	-0.282274	-0.092193	0	0	0
13532	0	0	0	0	0	9.705149	1.274339	-0.965525	-0.015530	-0.001914	-0.006059	-0.487549	-0.581543	-0.433838	0.671696	0.153815	-0.722801	0.052200	125.102896	-80.773613	-108.295335	-0.050332	-0.152231	0.987063	-0.292481	0.947232	0.131174	-0.954946	-0.282095	-0.092201	0	0	0
13533	0	0	0	0	0	9.681083	1.290024	-0.984855	-0.004520	0.004381	-0.001658	-0.490234	-0.580811	-0.427002	0.671713	0.153785	-0.722792	0.052182	125.091846	-80.775454	-108.288230	-0.050303	-0.152207	0.987068	-0.292413	0.947254	0.131166	-0.954968	-0.282033	-0.092157	0	0	0
13534	0	0	0	0	0	9.682288	1.269798	-0.971667	0.003801	0.003442	-0.009103	-0.485352	-0.586182	-0.427002	0.671721	0.153812	-0.722780	0.052170	125.074842	-80.773353	-108.270036	-0.050266	-0.152257	0.987062	-0.292432	0.947240	0.131223	-0.954964	-0.282052	-0.092139	0	0	0
13535	0	0	0	0	0	9.689686	1.279573	-1.003574	0.003648	0.008884	-0.004786	-0.488525	-0.579102	-0.426514	0.671749	0.153820	-0.722752	0.052174	125.049126	-80.775208	-108.243331	-0.050185	-0.152251	0.987067	-0.292443	0.947235	0.131238	-0.954965	-0.282075	-0.092062	0	0	0
13536	0	0	0	0	0	9.684724	1.229524	-0.944833	-0.002958	0.005106	-0.007428	-0.491211	-0.579102	-0.431152	0.671767	0.153820	-0.722737	0.052147	125.027033	-80.774347	-108.223416	-0.050137	-0.152282	0.987065	-0.292405	0.947240	0.131286	-0.954979	-0.282040	-0.092020	0	0	0
13537	0	0	0	0	0	9.666126	1.274052	-0.917875	0.000732	0.004176	-0.003887	-0.488525	-0.582031	-0.432129	0.671780	0.153816	-0.722726	0.052141	125.015057	-80.775073	-108.212324	-0.050103	-0.152280	0.987067	-0.292388	0.947244	0.131295	-0.954986	-0.282028	-0.091985	0	0	0
13538	0	0	0	0	0	9.684647	1.230737	-0.944040	-0.004745	0.002120	-0.009250	-0.482422	-0.584229	-0.432861	0.671790	0.153814	-0.722721	0.052095	124.996739	-80.772500	-108.197933	-0.050079	-0.152335	0.987059	-0.292322	0.947255	0.131360	-0.955008	-0.281961	-0.091968	0	0	0
13539	0	0	0	0	0	9.685774	1.210864	-0.931263	-0.006153	-0.004048	-0.007799	-0.491211	-0.588135	-0.421387	0.671780	0.153802	-0.722736	0.052044	124.996666	-80.768686	-108.202896	-0.050113	-0.152393	0.987049	-0.292242	0.947272	0.131414	-0.955031	-0.281872	-0.092006	0	0	0
13540	0	0	0	0	0	9.673282	1.285322	-0.950240	-0.008112	-0.002319	-0.003196	-0.486084	-0.583252	-0.428711	0.671774	0.153775	-0.722751	0.052008	125.001487	-80.767317	-108.212932	-0.050147	-0.152406	0.987045	-0.292157	0.947297	0.131426	-0.955055	-0.281782	-0.092030	0	0	0
13541	0	0	0	0	0	9.704743	1.279452	-0.962839	-0.000118	0.006899	0.000104	-0.480713	-0.584717	-0.436768	0.671797	0.153753	-0.722734	0.052014	124.989235	-80.770810	-108.202053	-0.050099	-0.152359	0.987055	-0.292130	0.947309	0.131396	-0.955065	-0.281766	-0.091968	0	0	0
13542	0	0	0	0	0	9.683184	1.253426	-0.956586	-0.002860	-0.002523	-0.005425	-0.485107	-0.579834	-0.421875	0.671788	0.153746	-0.722745	0.051985	124.991808	-80.768422	-108.207551	-0.050126	-0.152393	0.987048	-0.292084	0.947319	0.131426	-0.955078	-0.281713	-0.091997	0	0	0
13543	0	0	0	0	0	9.696777	1.292690	-1.034222	0.006624	0.004508	0.000536	-0.490234	-0.577148	-0.428467	0.671797	0.153746	-0.722735	0.052015	124.991197	-80.771332	-108.204551	-0.050103	-0.152348	0.987056	-0.292121	0.947313	0.131386	-0.955068	-0.281758	-0.091967	0	0	0
13544	0	0	0	0	0	9.691894	1.242041	-0.975568	0.005829	0.009415	-0.001797	-0.494141	-0.577148	-0.431885	0.671822	0.153752	-0.722709	0.052040	124.973636	-80.774581	-108.184373	-0.050032	-0.152312	0.987065	-0.292160	0.947304	0.131368	-0.955060	-0.281808	-0.091895	0	0	0
13545	0	0	0	0	0	9.670389	1.216102	-0.968686	-0.000063	0.009083	-0.006221	-0.484375	-0.582031	-0.432617	0.671854	0.153753	-0.722679	0.052027	124.942297	-80.775819	-108.154125	-0.049945	-0.152318	0.987069	-0.292137	0.947307	0.131401	-0.955071	-0.281796	-0.091811	0	0	0
13546	0	0	0	0	0	9.689928	1.262461	-0.895653	0.004856	0.002250	-0.003395	-0.483154	-0.574951	-0.429932	0.671855	0.153760	-0.722676	0.052035	124.940846	-80.776060	-108.151401	-0.049936	-0.152317	0.987069	-0.292158	0.947300	0.131400	-0.955066	-0.281818	-0.091805	0	0	0
13547	0	0	0	0	0	9.664623	1.298519	-0.928255	0.006047	-0.005110	0.000105	-0.481445	-0.577148	-0.427002	0.671830	0.153762	-0.722698	0.052054	124.966834	-80.775609	-108.175685	-0.050003	-0.152303	0.987068	-0.292190	0.947295	0.131364	-0.955052	-0.281842	-0.091869	0	0	0
13548	0	0	0	0	0	9.680642	1.296320	-0.980912	0.002791	-0.005180	-0.006486	-0.481689	-0.579834	-0.426514	0.671808	0.153775	-0.722717	0.052038	124.978904	-80.771916	-108.187889	-0.050055	-0.152353	0.987058	-0.292192	0.947290	0.131397	-0.955049	-0.281833	-0.091933	0	0	0
13549	0	0	0	0	0	9.720711	1.279011	-1.013651	0.008564	0.002050	-0.001961	-0.487549	-0.583496	-0.421875	0.671807	0.153791	-0.722712	0.052065	124.981454	-80.772845	-108.186967	-0.050048	-0.152338	0.987060	-0.292249	0.947275	0.131380	-0.955032	-0.281892	-0.091930	0	0	0
13550	0	0	0	0	0	9.716225	1.340185	-0.960653	-0.006344	-0.000063	0.000734	-0.489258	-0.581543	-0.429443	0.671806	0.153753	-0.722722	0.052049	124.988952	-80.774084	-108.198865	-0.050073	-0.152308	0.987064	-0.292176	0.947302	0.131350	-0.955053	-0.281819	-0.091935	0	0	0
13551	0	0	0	0	0	9.702145	1.323078	-0.986714	-0.004937	0.006104	-0.000718	-0.485107	-0.585205	-0.433838	0.671830	0.153718	-0.722709	0.052035	124.974563	-80.776928	-108.188618	-0.050030	-0.152270	0.987072	-0.292104	0.947326	0.131333	-0.955077	-0.281757	-0.091874	0	0	0
13552	0	0	0	0	0	9.695997	1.293392	-0.940764	-0.008646	0.006303	-0.002153	-0.485596	-0.587891	-0.435059	0.671856	0.153678	-0.722695	0.052003	124.955773	-80.778996	-108.175755	-0.049985	-0.152248	0.987078	-0.292002	0.947358	0.131334	-0.955111	-0.281664	-0.091810	0	0	0
13553	0	0	0	0	0	9.667834	1.259374	-0.992742	-0.006842	0.010016	-0.002439	-0.478027	-0.580322	-0.431641	0.671896	0.153642	-0.722667	0.051978	124.925476	-80.782315	-108.150498	-0.049900	-0.152215	0.987087	-0.291912	0.947385	0.131336	-0.955143	-0.281589	-0.091708	0	0	0
13554	0	0	0	0	0	9.704744	1.282468	-0.958802	-0.007815	0.002852	-0.004036	-0.487061	-0.581787	-0.430664	0.671910	0.153612	-0.722663	0.051940	124.912177	-80.782337	-108.142830	-0.049880	-0.152222	0.987087	-0.291817	0.947411	0.131357	-0.955173	-0.281497	-0.091677	0	0	0
13555	0	0	0	0	0	9.683189	1.256527	-0.952449	-0.007833	0.002123	-0.001929	-0.489258	-0.582275	-0.433594	0.671922	0.153572	-0.722663	0.051907	124.905178	-80.783305	-108.141751	-0.049872	-0.152207	0.987090	-0.291717	0.947442	0.131354	-0.955204	-0.281400	-0.091652	0	0	0
13556	0	0	0	0	0	9.674467	1.268382	-0.932869	-0.005097	-0.005240	-0.002091	-0.490234	-0.587158	-0.433350	0.671904	0.153546	-0.722688	0.051879	124.922174	-80.781646	-108.163209	-0.049938	-0.152215	0.987085	-0.291647	0.947464	0.131351	-0.955222	-0.281321	-0.091707	0	0	0
13557	0	0	0	0	0	9.712029	1.292520	-0.991587	0.000554	-0.007895	-0.003152	-0.488525	-0.593018	-0.435303	0.671874	0.153541	-0.722718	0.051866	124.946501	-80.778753	-108.188998	-0.050022	-0.152240	0.987077	-0.291628	0.947470	0.131353	-0.955223	-0.281289	-0.091791	0	0	0
13558	0	0	0	0	0	9.720676	1.280951	-1.011532	0.000676	0.001991	0.002436	-0.487793	-0.582520	-0.430176	0.671876	0.153520	-0.722719	0.051882	124.954662	-80.781494	-108.197558	-0.050030	-0.152188	0.987085	-0.291621	0.947480	0.131301	-0.955225	-0.281285	-0.091783	0	0	0
13559	0	0	0	0	0	9.661461	1.230911	-0.947461	-0.003969	-0.003518	-0.004813	-0.483154	-0.575684	-0.429443	0.671865	0.153506	-0.722734	0.051850	124.960370	-80.779257	-108.207109	-0.050067	-0.152216	0.987078	-0.291560	0.947495	0.131323	-0.955241	-0.281217	-0.091818	0	0	0
13560	0	0	0	0	0	9.690384	1.266679	-0.986023	0.008564	0.002053	-0.001959	-0.489014	-0.581299	-0.435791	0.671862	0.153522	-0.722731	0.051877	124.964326	-80.780047	-108.207516	-0.050064	-0.152203	0.987081	-0.291618	0.947480	0.131306	-0.955224	-0.281277	-0.091820	0	0	0
13561	0	0	0	0	0	9.701995	1.325497	-0.984937	0.001822	0.004442	-0.002393	-0.489990	-0.577881	-0.428223	0.671875	0.153516	-0.722720	0.051879	124.955220	-80.781559	-108.198697	-0.050032	-0.152186	0.987085	-0.291611	0.947483	0.131299	-0.955228	-0.281276	-0.091784	0	0	0
13562	0	0	0	0	0	9.703297	1.304985	-0.971275	-0.006150	0.012734	-0.002111	-0.489258	-0.584717	-0.433838	0.671923	0.153480	-0.722685	0.051860	124.919868	-80.785833	-108.167952	-0.049928	-0.152142	0.987097	-0.291527	0.947509	0.131295	-0.955259	-0.281210	-0.091661	0	0	0
13563	0	0	0	0	0	9.683055	1.258220	-0.951577	-0.009341	0.003581	-0.002483	-0.490967	-0.575928	-0.424316	0.671941	0.153437	-0.722680	0.051822	124.906663	-80.787019	-108.161461	-0.049904	-0.152129	0.987100	-0.291414	0.947543	0.131300	-0.955295	-0.281102	-0.091619	0	0	0
13564	0	0	0	0	0	9.684326	1.237729	-0.938178	-0.000102	0.007625	-0.002005	-0.487305	-0.589355	-0.432129	0.671965	0.153424	-0.722661	0.051823	124.890305	-80.789610	-108.146063	-0.049849	-0.152100	0.987107	-0.291394	0.947551	0.131289	-0.955304	-0.281092	-0.091556	0	0	0
13565	0	0	0	0	0	9.651588	1.264894	-0.937854	-0.002858	-0.002524	-0.005426	-0.476074	-0.576904	-0.438477	0.671957	0.153415	-0.722672	0.051794	124.892554	-80.787412	-108.151465	-0.049875	-0.152131	0.987101	-0.291343	0.947563	0.131317	-0.955317	-0.281036	-0.091582	0	0	0
13566	0	0	0	0	0	9.705800	1.264694	-0.943944	-0.008962	0.000399	0.000791	-0.486328	-0.577637	-0.430420	0.671963	0.153363	-0.722680	0.051764	124.895261	-80.788933	-108.160903	-0.049892	-0.152098	0.987105	-0.291231	0.947601	0.131291	-0.955351	-0.280926	-0.091574	0	0	0
13567	0	0	0	0	0	9.691651	1.247977	-0.970394	-0.011386	-0.003122	-0.007686	-0.492920	-0.582764	-0.437500	0.671960	0.153334	-0.722694	0.051695	124.889791	-80.785476	-108.163434	-0.049918	-0.152152	0.987096	-0.291101	0.947633	0.131348	-0.955389	-0.280788	-0.091595	0	0	0
13568	0	0	0	0	0	9.668763	1.243195	-0.977249	0.000471	0.000459	-0.007266	-0.483154	-0.586914	-0.426025	0.671959	0.153341	-0.722694	0.051673	124.883138	-80.783312	-108.157988	-0.049915	-0.152192	0.987090	-0.291081	0.947633	0.131390	-0.955395	-0.280765	-0.091601	0	0	0
13569	0	0	0	0	0	9.690231	1.270103	-0.983115	0.004874	0.002981	-0.005501	-0.479736	-0.585449	-0.434326	0.671966	0.153357	-0.722685	0.051675	124.873720	-80.782882	-108.147083	-0.049888	-0.152209	0.987088	-0.291105	0.947623	0.131411	-0.955389	-0.280791	-0.091584	0	0	0
13570	0	0	0	0	0	9.697669	1.279602	-1.015153	0.008860	0.007227	-0.002796	-0.489746	-0.575195	-0.428955	0.671982	0.153381	-0.722663	0.051707	124.860295	-80.784824	-108.129019	-0.049830	-0.152193	0.987094	-0.291179	0.947601	0.131405	-0.955370	-0.280873	-0.091534	0	0	0
13571	0	0	0	0	0	9.691504	1.249945	-0.969329	0.007768	0.006960	-0.004291	-0.479248	-0.578857	-0.433105	0.672000	0.153401	-0.722640	0.051727	124.843443	-80.786265	-108.108902	-0.049768	-0.152187	0.987098	-0.291229	0.947585	0.131411	-0.955358	-0.280932	-0.091481	0	0	0
13572	0	0	0	0	0	9.685343	1.220396	-0.923262	0.004336	0.011601	-0.004458	-0.485840	-0.575439	-0.427246	0.672036	0.153408	-0.722604	0.051736	124.812079	-80.789045	-108.076263	-0.049667	-0.152170	0.987106	-0.291244	0.947579	0.131422	-0.955359	-0.280961	-0.091382	0	0	0
13573	0	0	0	0	0	9.689506	1.270220	-0.889225	0.005548	0.004971	-0.003066	-0.490723	-0.579102	-0.433350	0.672048	0.153417	-0.722590	0.051751	124.802183	-80.790409	-108.064481	-0.049628	-0.152157	0.987109	-0.291273	0.947570	0.131419	-0.955352	-0.280996	-0.091346	0	0	0
13574	0	0	0	0	0	9.711033	1.296719	-0.894975	0.008564	0.002054	-0.001958	-0.482910	-0.580078	-0.428955	0.672046	0.153432	-0.722587	0.051777	124.806742	-80.791254	-108.065645	-0.049627	-0.152143	0.987112	-0.291329	0.947556	0.131399	-0.955335	-0.281053	-0.091348	0	0	0
13575	0	0	0	0	0	9.671623	1.315814	-0.953922	-0.000239	-0.002989	-0.005486	-0.487549	-0.572998	-0.431152	0.672034	0.153432	-0.722599	0.051756	124.811742	-80.788876	-108.072315	-0.049657	-0.152176	0.987105	-0.291304	0.947560	0.131425	-0.955341	-0.281021	-0.091383	0	0	0
13576	0	0	0	0	0	9.678966	1.325470	-0.986735	0.001269	-0.004448	-0.004932	-0.488281	-0.576904	-0.428955	0.672015	0.153435	-0.722618	0.051741	124.824499	-80.786182	-108.086090	-0.049708	-0.152208	0.987098	-0.291291	0.947561	0.131443	-0.955342	-0.280999	-0.091438	0	0	0
13577	0	0	0	0	0	9.711579	1.299272	-0.987154	-0.001331	-0.003257	-0.006982	-0.492432	-0.575439	-0.429199	0.672004	0.153437	-0.722630	0.051711	124.826624	-80.783013	-108.090481	-0.049737	-0.152256	0.987089	-0.291256	0.947566	0.131484	-0.955351	-0.280956	-0.091474	0	0	0
13578	0	0	0	0	0	9.680053	1.305767	-0.974173	-0.003414	0.005369	-0.002276	-0.480957	-0.584473	-0.431152	0.672021	0.153411	-0.722620	0.051696	124.814613	-80.784806	-108.081778	-0.049704	-0.152234	0.987094	-0.291198	0.947585	0.131478	-0.955371	-0.280905	-0.091429	0	0	0
13579	0	0	0	0	0	9.681340	1.285347	-0.960609	-0.009048	0.008748	-0.003325	-0.478516	-0.577637	-0.426025	0.672059	0.153371	-0.722596	0.051660	124.784880	-80.787283	-108.058372	-0.049629	-0.152214	0.987101	-0.291088	0.947617	0.131490	-0.955408	-0.280807	-0.091337	0	0	0
13580	0	0	0	0	0	9.683844	1.244347	-0.934388	-0.006290	0.002115	-0.005595	-0.476807	-0.582764	-0.439697	0.672069	0.153354	-0.722593	0.051622	124.772083	-80.786285	-108.050090	-0.049612	-0.152237	0.987098	-0.291012	0.947636	0.131525	-0.955432	-0.280732	-0.091317	0	0	0
13581	0	0	0	0	0	9.651096	1.271567	-0.933878	-0.002305	0.006362	-0.002889	-0.489014	-0.582520	-0.432617	0.672092	0.153335	-0.722577	0.051610	124.754003	-80.788185	-108.034576	-0.049561	-0.152220	0.987103	-0.290966	0.947650	0.131527	-0.955449	-0.280695	-0.091257	0	0	0
13582	0	0	0	0	0	9.703285	1.290959	-0.860813	-0.004524	0.004373	-0.001663	-0.489014	-0.583252	-0.432617	0.672109	0.153305	-0.722568	0.051591	124.743003	-80.789877	-108.027624	-0.049533	-0.152198	0.987108	-0.290896	0.947672	0.131520	-0.955472	-0.280631	-0.091215	0	0	0
13583	0	0	0	0	0	9.676373	1.236238	-0.900750	-0.012928	-0.003124	-0.004027	-0.486816	-0.578857	-0.431641	0.672107	0.153258	-0.722585	0.051529	124.744080	-80.788144	-108.037684	-0.049569	-0.152218	0.987103	-0.290749	0.947714	0.131543	-0.955515	-0.280479	-0.091235	0	0	0
13584	0	0	0	0	0	9.697381	1.284905	-1.011198	0.004979	-0.004643	-0.003496	-0.484131	-0.575439	-0.434814	0.672083	0.153270	-0.722605	0.051533	124.762533	-80.786030	-108.054759	-0.049626	-0.152238	0.987097	-0.290776	0.947706	0.131544	-0.955503	-0.280496	-0.091298	0	0	0
13585	0	0	0	0	0	9.679914	1.308321	-0.972123	0.000018	0.000727	-0.002109	-0.485107	-0.573486	-0.433105	0.672084	0.153258	-0.722607	0.051527	124.763708	-80.786457	-108.057403	-0.049631	-0.152228	0.987098	-0.290751	0.947714	0.131536	-0.955511	-0.280472	-0.091296	0	0	0
13586	0	0	0	0	0	9.681108	1.287876	-0.959558	0.000160	-0.005441	-0.004320	-0.480225	-0.570313	-0.434570	0.672062	0.153251	-0.722629	0.051507	124.779418	-80.783805	-108.075324	-0.049692	-0.152256	0.987091	-0.290719	0.947722	0.131548	-0.955517	-0.280429	-0.091358	0	0	0
13587	0	0	0	0	0	9.689693	1.276864	-0.979656	0.008742	-0.002658	-0.008386	-0.491211	-0.582520	-0.425781	0.672046	0.153292	-0.722636	0.051509	124.782765	-80.780172	-108.075106	-0.049711	-0.152316	0.987081	-0.290781	0.947697	0.131594	-0.955497	-0.280482	-0.091402	0	0	0
13588	0	0	0	0	0	9.713627	1.262276	-0.960299	-0.000656	-0.001265	-0.004546	-0.492920	-0.582031	-0.432617	0.672039	0.153286	-0.722645	0.051490	124.786118	-80.778697	-108.080408	-0.049733	-0.152335	0.987077	-0.290750	0.947704	0.131610	-0.955506	-0.280447	-0.091424	0	0	0
13589	0	0	0	0	0	9.675921	1.238888	-0.901961	-0.004489	0.005827	-0.005881	-0.482422	-0.579102	-0.429932	0.672063	0.153271	-0.722628	0.051460	124.762333	-80.779015	-108.060382	-0.049678	-0.152348	0.987078	-0.290684	0.947720	0.131643	-0.955528	-0.280388	-0.091366	0	0	0
13590	0	0	0	0	0	9.669275	1.231437	-0.960396	-0.001472	0.002912	-0.004772	-0.482910	-0.582031	-0.430176	0.672072	0.153264	-0.722623	0.051443	124.752703	-80.778760	-108.052702	-0.049659	-0.152358	0.987077	-0.290651	0.947727	0.131662	-0.955540	-0.280357	-0.091347	0	0	0
13591	0	0	0	0	0	9.660534	1.243355	-0.940638	0.008981	0.000333	-0.002898	-0.490967	-0.576172	-0.432373	0.672065	0.153285	-0.722623	0.051466	124.758568	-80.778686	-108.054895	-0.049665	-0.152358	0.987077	-0.290713	0.947710	0.131654	-0.955521	-0.280417	-0.091361	0	0	0
13592	0	0	0	0	0	9.690702	1.258335	-0.966483	0.012015	-0.001856	-0.003899	-0.478516	-0.574219	-0.430908	0.672046	0.153321	-0.722631	0.051496	124.772177	-80.777304	-108.063070	-0.049695	-0.152373	0.987073	-0.290805	0.947681	0.131652	-0.955491	-0.280504	-0.091406	0	0	0
13593	0	0	0	0	0	9.734922	1.290611	-0.965808	0.010107	0.002053	-0.005622	-0.489502	-0.578125	-0.436279	0.672045	0.153355	-0.722623	0.051516	124.768221	-80.776511	-108.054660	-0.049676	-0.152394	0.987071	-0.290879	0.947656	0.131669	-0.955469	-0.280577	-0.091404	0	0	0
13594	0	0	0	0	0	9.643796	1.268669	-0.992862	0.009690	0.003777	-0.004681	-0.485107	-0.584717	-0.435303	0.672049	0.153381	-0.722612	0.051537	124.761843	-80.776665	-108.044470	-0.049649	-0.152400	0.987071	-0.290941	0.947636	0.131677	-0.955452	-0.280642	-0.091388	0	0	0
13595	0	0	0	0	0	9.657812	1.286061	-0.966573	0.024685	-0.002449	-0.003254	-0.484863	-0.579346	-0.435059	0.672020	0.153457	-0.722618	0.051614	124.784051	-80.775514	-108.054105	-0.049680	-0.152410	0.987068	-0.291153	0.947574	0.131658	-0.955386	-0.280847	-0.091450	0	0	0
13596	0	0	0	0	0	9.699932	1.337767	-0.887650	0.021667	0.000463	-0.004365	-0.483398	-0.579102	-0.432617	0.672003	0.153526	-0.722614	0.051678	124.794542	-80.774669	-108.053664	-0.049684	-0.152425	0.987065	-0.291336	0.947518	0.131653	-0.955330	-0.281026	-0.091483	0	0	0
13597	0	0	0	0	0	9.694520	1.309169	-0.934137	0.012413	-0.004312	-0.002733	-0.490234	-0.576660	-0.433350	0.671976	0.153559	-0.722629	0.051711	124.816156	-80.773153	-108.069820	-0.049735	-0.152435	0.987061	-0.291430	0.947491	0.131640	-0.955298	-0.281112	-0.091547	0	0	0
13598	0	0	0	0	0	9.659133	1.377768	-0.960179	0.007214	-0.001934	-0.006834	-0.475586	-0.578613	-0.431641	0.671962	0.153587	-0.722637	0.051712	124.821058	-80.770417	-108.072296	-0.049756	-0.152478	0.987054	-0.291473	0.947474	0.131671	-0.955284	-0.281148	-0.091586	0	0	0
13599	0	0	0	0	0	9.664102	1.295421	-0.909244	-0.002438	-0.004256	-0.006368	-0.485107	-0.583740	-0.420410	0.671948	0.153583	-0.722653	0.051679	124.826670	-80.767209	-108.080862	-0.049796	-0.152523	0.987045	-0.291427	0.947483	0.131708	-0.955296	-0.281093	-0.091630	0	0	0
13600	0	0	0	0	0	9.686334	1.323332	-1.006803	0.001544	-0.000006	-0.003665	-0.477783	-0.574219	-0.434814	0.671943	0.153587	-0.722657	0.051676	124.828938	-80.766399	-108.083040	-0.049806	-0.152535	0.987042	-0.291429	0.947481	0.131715	-0.955295	-0.281093	-0.091643	0	0	0
13601	0	0	0	0	0	9.700362	1.340940	-0.980112	-0.016778	0.003238	-0.003248	-0.484863	-0.581543	-0.428955	0.671967	0.153522	-0.722654	0.051608	124.810929	-80.767111	-108.075998	-0.049783	-0.152529	0.987044	-0.291245	0.947535	0.131734	-0.955352	-0.280913	-0.091595	0	0	0
13602	0	0	0	0	0	9.648656	1.300278	-0.947861	-0.014579	0.004499	-0.002368	-0.487305	-0.586670	-0.439697	0.671992	0.153460	-0.722648	0.051550	124.792962	-80.768527	-108.067897	-0.049754	-0.152513	0.987048	-0.291078	0.947585	0.131743	-0.955405	-0.280754	-0.091540	0	0	0
13603	0	0	0	0	0	9.681394	1.273935	-0.947561	-0.013344	-0.001404	-0.003082	-0.486816	-0.578369	-0.428955	0.671995	0.153407	-0.722660	0.051491	124.790689	-80.767798	-108.074805	-0.049777	-0.152519	0.987046	-0.290927	0.947630	0.131757	-0.955450	-0.280600	-0.091542	0	0	0
13604	0	0	0	0	0	9.676012	1.245427	-0.993710	0.004144	-0.001194	-0.001614	-0.480957	-0.580811	-0.424561	0.671985	0.153409	-0.722669	0.051501	124.801956	-80.767698	-108.085178	-0.049805	-0.152511	0.987046	-0.290943	0.947627	0.131740	-0.955443	-0.280613	-0.091568	0	0	0
13605	0	0	0	0	0	9.704096	1.279760	-0.941154	0.004526	-0.004371	0.001664	-0.482910	-0.580078	-0.427979	0.671963	0.153399	-0.722690	0.051520	124.828059	-80.768231	-108.110462	-0.049869	-0.152481	0.987047	-0.290960	0.947629	0.131691	-0.955435	-0.280624	-0.091623	0	0	0
13606	0	0	0	0	0	9.690031	1.262493	-0.967793	0.001109	0.000994	-0.000614	-0.489746	-0.586914	-0.428467	0.671961	0.153390	-0.722693	0.051527	124.833643	-80.769203	-108.116292	-0.049880	-0.152460	0.987050	-0.290956	0.947633	0.131668	-0.955435	-0.280620	-0.091626	0	0	0
13607	0	0	0	0	0	9.705399	1.258764	-0.928405	0.001765	0.002262	0.003933	-0.489258	-0.590576	-0.432129	0.671965	0.153362	-0.722694	0.051549	124.843547	-80.772972	-108.126766	-0.049887	-0.152389	0.987061	-0.290945	0.947646	0.131599	-0.955438	-0.280615	-0.091612	0	0	0
13608	0	0	0	0	0	9.704173	1.279241	-0.941071	-0.001526	0.000731	0.001555	-0.482422	-0.574219	-0.428467	0.671963	0.153338	-0.722700	0.051555	124.853175	-80.774852	-108.137806	-0.049906	-0.152349	0.987066	-0.290922	0.947659	0.131557	-0.955444	-0.280593	-0.091616	0	0	0
13609	0	0	0	0	0	9.664860	1.297622	-0.999739	0.003965	0.003524	0.004814	-0.485840	-0.586182	-0.433350	0.671969	0.153314	-0.722697	0.051589	124.862478	-80.779448	-108.146394	-0.049905	-0.152266	0.987079	-0.290931	0.947667	0.131477	-0.955442	-0.280611	-0.091592	0	0	0
13610	0	0	0	0	0	9.678993	1.314449	-0.973024	-0.001944	0.002457	0.002496	-0.490723	-0.574219	-0.434082	0.671975	0.153279	-0.722698	0.051594	124.868044	-80.782446	-108.154452	-0.049910	-0.152210	0.987087	-0.290889	0.947687	0.131426	-0.955454	-0.280573	-0.091575	0	0	0
13611	0	0	0	0	0	9.687761	1.302716	-0.992328	-0.011997	0.002584	0.001791	-0.489258	-0.579590	-0.432617	0.671991	0.153212	-0.722700	0.051559	124.864834	-80.785313	-108.159627	-0.049908	-0.152158	0.987095	-0.290748	0.947735	0.131391	-0.955497	-0.280438	-0.091540	0	0	0
13612	0	0	0	0	0	9.681610	1.272895	-0.946757	-0.008944	0.001121	-0.001319	-0.492920	-0.580566	-0.436279	0.671998	0.153164	-0.722706	0.051523	124.863284	-80.786202	-108.165007	-0.049918	-0.152139	0.987098	-0.290632	0.947772	0.131380	-0.955532	-0.280324	-0.091527	0	0	0
13613	0	0	0	0	0	9.715633	1.225487	-0.933915	-0.001109	-0.000994	0.000614	-0.489990	-0.580322	-0.431641	0.671993	0.153139	-0.722716	0.051521	124.874307	-80.787344	-108.178282	-0.049947	-0.152109	0.987101	-0.290596	0.947788	0.131347	-0.955541	-0.280287	-0.091541	0	0	0
13614	0	0	0	0	0	9.672914	1.284460	-0.926952	0.005509	0.003518	0.001151	-0.486816	-0.579834	-0.421631	0.671997	0.153132	-0.722712	0.051548	124.879128	-80.790134	-108.181420	-0.049940	-0.152060	0.987109	-0.290622	0.947786	0.131300	-0.955534	-0.280318	-0.091525	0	0	0
13615	0	0	0	0	0	9.714380	1.246108	-0.946703	-0.000274	-0.004445	-0.001269	-0.482422	-0.581543	-0.430664	0.671980	0.153118	-0.722732	0.051541	124.896834	-80.789260	-108.200980	-0.049997	-0.152058	0.987106	-0.290594	0.947797	0.131284	-0.955539	-0.280284	-0.091574	0	0	0
13616	0	0	0	0	0	9.650135	1.278878	-0.933829	0.007727	0.005507	-0.000077	-0.477295	-0.568359	-0.426758	0.671989	0.153128	-0.722719	0.051577	124.894648	-80.791968	-108.195027	-0.049967	-0.152018	0.987114	-0.290654	0.947784	0.131249	-0.955523	-0.280351	-0.091542	0	0	0
13617	0	0	0	0	0	9.711901	1.287495	-0.971832	0.006200	0.006237	0.001478	-0.488281	-0.571289	-0.431885	0.672004	0.153122	-0.722704	0.051610	124.890652	-80.795884	-108.188843	-0.049929	-0.151960	0.987125	-0.290687	0.947780	0.131200	-0.955515	-0.280394	-0.091495	0	0	0
13618	0	0	0	0	0	9.647713	1.320178	-0.958501	0.006636	0.005238	-0.001573	-0.488281	-0.582520	-0.432861	0.672015	0.153125	-0.722692	0.051630	124.885145	-80.798008	-108.181472	-0.049898	-0.151931	0.987131	-0.290716	0.947774	0.131179	-0.955507	-0.280429	-0.091461	0	0	0
13619	0	0	0	0	0	9.673017	1.284291	-0.926113	-0.000292	-0.005170	0.000842	-0.484131	-0.584961	-0.423584	0.671994	0.153102	-0.722716	0.051629	124.909233	-80.797886	-108.207507	-0.049968	-0.151911	0.987130	-0.290687	0.947788	0.131142	-0.955513	-0.280393	-0.091517	0	0	0
13620	0	0	0	0	0	9.687088	1.301317	-0.899700	0.005091	0.005243	0.002091	-0.485107	-0.577637	-0.431641	0.672003	0.153096	-0.722706	0.051663	124.910541	-80.801517	-108.206533	-0.049946	-0.151852	0.987140	-0.290722	0.947785	0.131089	-0.955503	-0.280437	-0.091485	0	0	0
13621	0	0	0	0	0	9.660283	1.245976	-0.939749	0.001908	-0.003908	0.001724	-0.494141	-0.580078	-0.428467	0.671985	0.153078	-0.722726	0.051673	124.934026	-80.802222	-108.230680	-0.050006	-0.151820	0.987142	-0.290714	0.947794	0.131041	-0.955502	-0.280423	-0.091531	0	0	0
13622	0	0	0	0	0	9.721949	1.254727	-0.978600	0.004562	-0.002920	-0.002555	-0.483887	-0.586914	-0.426514	0.671967	0.153084	-0.722741	0.051681	124.949721	-80.801118	-108.245185	-0.050050	-0.151825	0.987139	-0.290737	0.947788	0.131032	-0.955493	-0.280439	-0.091578	0	0	0
13623	0	0	0	0	0	9.697914	1.269751	-0.998329	0.000655	0.001268	0.004546	-0.491943	-0.579834	-0.428223	0.671968	0.153050	-0.722746	0.051700	124.963204	-80.804845	-108.259929	-0.050069	-0.151751	0.987150	-0.290715	0.947805	0.130957	-0.955499	-0.280422	-0.091572	0	0	0
13624	0	0	0	0	0	9.675234	1.263763	-1.004767	0.004673	0.006968	0.003031	-0.485352	-0.572754	-0.430176	0.671984	0.153039	-0.722731	0.051738	124.961547	-80.809491	-108.256160	-0.050034	-0.151678	0.987163	-0.290746	0.947804	0.130895	-0.955491	-0.280465	-0.091522	0	0	0
13625	0	0	0	0	0	9.681943	1.271473	-0.945263	0.004673	0.006968	0.003031	-0.489746	-0.589600	-0.433105	0.672002	0.153023	-0.722715	0.051771	124.957726	-80.814378	-108.251041	-0.049994	-0.151603	0.987176	-0.290764	0.947808	0.130832	-0.955488	-0.280494	-0.091465	0	0	0
13626	0	0	0	0	0	9.698599	1.246886	-0.892831	0.003291	0.001530	0.002377	-0.487549	-0.582520	-0.431885	0.672001	0.153007	-0.722718	0.051794	124.969136	-80.817023	-108.261911	-0.050009	-0.151550	0.987184	-0.290772	0.947813	0.130776	-0.955484	-0.280506	-0.091465	0	0	0
13627	0	0	0	0	0	9.674621	1.261542	-0.912532	0.011106	-0.001313	0.006419	-0.491699	-0.586670	-0.432861	0.671983	0.153001	-0.722731	0.051855	124.999949	-80.820780	-108.288141	-0.050058	-0.151466	0.987194	-0.290850	0.947803	0.130674	-0.955458	-0.280584	-0.091499	0	0	0
13628	0	0	0	0	0	9.673409	1.281543	-0.925827	0.011923	-0.005490	0.006647	-0.489746	-0.578125	-0.421387	0.671948	0.153002	-0.722759	0.051920	125.045517	-80.823089	-108.328351	-0.050151	-0.151393	0.987201	-0.290943	0.947789	0.130568	-0.955425	-0.280671	-0.091580	0	0	0
13629	0	0	0	0	0	9.733867	1.310297	-0.977938	0.022410	-0.006623	0.004299	-0.492920	-0.581787	-0.440186	0.671904	0.153044	-0.722784	0.052011	125.093949	-80.824098	-108.365868	-0.050245	-0.151343	0.987203	-0.291129	0.947745	0.130477	-0.955363	-0.280848	-0.091680	0	0	0
13630	0	0	0	0	0	9.705765	1.275417	-1.031290	0.008525	0.000600	0.002257	-0.486328	-0.578857	-0.426270	0.671894	0.153046	-0.722790	0.052052	125.111539	-80.826410	-108.379998	-0.050270	-0.151293	0.987210	-0.291187	0.947735	0.130416	-0.955345	-0.280907	-0.091697	0	0	0
13631	0	0	0	0	0	9.675630	1.260359	-1.005225	0.005365	0.009685	0.003353	-0.484131	-0.583496	-0.436279	0.671922	0.153030	-0.722765	0.052091	125.100951	-80.832345	-108.367623	-0.050205	-0.151207	0.987226	-0.291211	0.947737	0.130349	-0.955341	-0.280947	-0.091614	0	0	0
13632	0	0	0	0	0	9.679834	1.309619	-0.971174	0.010617	0.009480	0.001124	-0.491699	-0.583740	-0.432617	0.671944	0.153041	-0.722738	0.052142	125.090535	-80.837001	-108.352162	-0.050139	-0.151144	0.987239	-0.291289	0.947720	0.130300	-0.955320	-0.281039	-0.091544	0	0	0
13633	0	0	0	0	0	9.673743	1.279506	-0.925152	0.002056	0.007431	0.003086	-0.487793	-0.583252	-0.431396	0.671967	0.153015	-0.722721	0.052166	125.084034	-80.842068	-108.345848	-0.050095	-0.151067	0.987253	-0.291282	0.947730	0.130239	-0.955325	-0.281045	-0.091479	0	0	0
13634	0	0	0	0	0	9.706590	1.252527	-0.924374	-0.004269	0.008092	0.001709	-0.485352	-0.583740	-0.431641	0.671994	0.152975	-0.722704	0.052165	125.070856	-80.846543	-108.336056	-0.050045	-0.151002	0.987266	-0.291221	0.947755	0.130197	-0.955346	-0.280997	-0.091405	0	0	0
13635	0	0	0	0	0	9.675189	1.258349	-0.910918	0.001364	0.004712	0.002760	-0.483154	-0.576904	-0.435059	0.672007	0.152949	-0.722696	0.052184	125.071194	-80.850561	-108.337070	-0.050026	-0.150936	0.987277	-0.291207	0.947767	0.130140	-0.955351	-0.280992	-0.091366	0	0	0
13636	0	0	0	0	0	9.685254	1.225562	-0.917333	0.012505	0.004845	0.004959	-0.487305	-0.584229	-0.433838	0.672011	0.152952	-0.722688	0.052249	125.082772	-80.855522	-108.343045	-0.050014	-0.150849	0.987291	-0.291298	0.947751	0.130052	-0.955324	-0.281091	-0.091343	0	0	0
13637	0	0	0	0	0	9.671232	1.207895	-0.944072	0.020225	-0.007165	0.001312	-0.484863	-0.579590	-0.428223	0.671967	0.152998	-0.722713	0.052322	125.125549	-80.854948	-108.376099	-0.050105	-0.150830	0.987289	-0.291464	0.947708	0.129991	-0.955269	-0.281247	-0.091446	0	0	0
13638	0	0	0	0	0	9.736961	1.265926	-0.950334	0.013209	-0.009222	-0.000391	-0.488281	-0.584717	-0.427246	0.671919	0.153029	-0.722748	0.052363	125.168097	-80.852721	-108.412687	-0.050213	-0.150834	0.987283	-0.291570	0.947681	0.129955	-0.955231	-0.281337	-0.091565	0	0	0
13639	0	0	0	0	0	9.704217	1.292420	-0.950742	0.011414	0.004576	0.003460	-0.488037	-0.576660	-0.434082	0.671924	0.153034	-0.722738	0.052421	125.176068	-80.857022	-108.415601	-0.050197	-0.150761	0.987295	-0.291652	0.947666	0.129882	-0.955206	-0.281427	-0.091540	0	0	0
13640	0	0	0	0	0	9.664967	1.310634	-1.009405	0.001763	0.002261	0.003929	-0.492188	-0.578125	-0.427734	0.671926	0.153007	-0.722741	0.052444	125.187886	-80.860635	-108.427794	-0.050210	-0.150692	0.987305	-0.291645	0.947677	0.129812	-0.955208	-0.281424	-0.091531	0	0	0
13641	0	0	0	0	0	9.671602	1.318411	-0.950543	-0.002237	-0.002709	0.003340	-0.493896	-0.584717	-0.428223	0.671915	0.152968	-0.722759	0.052445	125.209007	-80.862473	-108.451948	-0.050263	-0.150641	0.987310	-0.291596	0.947700	0.129752	-0.955220	-0.281374	-0.091561	0	0	0
13642	0	0	0	0	0	9.718414	1.308590	-0.924299	-0.020848	-0.004619	0.004601	-0.483154	-0.578369	-0.431152	0.671907	0.152866	-0.722792	0.052386	125.230377	-80.864107	-108.486607	-0.050345	-0.150583	0.987315	-0.291378	0.947775	0.129695	-0.955282	-0.281152	-0.091593	0	0	0
13643	0	0	0	0	0	9.692864	1.232436	-0.951225	-0.013938	0.005054	0.004285	-0.484863	-0.575684	-0.437500	0.671933	0.152783	-0.722788	0.052355	125.224157	-80.868951	-108.489860	-0.050327	-0.150501	0.987328	-0.291217	0.947833	0.129637	-0.955332	-0.281002	-0.091531	0	0	0
13644	0	0	0	0	0	9.694207	1.211459	-0.937759	-0.000143	0.006169	0.002204	-0.484863	-0.582031	-0.432861	0.671952	0.152750	-0.722777	0.052364	125.218908	-80.873117	-108.486509	-0.050296	-0.150436	0.987339	-0.291182	0.947851	0.129586	-0.955345	-0.280978	-0.091477	0	0	0
13645	0	0	0	0	0	9.685504	1.223079	-0.918008	0.004561	-0.002924	-0.002553	-0.488525	-0.583984	-0.435303	0.671936	0.152756	-0.722789	0.052371	125.232464	-80.872125	-108.499056	-0.050334	-0.150441	0.987337	-0.291201	0.947846	0.129579	-0.955337	-0.280991	-0.091518	0	0	0
13646	0	0	0	0	0	9.703240	1.311642	-0.962839	0.004125	-0.001924	0.000496	-0.484619	-0.577881	-0.433838	0.671923	0.152751	-0.722802	0.052387	125.250032	-80.872736	-108.515756	-0.050375	-0.150417	0.987338	-0.291217	0.947846	0.129542	-0.955330	-0.281004	-0.091551	0	0	0
13647	0	0	0	0	0	9.700407	1.241211	-0.983325	-0.002636	-0.000259	0.002169	-0.489502	-0.586670	-0.440430	0.671921	0.152714	-0.722812	0.052385	125.261423	-80.874833	-108.530286	-0.050401	-0.150370	0.987344	-0.291165	0.947868	0.129494	-0.955344	-0.280954	-0.091556	0	0	0
13648	0	0	0	0	0	9.679296	1.326216	-0.982481	0.007670	0.003323	0.006245	-0.490967	-0.583984	-0.428467	0.671922	0.152696	-0.722810	0.052436	125.277270	-80.879920	-108.543508	-0.050408	-0.150275	0.987358	-0.291207	0.947869	0.129397	-0.955331	-0.281003	-0.091541	0	0	0
13649	0	0	0	0	0	9.712154	1.298938	-0.981923	-0.010629	0.007307	0.004550	-0.491211	-0.579834	-0.435303	0.671954	0.152623	-0.722798	0.052419	125.266953	-80.885633	-108.540690	-0.050370	-0.150184	0.987374	-0.291077	0.947917	0.129334	-0.955373	-0.280888	-0.091461	0	0	0
13650	0	0	0	0	0	9.691985	1.251517	-0.962462	-0.010923	0.002137	0.005395	-0.488770	-0.575684	-0.430420	0.671964	0.152548	-0.722806	0.052402	125.275216	-80.889887	-108.556556	-0.050388	-0.150101	0.987386	-0.290950	0.947966	0.129261	-0.955411	-0.280766	-0.091438	0	0	0
13651	0	0	0	0	0	9.700776	1.239544	-0.981785	-0.009397	0.001404	0.003840	-0.492676	-0.583008	-0.429688	0.671973	0.152483	-0.722812	0.052383	125.281364	-80.893315	-108.569698	-0.050403	-0.150033	0.987395	-0.290832	0.948010	0.129203	-0.955445	-0.280654	-0.091417	0	0	0
13652	0	0	0	0	0	9.707463	1.247312	-0.922261	-0.003594	0.010085	0.004142	-0.482666	-0.577148	-0.427979	0.672006	0.152435	-0.722791	0.052394	125.268320	-80.899618	-108.559771	-0.050343	-0.149939	0.987413	-0.290775	0.948037	0.129135	-0.955466	-0.280613	-0.091325	0	0	0
13653	0	0	0	0	0	9.676099	1.252961	-0.908675	-0.000162	0.005443	0.004313	-0.496826	-0.580811	-0.429199	0.672023	0.152398	-0.722782	0.052413	125.268950	-80.904604	-108.561966	-0.050321	-0.149855	0.987427	-0.290745	0.948056	0.129063	-0.955476	-0.280595	-0.091277	0	0	0
13654	0	0	0	0	0	9.713852	1.276637	-0.966639	-0.005509	-0.003512	-0.001147	-0.492676	-0.584473	-0.433105	0.672010	0.152367	-0.722802	0.052389	125.283643	-80.903912	-108.581133	-0.050375	-0.149850	0.987425	-0.290673	0.948080	0.129050	-0.955495	-0.280517	-0.091317	0	0	0
13655	0	0	0	0	0	9.686989	1.221438	-1.006725	-0.006780	0.000938	0.003780	-0.493652	-0.583984	-0.428711	0.672015	0.152310	-0.722810	0.052379	125.292553	-80.907158	-108.595554	-0.050395	-0.149784	0.987434	-0.290581	0.948116	0.128990	-0.955522	-0.280429	-0.091305	0	0	0
13656	0	0	0	0	0	9.708557	1.247498	-1.012690	-0.000019	-0.000726	0.002109	-0.485107	-0.582520	-0.430664	0.672007	0.152287	-0.722822	0.052389	125.309051	-80.908879	-108.613079	-0.050431	-0.149741	0.987438	-0.290565	0.948128	0.128939	-0.955525	-0.280412	-0.091325	0	0	0
13657	0	0	0	0	0	9.684926	1.240709	-0.927988	-0.003452	0.003916	0.001937	-0.490479	-0.579834	-0.435791	0.672021	0.152248	-0.722817	0.052387	125.307367	-80.912248	-108.614839	-0.050417	-0.149684	0.987448	-0.290505	0.948152	0.128895	-0.955544	-0.280360	-0.091287	0	0	0
13658	0	0	0	0	0	9.701201	1.237860	-0.979707	0.000236	0.002991	0.005483	-0.491455	-0.578857	-0.430664	0.672026	0.152210	-0.722818	0.052410	125.319072	-80.916820	-108.627858	-0.050426	-0.149598	0.987460	-0.290482	0.948171	0.128812	-0.955551	-0.280344	-0.091268	0	0	0
13659	0	0	0	0	0	9.709992	1.225813	-0.999137	-0.004163	0.000472	0.003721	-0.491455	-0.576660	-0.433594	0.672028	0.152163	-0.722827	0.052409	125.330756	-80.919882	-108.643568	-0.050450	-0.149534	0.987469	-0.290415	0.948200	0.128750	-0.955570	-0.280280	-0.091264	0	0	0
13660	0	0	0	0	0	9.682711	1.281171	-0.952334	-0.001773	0.014519	0.001743	-0.486572	-0.579102	-0.426514	0.672077	0.152126	-0.722788	0.052420	125.300664	-80.926578	-108.615586	-0.050341	-0.149449	0.987487	-0.290371	0.948219	0.128704	-0.955589	-0.280259	-0.091130	0	0	0
13661	0	0	0	0	0	9.684029	1.260354	-0.938755	-0.006344	-0.000062	0.000730	-0.487793	-0.573975	-0.436279	0.672079	0.152083	-0.722796	0.052400	125.306469	-80.928066	-108.626608	-0.050361	-0.149415	0.987491	-0.290284	0.948250	0.128674	-0.955614	-0.280173	-0.091128	0	0	0
13662	0	0	0	0	0	9.684014	1.260488	-0.938732	-0.005907	-0.001061	-0.002318	-0.490723	-0.579346	-0.431641	0.672076	0.152052	-0.722808	0.052371	125.310657	-80.927683	-108.635789	-0.050387	-0.149414	0.987490	-0.290202	0.948275	0.128672	-0.955638	-0.280089	-0.091141	0	0	0
13663	0	0	0	0	0	9.683984	1.260642	-0.938836	-0.007036	-0.002780	0.000405	-0.487793	-0.581543	-0.431396	0.672069	0.152008	-0.722825	0.052345	125.323351	-80.928118	-108.654190	-0.050433	-0.149390	0.987491	-0.290109	0.948307	0.128646	-0.955664	-0.279992	-0.091165	0	0	0
13664	0	0	0	0	0	9.678614	1.232067	-0.984979	-0.013341	-0.001390	-0.003084	-0.496582	-0.582275	-0.427734	0.672071	0.151957	-0.722839	0.052288	125.322851	-80.927219	-108.662577	-0.050460	-0.149398	0.987489	-0.289963	0.948350	0.128660	-0.955707	-0.279843	-0.091173	0	0	0
13665	0	0	0	0	0	9.697279	1.188284	-1.011271	-0.003035	0.002190	0.000998	-0.491699	-0.577637	-0.430664	0.672079	0.151923	-0.722839	0.052283	125.324519	-80.929577	-108.667490	-0.050459	-0.149355	0.987495	-0.289908	0.948372	0.128624	-0.955724	-0.279792	-0.091153	0	0	0
13666	0	0	0	0	0	9.692712	1.249273	-0.958047	0.005092	0.005237	0.002089	-0.489502	-0.580322	-0.436279	0.672088	0.151914	-0.722830	0.052316	125.327020	-80.933294	-108.668012	-0.050440	-0.149294	0.987506	-0.289938	0.948370	0.128567	-0.955715	-0.279830	-0.091122	0	0	0
13667	0	0	0	0	0	9.734266	1.210598	-0.976915	0.003859	0.011137	0.002798	-0.488037	-0.574219	-0.437012	0.672122	0.151894	-0.722800	0.052349	125.310160	-80.939457	-108.650163	-0.050360	-0.149209	0.987522	-0.289948	0.948375	0.128508	-0.955717	-0.279858	-0.091023	0	0	0
13668	0	0	0	0	0	9.694168	1.228043	-0.943589	0.002077	0.008152	0.000977	-0.490479	-0.573975	-0.438965	0.672147	0.151873	-0.722780	0.052364	125.298277	-80.943726	-108.638779	-0.050307	-0.149149	0.987534	-0.289935	0.948385	0.128466	-0.955723	-0.279858	-0.090954	0	0	0
13669	0	0	0	0	0	9.662724	1.234024	-0.930373	-0.006344	-0.000062	0.000729	-0.490967	-0.576660	-0.429199	0.672149	0.151830	-0.722789	0.052345	125.304103	-80.945213	-108.649822	-0.050327	-0.149115	0.987538	-0.289848	0.948416	0.128436	-0.955748	-0.279772	-0.090952	0	0	0
13670	0	0	0	0	0	9.671481	1.222303	-0.949791	-0.004562	0.002921	0.002550	-0.486816	-0.580322	-0.433594	0.672158	0.151782	-0.722790	0.052338	125.307765	-80.948489	-108.657944	-0.050330	-0.149054	0.987547	-0.289773	0.948446	0.128384	-0.955771	-0.279703	-0.090927	0	0	0
13671	0	0	0	0	0	9.710466	1.225482	-0.994927	-0.008106	-0.002320	-0.003201	-0.494873	-0.585205	-0.435547	0.672155	0.151748	-0.722804	0.052297	125.311045	-80.947390	-108.667431	-0.050361	-0.149064	0.987544	-0.289671	0.948475	0.128395	-0.955800	-0.279597	-0.090946	0	0	0
13672	0	0	0	0	0	9.700498	1.257958	-0.988101	-0.007872	0.000669	0.002282	-0.489258	-0.584473	-0.430664	0.672158	0.151695	-0.722813	0.052279	125.318606	-80.949685	-108.680796	-0.050383	-0.149015	0.987551	-0.289574	0.948511	0.128350	-0.955829	-0.279503	-0.090940	0	0	0
13673	0	0	0	0	0	9.670241	1.243214	-0.962492	-0.003309	-0.002252	-0.000268	-0.489502	-0.579834	-0.426025	0.672151	0.151666	-0.722827	0.052265	125.330535	-80.949979	-108.696258	-0.050422	-0.148996	0.987551	-0.289517	0.948531	0.128327	-0.955844	-0.279443	-0.090963	0	0	0
13674	0	0	0	0	0	9.724505	1.242751	-0.968426	0.000692	0.002717	0.000326	-0.486084	-0.577881	-0.429199	0.672155	0.151652	-0.722826	0.052276	125.333570	-80.951952	-108.699575	-0.050419	-0.148961	0.987557	-0.289511	0.948538	0.128295	-0.955846	-0.279440	-0.090951	0	0	0
13675	0	0	0	0	0	9.672758	1.201578	-0.936473	0.001365	0.004708	0.002761	-0.488525	-0.579102	-0.436279	0.672168	0.151626	-0.722818	0.052295	125.334054	-80.955968	-108.700736	-0.050400	-0.148895	0.987568	-0.289497	0.948550	0.128237	-0.955851	-0.279435	-0.090912	0	0	0
13676	0	0	0	0	0	9.693154	1.248484	-0.954595	0.004296	0.010137	-0.000249	-0.485596	-0.581055	-0.432373	0.672197	0.151620	-0.722790	0.052318	125.315331	-80.960232	-108.680650	-0.050324	-0.148843	0.987580	-0.289515	0.948548	0.128207	-0.955850	-0.279467	-0.090827	0	0	0
13677	0	0	0	0	0	9.685706	1.239377	-0.921609	-0.001507	0.001458	-0.000556	-0.485840	-0.580078	-0.429443	0.672202	0.151597	-0.722791	0.052312	125.316809	-80.961621	-108.684484	-0.050327	-0.148817	0.987583	-0.289475	0.948564	0.128185	-0.955862	-0.279429	-0.090817	0	0	0
13678	0	0	0	0	0	9.685711	1.239396	-0.921531	-0.003727	-0.000528	0.000671	-0.494629	-0.579102	-0.435791	0.672198	0.151566	-0.722801	0.052303	125.326688	-80.962716	-108.697674	-0.050355	-0.148787	0.987586	-0.289420	0.948584	0.128154	-0.955877	-0.279374	-0.090828	0	0	0
13679	0	0	0	0	0	9.695405	1.228904	-1.032342	-0.010469	0.001859	0.000229	-0.482178	-0.577393	-0.438721	0.672211	0.151510	-0.722804	0.052269	125.323489	-80.964605	-108.701972	-0.050356	-0.148753	0.987592	-0.289294	0.948626	0.128133	-0.955915	-0.279253	-0.090802	0	0	0
13680	0	0	0	0	0	9.673862	1.202861	-1.026057	-0.005195	0.002382	-0.004104	-0.489502	-0.577148	-0.429443	0.672221	0.151485	-0.722802	0.052237	125.313668	-80.964567	-108.696795	-0.050342	-0.148758	0.987591	-0.289216	0.948647	0.128149	-0.955939	-0.279176	-0.090780	0	0	0
13681	0	0	0	0	0	9.699758	1.257030	-0.894384	-0.000418	0.001724	0.000939	-0.494141	-0.572510	-0.434326	0.672225	0.151460	-0.722803	0.052240	125.318104	-80.966743	-108.702993	-0.050346	-0.148717	0.987597	-0.289186	0.948662	0.128111	-0.955948	-0.279150	-0.090769	0	0	0
13682	0	0	0	0	0	9.694482	1.228165	-0.940202	0.010346	0.005033	-0.000133	-0.493408	-0.576172	-0.433105	0.672231	0.151473	-0.722792	0.052282	125.319095	-80.969436	-108.699530	-0.050323	-0.148676	0.987605	-0.289258	0.948645	0.128072	-0.955927	-0.279228	-0.090744	0	0	0
13683	0	0	0	0	0	9.717322	1.233497	-0.932921	0.003563	0.005967	0.003643	-0.480957	-0.568604	-0.431885	0.672247	0.151451	-0.722780	0.052312	125.318970	-80.974282	-108.698799	-0.050294	-0.148597	0.987618	-0.289265	0.948652	0.128004	-0.955927	-0.279245	-0.090695	0	0	0
13684	0	0	0	0	0	9.685916	1.239229	-0.919603	0.002474	0.005700	0.002147	-0.500732	-0.582520	-0.431641	0.672261	0.151427	-0.722770	0.052332	125.317459	-80.978279	-108.697670	-0.050269	-0.148533	0.987629	-0.289255	0.948662	0.127950	-0.955931	-0.279245	-0.090652	0	0	0
13685	0	0	0	0	0	9.717453	1.233096	-0.932088	0.001110	0.000993	-0.000613	-0.492432	-0.574951	-0.433838	0.672262	0.151413	-0.722772	0.052335	125.321696	-80.979487	-108.702779	-0.050275	-0.148509	0.987632	-0.289241	0.948670	0.127926	-0.955935	-0.279232	-0.090650	0	0	0
13686	0	0	0	0	0	9.676025	1.271435	-0.912320	0.005509	0.003511	0.001151	-0.493652	-0.580566	-0.435791	0.672265	0.151408	-0.722768	0.052364	125.327601	-80.982254	-108.706775	-0.050271	-0.148460	0.987640	-0.289271	0.948667	0.127878	-0.955926	-0.279267	-0.090635	0	0	0
13687	0	0	0	0	0	9.721589	1.282516	-0.898395	-0.007852	0.001395	0.000171	-0.484863	-0.577637	-0.434814	0.672274	0.151361	-0.722771	0.052338	125.327161	-80.983961	-108.712347	-0.050276	-0.148427	0.987645	-0.289170	0.948701	0.127855	-0.955957	-0.279169	-0.090617	0	0	0
13688	0	0	0	0	0	9.694744	1.227480	-0.938392	-0.012271	-0.001850	0.000515	-0.491455	-0.578125	-0.436279	0.672273	0.151299	-0.722789	0.052295	125.335748	-80.984637	-108.729621	-0.050317	-0.148401	0.987646	-0.289027	0.948748	0.127832	-0.955998	-0.279024	-0.090630	0	0	0
13689	0	0	0	0	0	9.707563	1.265477	-0.924564	-0.013087	0.002323	0.000284	-0.482910	-0.572998	-0.434326	0.672289	0.151234	-0.722791	0.052251	125.329810	-80.986705	-108.732664	-0.050313	-0.148365	0.987652	-0.288876	0.948797	0.127812	-0.956044	-0.278878	-0.090596	0	0	0
13690	0	0	0	0	0	9.663267	1.233544	-0.925362	-0.010785	-0.004036	0.003179	-0.491943	-0.586426	-0.431641	0.672278	0.151165	-0.722817	0.052219	125.351043	-80.987938	-108.762179	-0.050383	-0.148319	0.987655	-0.288741	0.948845	0.127761	-0.956081	-0.278739	-0.090631	0	0	0
13691	0	0	0	0	0	9.679500	1.230924	-0.977675	0.000398	-0.002451	0.001169	-0.488281	-0.578857	-0.427490	0.672266	0.151143	-0.722832	0.052223	125.368757	-80.988837	-108.781345	-0.050427	-0.148287	0.987658	-0.288718	0.948857	0.127720	-0.956085	-0.278714	-0.090661	0	0	0
13692	0	0	0	0	0	9.707338	1.286964	-1.029011	-0.006365	-0.000791	0.002835	-0.492432	-0.576904	-0.434570	0.672262	0.151098	-0.722846	0.052214	125.383336	-80.990806	-108.800364	-0.050465	-0.148238	0.987663	-0.288645	0.948886	0.127670	-0.956105	-0.278641	-0.090674	0	0	0
13693	0	0	0	0	0	9.684839	1.259423	-0.931625	-0.008963	0.000400	0.000783	-0.490479	-0.576660	-0.430664	0.672268	0.151046	-0.722854	0.052186	125.386487	-80.992468	-108.810216	-0.050482	-0.148202	0.987668	-0.288533	0.948924	0.127641	-0.956138	-0.278531	-0.090665	0	0	0
13694	0	0	0	0	0	9.696003	1.206476	-0.925543	-0.008525	-0.000597	-0.002266	-0.496094	-0.583740	-0.437988	0.672268	0.151006	-0.722864	0.052148	125.388554	-80.992259	-108.818601	-0.050505	-0.148199	0.987667	-0.288429	0.948955	0.127641	-0.956168	-0.278425	-0.090671	0	0	0
13695	0	0	0	0	0	9.684820	1.259575	-0.931617	-0.002240	-0.002714	0.003334	-0.488525	-0.577148	-0.429932	0.672257	0.150968	-0.722883	0.052150	125.410079	-80.994079	-108.843157	-0.050558	-0.148147	0.987672	-0.288380	0.948978	0.127581	-0.956180	-0.278375	-0.090701	0	0	0
13696	0	0	0	0	0	9.726291	1.220939	-0.951314	-0.008983	-0.000328	0.002891	-0.491699	-0.574463	-0.438965	0.672258	0.150909	-0.722896	0.052130	125.421726	-80.996328	-108.861277	-0.050592	-0.148094	0.987678	-0.288273	0.949018	0.127531	-0.956211	-0.278269	-0.090705	0	0	0
13697	0	0	0	0	0	9.692404	1.268326	-0.963797	-0.008688	0.004840	0.002049	-0.487793	-0.574219	-0.433350	0.672279	0.150852	-0.722890	0.052110	125.414617	-81.000055	-108.860582	-0.050570	-0.148034	0.987688	-0.288163	0.949057	0.127490	-0.956245	-0.278168	-0.090652	0	0	0
13698	0	0	0	0	0	9.659311	1.183394	-0.958146	-0.010868	0.004307	-0.000944	-0.489746	-0.574463	-0.432861	0.672299	0.150795	-0.722885	0.052069	125.402936	-81.002160	-108.856925	-0.050549	-0.148003	0.987694	-0.288027	0.949099	0.127479	-0.956287	-0.278039	-0.090605	0	0	0
13699	0	0	0	0	0	9.696150	1.206175	-0.924395	-0.005653	0.002651	0.001052	-0.488770	-0.582031	-0.436523	0.672311	0.150752	-0.722885	0.052055	125.401925	-81.004695	-108.860644	-0.050544	-0.147959	0.987701	-0.287947	0.949128	0.127445	-0.956312	-0.277964	-0.090577	0	0	0
13700	0	0	0	0	0	9.696161	1.206237	-0.924200	-0.003707	0.000198	-0.001440	-0.488770	-0.570068	-0.435059	0.672311	0.150726	-0.722891	0.052038	125.405456	-81.005114	-108.867718	-0.050560	-0.147945	0.987702	-0.287888	0.949148	0.127434	-0.956328	-0.277905	-0.090581	0	0	0
13701	0	0	0	0	0	9.663431	1.233120	-0.924210	0.006346	0.000066	-0.000725	-0.489502	-0.579346	-0.425781	0.672304	0.150730	-0.722895	0.052059	125.415224	-81.005960	-108.875390	-0.050575	-0.147925	0.987705	-0.287924	0.949140	0.127406	-0.956317	-0.277940	-0.090594	0	0	0
13702	0	0	0	0	0	9.701197	1.256924	-0.982539	0.014596	-0.003778	0.000275	-0.490967	-0.578857	-0.433838	0.672275	0.150761	-0.722912	0.052112	125.445282	-81.005853	-108.898618	-0.050636	-0.147906	0.987704	-0.288041	0.949111	0.127360	-0.956279	-0.278050	-0.090662	0	0	0
13703	0	0	0	0	0	9.708908	1.244072	-0.911353	0.007161	-0.004109	-0.000496	-0.487549	-0.581055	-0.437256	0.672252	0.150768	-0.722930	0.052134	125.468313	-81.005418	-108.919245	-0.050691	-0.147895	0.987703	-0.288084	0.949102	0.127330	-0.956263	-0.278087	-0.090717	0	0	0
13704	0	0	0	0	0	9.718793	1.211837	-0.918723	0.003871	-0.005635	-0.002875	-0.491455	-0.580078	-0.427734	0.672226	0.150775	-0.722953	0.052135	125.490152	-81.003211	-108.940393	-0.050758	-0.147912	0.987697	-0.288099	0.949098	0.127326	-0.956254	-0.278092	-0.090788	0	0	0
13705	0	0	0	0	0	9.683595	1.280189	-0.944628	0.004817	0.000795	0.000826	-0.491943	-0.576172	-0.434082	0.672223	0.150768	-0.722956	0.052157	125.500163	-81.005022	-108.949196	-0.050771	-0.147875	0.987702	-0.288119	0.949097	0.127285	-0.956248	-0.278114	-0.090792	0	0	0
13706	0	0	0	0	0	9.691156	1.289222	-0.976673	0.002077	0.008151	0.000980	-0.483398	-0.568604	-0.438232	0.672246	0.150752	-0.722937	0.052177	125.489579	-81.009178	-108.938282	-0.050719	-0.147817	0.987713	-0.288120	0.949103	0.127243	-0.956250	-0.278127	-0.090727	0	0	0
13707	0	0	0	0	0	9.658476	1.316041	-0.976272	-0.003707	0.000198	-0.001439	-0.494873	-0.573486	-0.441162	0.672247	0.150725	-0.722942	0.052160	125.491707	-81.009734	-108.944050	-0.050731	-0.147803	0.987715	-0.288060	0.949122	0.127232	-0.956268	-0.278067	-0.090726	0	0	0
13708	0	0	0	0	0	9.706419	1.286047	-0.936808	-0.006284	0.002116	-0.005601	-0.489502	-0.579834	-0.432129	0.672259	0.150697	-0.722940	0.052115	125.478792	-81.009034	-108.937105	-0.050717	-0.147820	0.987713	-0.287960	0.949149	0.127263	-0.956298	-0.277967	-0.090704	0	0	0
13709	0	0	0	0	0	9.653362	1.266181	-0.917635	-0.007140	0.004836	-0.001613	-0.491943	-0.575439	-0.431152	0.672280	0.150658	-0.722931	0.052088	125.464907	-81.011051	-108.928653	-0.050684	-0.147795	0.987718	-0.287867	0.949178	0.127256	-0.956328	-0.277882	-0.090653	0	0	0
13710	0	0	0	0	0	9.715110	1.275284	-0.955721	-0.010704	-0.001130	-0.005259	-0.499268	-0.577881	-0.430908	0.672280	0.150624	-0.722941	0.052034	125.461014	-81.009213	-108.932004	-0.050703	-0.147822	0.987713	-0.287748	0.949210	0.127288	-0.956363	-0.277758	-0.090663	0	0	0
13711	0	0	0	0	0	9.693503	1.249513	-0.949695	-0.012232	-0.000401	-0.003707	-0.489258	-0.578613	-0.433105	0.672287	0.150577	-0.722949	0.051978	125.455258	-81.008511	-108.934734	-0.050714	-0.147831	0.987712	-0.287607	0.949250	0.127307	-0.956405	-0.277616	-0.090657	0	0	0
13712	0	0	0	0	0	9.695886	1.208469	-0.924160	-0.014035	-0.004112	-0.003423	-0.497070	-0.581787	-0.436768	0.672278	0.150526	-0.722972	0.051916	125.462656	-81.006552	-108.951383	-0.050768	-0.147848	0.987706	-0.287456	0.949293	0.127323	-0.956447	-0.277458	-0.090693	0	0	0
13713	0	0	0	0	0	9.706740	1.177914	-1.022460	-0.019251	-0.002459	-0.005421	-0.491455	-0.571045	-0.444092	0.672283	0.150462	-0.722987	0.051827	125.455350	-81.004367	-108.956615	-0.050794	-0.147879	0.987700	-0.287249	0.949350	0.127365	-0.956508	-0.277246	-0.090699	0	0	0
13714	0	0	0	0	0	9.704511	1.197886	-0.943628	0.001404	0.006162	-0.001453	-0.497070	-0.582520	-0.434570	0.672301	0.150447	-0.722973	0.051830	125.444263	-81.006889	-108.946536	-0.050753	-0.147847	0.987707	-0.287229	0.949359	0.127347	-0.956516	-0.277235	-0.090649	0	0	0
13715	0	0	0	0	0	9.690514	1.180957	-0.969498	-0.002304	0.006358	-0.002894	-0.494385	-0.579346	-0.438721	0.672325	0.150428	-0.722956	0.051818	125.425966	-81.008813	-108.930810	-0.050702	-0.147829	0.987712	-0.287183	0.949373	0.127349	-0.956533	-0.277197	-0.090589	0	0	0
13716	0	0	0	0	0	9.683039	1.172018	-0.936419	0.002514	0.007155	-0.002065	-0.493652	-0.573975	-0.437988	0.672344	0.150424	-0.722938	0.051828	125.411977	-81.011255	-108.916343	-0.050651	-0.147802	0.987719	-0.287187	0.949373	0.127337	-0.956534	-0.277210	-0.090534	0	0	0
13717	0	0	0	0	0	9.699311	1.169765	-0.988062	0.005948	0.002518	-0.001892	-0.492920	-0.579346	-0.428467	0.672347	0.150431	-0.722933	0.051846	125.411836	-81.012370	-108.914212	-0.050639	-0.147786	0.987722	-0.287219	0.949365	0.127322	-0.956525	-0.277245	-0.090522	0	0	0
13718	0	0	0	0	0	9.695885	1.210137	-0.921994	0.015185	0.006562	-0.001405	-0.492920	-0.577881	-0.436279	0.672355	0.150466	-0.722914	0.051903	125.408478	-81.014929	-108.903233	-0.050597	-0.147754	0.987729	-0.287343	0.949332	0.127291	-0.956490	-0.277377	-0.090489	0	0	0
13719	0	0	0	0	0	9.695870	1.210285	-0.921949	-0.003981	-0.004243	-0.002708	-0.496582	-0.581787	-0.433838	0.672341	0.150444	-0.722933	0.051877	125.420902	-81.013419	-108.919582	-0.050647	-0.147764	0.987725	-0.287281	0.949350	0.127293	-0.956506	-0.277307	-0.090532	0	0	0
13720	0	0	0	0	0	9.733618	1.234287	-0.980259	0.000398	-0.002450	0.001169	-0.490967	-0.572266	-0.439941	0.672327	0.150424	-0.722950	0.051884	125.440952	-81.014171	-108.940763	-0.050698	-0.147733	0.987727	-0.287264	0.949361	0.127250	-0.956509	-0.277287	-0.090569	0	0	0
13721	0	0	0	0	0	9.702099	1.240277	-0.967683	-0.003310	-0.002254	-0.000272	-0.491699	-0.581299	-0.439697	0.672319	0.150395	-0.722965	0.051870	125.453003	-81.014458	-108.956346	-0.050736	-0.147715	0.987728	-0.287207	0.949382	0.127227	-0.956524	-0.277227	-0.090593	0	0	0
13722	0	0	0	0	0	9.686807	1.244013	-1.007179	-0.001781	-0.002983	-0.001824	-0.488525	-0.579102	-0.432617	0.672307	0.150374	-0.722981	0.051853	125.465864	-81.013731	-108.972275	-0.050782	-0.147712	0.987726	-0.287158	0.949398	0.127217	-0.956536	-0.277173	-0.090629	0	0	0
13723	0	0	0	0	0	9.724786	1.246197	-0.961152	0.007476	0.001788	-0.003445	-0.487549	-0.576904	-0.428711	0.672307	0.150392	-0.722977	0.051871	125.465494	-81.013880	-108.969027	-0.050772	-0.147713	0.987726	-0.287206	0.949384	0.127216	-0.956522	-0.277222	-0.090626	0	0	0
13724	0	0	0	0	0	9.695774	1.210874	-0.922188	0.006514	0.012125	-0.001468	-0.492432	-0.577148	-0.429932	0.672341	0.150400	-0.722941	0.051902	125.440020	-81.018163	-108.940345	-0.050674	-0.147668	0.987738	-0.287253	0.949372	0.127196	-0.956513	-0.277285	-0.090527	0	0	0
13725	0	0	0	0	0	9.651518	1.179069	-0.922532	0.011183	0.001591	-0.002005	-0.487793	-0.584229	-0.436768	0.672337	0.150425	-0.722937	0.051938	125.445384	-81.018918	-108.940752	-0.050671	-0.147656	0.987740	-0.287335	0.949350	0.127177	-0.956489	-0.277368	-0.090531	0	0	0
13726	0	0	0	0	0	9.726134	1.225592	-0.946924	0.014745	0.007557	0.001641	-0.493408	-0.581543	-0.435547	0.672348	0.150451	-0.722916	0.052006	125.444519	-81.023144	-108.932218	-0.050626	-0.147594	0.987751	-0.287459	0.949320	0.127119	-0.956454	-0.277502	-0.090487	0	0	0
13727	0	0	0	0	0	9.663129	1.237656	-0.921303	0.006093	-0.003647	-0.004100	-0.494385	-0.577148	-0.431885	0.672329	0.150467	-0.722930	0.052012	125.458036	-81.021181	-108.943831	-0.050667	-0.147616	0.987746	-0.287493	0.949309	0.127125	-0.956442	-0.277530	-0.090537	0	0	0
13728	0	0	0	0	0	9.692349	1.251381	-0.855840	0.005236	-0.000927	-0.000112	-0.488770	-0.578857	-0.429932	0.672317	0.150468	-0.722940	0.052033	125.473749	-81.021825	-108.957748	-0.050699	-0.147593	0.987748	-0.287525	0.949304	0.127091	-0.956430	-0.277558	-0.090565	0	0	0
13729	0	0	0	0	0	9.703318	1.220115	-0.954199	0.000398	-0.002450	0.001170	-0.490723	-0.580322	-0.435059	0.672305	0.150446	-0.722955	0.052038	125.491555	-81.022717	-108.977006	-0.050743	-0.147562	0.987750	-0.287502	0.949316	0.127050	-0.956435	-0.277533	-0.090596	0	0	0
13730	0	0	0	0	0	9.679325	1.235262	-0.973930	0.001110	0.000993	-0.000613	-0.495605	-0.581543	-0.428467	0.672303	0.150436	-0.722958	0.052044	125.497592	-81.023717	-108.983418	-0.050754	-0.147540	0.987753	-0.287496	0.949321	0.127027	-0.956436	-0.277528	-0.090599	0	0	0
13731	0	0	0	0	0	9.712042	1.208727	-0.973757	-0.002577	0.001917	-0.004162	-0.495605	-0.583252	-0.439941	0.672311	0.150422	-0.722955	0.052022	125.489572	-81.023574	-108.978256	-0.050742	-0.147547	0.987753	-0.287448	0.949334	0.127041	-0.956451	-0.277481	-0.090583	0	0	0
13732	0	0	0	0	0	9.703270	1.220641	-0.954021	0.006366	0.000793	-0.002834	-0.496582	-0.580078	-0.430420	0.672305	0.150438	-0.722957	0.052041	125.495229	-81.023486	-108.981087	-0.050750	-0.147546	0.987752	-0.287495	0.949320	0.127034	-0.956437	-0.277527	-0.090596	0	0	0
13733	0	0	0	0	0	9.703256	1.220851	-0.953891	0.010784	0.004039	-0.003176	-0.496094	-0.578125	-0.438477	0.672310	0.150465	-0.722944	0.052073	125.490674	-81.024509	-108.971683	-0.050720	-0.147537	0.987755	-0.287574	0.949297	0.127027	-0.956414	-0.277610	-0.090576	0	0	0
13734	0	0	0	0	0	9.694504	1.232624	-0.934122	0.018637	0.002647	-0.003345	-0.496826	-0.576904	-0.438477	0.672301	0.150521	-0.722936	0.052134	125.497011	-81.024865	-108.968425	-0.050709	-0.147534	0.987756	-0.287734	0.949251	0.127011	-0.956367	-0.277770	-0.090586	0	0	0
13735	0	0	0	0	0	9.655477	1.229518	-0.888928	0.011162	0.000861	0.000102	-0.492676	-0.579346	-0.433105	0.672294	0.150538	-0.722937	0.052176	125.508965	-81.026360	-108.975515	-0.050719	-0.147504	0.987760	-0.287815	0.949232	0.126972	-0.956342	-0.277852	-0.090598	0	0	0
13736	0	0	0	0	0	9.691021	1.272837	-0.868733	0.003414	-0.005363	0.002284	-0.491699	-0.588135	-0.421387	0.672267	0.150523	-0.722963	0.052194	125.541616	-81.026705	-109.007989	-0.050801	-0.147469	0.987761	-0.287822	0.949237	0.126915	-0.956336	-0.277852	-0.090667	0	0	0
13737	0	0	0	0	0	9.717267	1.237737	-0.927869	-0.001548	0.000005	0.003662	-0.495361	-0.579834	-0.431641	0.672265	0.150485	-0.722973	0.052201	125.556338	-81.029573	-109.025254	-0.050829	-0.147407	0.987769	-0.287779	0.949259	0.126852	-0.956347	-0.277812	-0.090671	0	0	0
13738	0	0	0	0	0	9.700813	1.261870	-0.979992	0.002618	-0.000464	-0.000056	-0.493652	-0.579834	-0.426758	0.672254	0.150484	-0.722981	0.052219	125.570101	-81.030209	-109.037613	-0.050857	-0.147386	0.987771	-0.287804	0.949255	0.126821	-0.956338	-0.277834	-0.090695	0	0	0
13739	0	0	0	0	0	9.679250	1.235573	-0.974282	-0.007727	-0.005498	0.000074	-0.497559	-0.580566	-0.438721	0.672238	0.150440	-0.723008	0.052188	125.589965	-81.029569	-109.063668	-0.050928	-0.147373	0.987769	-0.287704	0.949288	0.126798	-0.956364	-0.277728	-0.090745	0	0	0
13740	0	0	0	0	0	9.717251	1.237642	-0.928165	0.002911	0.004703	-0.000900	-0.496826	-0.579590	-0.439697	0.672248	0.150435	-0.722999	0.052203	125.586382	-81.031705	-109.059262	-0.050905	-0.147342	0.987775	-0.287716	0.949288	0.126774	-0.956362	-0.277745	-0.090716	0	0	0
13741	0	0	0	0	0	9.701997	1.241412	-0.967245	0.001548	-0.000005	-0.003662	-0.493652	-0.576904	-0.432129	0.672245	0.150434	-0.723002	0.052197	125.587455	-81.031155	-109.060913	-0.050912	-0.147350	0.987773	-0.287707	0.949290	0.126780	-0.956364	-0.277734	-0.090724	0	0	0
13742	0	0	0	0	0	9.662926	1.238652	-0.922088	0.011620	0.000589	-0.005057	-0.497803	-0.583740	-0.423828	0.672236	0.150471	-0.723001	0.052224	125.591722	-81.030062	-109.059900	-0.050915	-0.147369	0.987770	-0.287795	0.949262	0.126789	-0.956337	-0.277820	-0.090744	0	0	0
13743	0	0	0	0	0	9.704314	1.200697	-0.942081	0.019200	-0.005245	-0.006492	-0.491699	-0.573486	-0.435791	0.672202	0.150541	-0.723015	0.052268	125.612391	-81.026446	-109.071150	-0.050965	-0.147417	0.987760	-0.287957	0.949211	0.126807	-0.956286	-0.277970	-0.090826	0	0	0
13744	0	0	0	0	0	9.702969	1.221828	-0.955559	0.015054	-0.004051	-0.004884	-0.494629	-0.582520	-0.425781	0.672171	0.150595	-0.723029	0.052308	125.633485	-81.023786	-109.084586	-0.051014	-0.147449	0.987753	-0.288088	0.949170	0.126810	-0.956244	-0.278091	-0.090900	0	0	0
13745	0	0	0	0	0	9.681351	1.195864	-0.950038	0.007201	-0.002659	-0.004715	-0.497803	-0.572021	-0.439941	0.672155	0.150617	-0.723039	0.052317	125.643392	-81.021859	-109.091901	-0.051044	-0.147474	0.987748	-0.288134	0.949155	0.126822	-0.956229	-0.278130	-0.090941	0	0	0
13746	0	0	0	0	0	9.680047	1.216922	-0.963161	0.005673	-0.001928	-0.003162	-0.487061	-0.572510	-0.428955	0.672140	0.150629	-0.723050	0.052328	125.656273	-81.020793	-109.102916	-0.051078	-0.147481	0.987745	-0.288167	0.949146	0.126816	-0.956217	-0.278158	-0.090980	0	0	0
13747	0	0	0	0	0	9.720229	1.199656	-0.995771	0.009420	-0.000674	-0.005943	-0.493164	-0.574951	-0.432617	0.672130	0.150662	-0.723051	0.052342	125.659004	-81.018957	-109.101679	-0.051086	-0.147512	0.987740	-0.288234	0.949122	0.126838	-0.956196	-0.278221	-0.091005	0	0	0
13748	0	0	0	0	0	9.679928	1.217688	-0.963387	0.008583	0.002774	-0.004066	-0.485840	-0.574951	-0.430420	0.672130	0.150685	-0.723045	0.052362	125.657101	-81.019033	-109.096254	-0.051071	-0.147516	0.987740	-0.288292	0.949104	0.126840	-0.956180	-0.278280	-0.091000	0	0	0
13749	0	0	0	0	0	9.685139	1.247015	-0.917256	0.006822	0.000514	-0.007997	-0.494629	-0.583496	-0.433350	0.672126	0.150717	-0.723041	0.052361	125.650507	-81.016637	-109.087082	-0.051061	-0.147563	0.987734	-0.288336	0.949085	0.126884	-0.956167	-0.278320	-0.091009	0	0	0
13750	0	0	0	0	0	9.703836	1.203329	-0.943641	0.020811	0.003175	-0.000364	-0.495361	-0.574707	-0.436035	0.672118	0.150771	-0.723032	0.052440	125.661905	-81.018496	-109.087601	-0.051052	-0.147532	0.987739	-0.288516	0.949036	0.126839	-0.956113	-0.278503	-0.091016	0	0	0
13751	0	0	0	0	0	9.693799	1.235847	-0.937168	0.020306	-0.004261	-0.007112	-0.489502	-0.581299	-0.435059	0.672087	0.150846	-0.723042	0.052487	125.678961	-81.014917	-109.094552	-0.051090	-0.147584	0.987729	-0.288688	0.948981	0.126862	-0.956059	-0.278664	-0.091089	0	0	0
13752	0	0	0	0	0	9.679692	1.219059	-0.964026	0.014234	0.000116	-0.005122	-0.493164	-0.579346	-0.429932	0.672074	0.150892	-0.723042	0.052522	125.685403	-81.013636	-109.094353	-0.051097	-0.147605	0.987726	-0.288800	0.948946	0.126870	-0.956025	-0.278772	-0.091116	0	0	0
13753	0	0	0	0	0	9.711166	1.213344	-0.976742	0.018231	0.005084	-0.004532	-0.489746	-0.582275	-0.428955	0.672077	0.150949	-0.723023	0.052577	125.679213	-81.014381	-109.078972	-0.051053	-0.147607	0.987728	-0.288951	0.948900	0.126870	-0.955982	-0.278928	-0.091095	0	0	0
13754	0	0	0	0	0	9.669617	1.252050	-0.957289	0.013543	-0.002603	-0.005447	-0.491211	-0.579346	-0.434570	0.672054	0.151000	-0.723032	0.052611	125.693219	-81.011898	-109.086016	-0.051085	-0.147641	0.987721	-0.289070	0.948862	0.126882	-0.955944	-0.279038	-0.091151	0	0	0
13755	0	0	0	0	0	9.693545	1.237345	-0.937820	0.012725	0.001570	-0.005681	-0.486572	-0.583984	-0.431396	0.672049	0.151043	-0.723025	0.052639	125.691789	-81.010934	-109.078648	-0.051071	-0.147664	0.987718	-0.289169	0.948830	0.126898	-0.955915	-0.279136	-0.091158	0	0	0
13756	0	0	0	0	0	9.709731	1.235214	-0.990049	0.007200	-0.002666	-0.004717	-0.493896	-0.578613	-0.435059	0.672031	0.151069	-0.723035	0.052650	125.702832	-81.008799	-109.086680	-0.051104	-0.147691	0.987712	-0.289221	0.948812	0.126910	-0.955897	-0.279182	-0.091204	0	0	0
13757	0	0	0	0	0	9.699687	1.267802	-0.983469	0.011177	0.001579	-0.002019	-0.494629	-0.577148	-0.442139	0.672027	0.151094	-0.723032	0.052686	125.708229	-81.009542	-109.087123	-0.051101	-0.147679	0.987714	-0.289304	0.948790	0.126891	-0.955872	-0.279265	-0.091208	0	0	0
13758	0	0	0	0	0	9.676918	1.262230	-0.990372	0.008959	-0.000404	-0.000789	-0.492188	-0.580078	-0.435791	0.672016	0.151104	-0.723038	0.052714	125.722177	-81.010175	-109.097950	-0.051125	-0.147659	0.987716	-0.289356	0.948778	0.126860	-0.955855	-0.279316	-0.091233	0	0	0
13759	0	0	0	0	0	9.685845	1.229148	-0.906229	0.011743	-0.006315	-0.005156	-0.495605	-0.585938	-0.438721	0.671983	0.151144	-0.723058	0.052735	125.744469	-81.006818	-109.115170	-0.051189	-0.147698	0.987707	-0.289446	0.948749	0.126872	-0.955825	-0.279393	-0.091316	0	0	0
13760	0	0	0	0	0	9.690806	1.279782	-0.964721	0.018189	0.003632	-0.000319	-0.497314	-0.581055	-0.432373	0.671979	0.151187	-0.723049	0.052804	125.752783	-81.008910	-109.114327	-0.051175	-0.147665	0.987713	-0.289597	0.948709	0.126829	-0.955780	-0.279548	-0.091313	0	0	0
13761	0	0	0	0	0	9.676817	1.262569	-0.990920	0.008160	0.004491	-0.003136	-0.493896	-0.576416	-0.432617	0.671987	0.151205	-0.723035	0.052827	125.745535	-81.010108	-109.103717	-0.051141	-0.147655	0.987716	-0.289651	0.948693	0.126824	-0.955765	-0.279607	-0.091285	0	0	0
13762	0	0	0	0	0	9.692057	1.259281	-0.951550	0.004144	-0.001200	-0.001611	-0.488525	-0.580566	-0.442383	0.671975	0.151206	-0.723045	0.052838	125.758433	-81.009995	-109.115638	-0.051172	-0.147646	0.987716	-0.289669	0.948690	0.126805	-0.955758	-0.279621	-0.091315	0	0	0
13763	0	0	0	0	0	9.684529	1.250561	-0.918869	-0.008210	0.005290	-0.005221	-0.489502	-0.580078	-0.431641	0.672000	0.151176	-0.723032	0.052795	125.735044	-81.010492	-109.098182	-0.051124	-0.147653	0.987717	-0.289567	0.948717	0.126835	-0.955791	-0.279526	-0.091258	0	0	0
13764	0	0	0	0	0	9.702035	1.227795	-0.957396	-0.009738	0.006024	-0.003668	-0.496826	-0.578857	-0.438721	0.672027	0.151135	-0.723018	0.052752	125.712471	-81.011838	-109.082565	-0.051076	-0.147645	0.987721	-0.289448	0.948751	0.126852	-0.955830	-0.279415	-0.091194	0	0	0
13765	0	0	0	0	0	9.702021	1.228200	-0.957016	-0.001069	0.000454	-0.003606	-0.492432	-0.574463	-0.435303	0.672028	0.151125	-0.723020	0.052737	125.710806	-81.011467	-109.082961	-0.051080	-0.147651	0.987720	-0.289414	0.948760	0.126860	-0.955840	-0.279380	-0.091195	0	0	0
13766	0	0	0	0	0	9.705965	1.278088	-0.923998	0.004563	-0.002925	-0.002549	-0.498291	-0.579590	-0.425049	0.672011	0.151127	-0.723035	0.052742	125.726288	-81.010433	-109.097860	-0.051124	-0.147655	0.987717	-0.289426	0.948758	0.126850	-0.955834	-0.279386	-0.091239	0	0	0
13767	0	0	0	0	0	9.700650	1.249593	-0.970217	-0.008082	-0.001601	-0.005309	-0.492676	-0.578125	-0.437988	0.672010	0.151100	-0.723045	0.052694	125.723049	-81.008582	-109.100730	-0.051142	-0.147682	0.987712	-0.289326	0.948784	0.126881	-0.955863	-0.279282	-0.091251	0	0	0
13768	0	0	0	0	0	9.703083	1.208679	-0.944545	-0.006993	-0.001333	-0.003813	-0.499023	-0.576660	-0.433838	0.672007	0.151073	-0.723057	0.052658	125.725450	-81.007376	-109.108341	-0.051168	-0.147695	0.987708	-0.289241	0.948808	0.126894	-0.955888	-0.279193	-0.091268	0	0	0
13769	0	0	0	0	0	9.704047	1.209984	-1.035843	-0.007412	0.000392	-0.002876	-0.492920	-0.581543	-0.434326	0.672012	0.151038	-0.723061	0.052623	125.721878	-81.007324	-109.110486	-0.051174	-0.147694	0.987708	-0.289146	0.948837	0.126900	-0.955916	-0.279098	-0.091261	0	0	0
13770	0	0	0	0	0	9.673780	1.195739	-1.009760	-0.001180	0.008067	-0.005630	-0.496582	-0.574707	-0.432861	0.672039	0.151033	-0.723039	0.052607	125.695828	-81.008450	-109.086123	-0.051105	-0.147697	0.987711	-0.289114	0.948843	0.126926	-0.955930	-0.279075	-0.091192	0	0	0
13771	0	0	0	0	0	9.665055	1.207773	-0.989357	0.000998	0.008604	-0.002639	-0.489014	-0.577637	-0.429688	0.672068	0.151024	-0.723014	0.052609	125.673420	-81.011253	-109.064318	-0.051033	-0.147671	0.987719	-0.289099	0.948848	0.126923	-0.955938	-0.279072	-0.091114	0	0	0
13772	0	0	0	0	0	9.681576	1.183900	-0.936602	0.000728	0.004162	-0.003900	-0.491211	-0.578125	-0.439453	0.672079	0.151020	-0.723005	0.052604	125.663579	-81.011862	-109.055282	-0.051006	-0.147669	0.987721	-0.289084	0.948851	0.126930	-0.955944	-0.279060	-0.091086	0	0	0
13773	0	0	0	0	0	9.689047	1.193525	-0.968766	-0.008481	0.000845	-0.006484	-0.492920	-0.575439	-0.432617	0.672088	0.150995	-0.723005	0.052553	125.650447	-81.010282	-109.048368	-0.050997	-0.147701	0.987716	-0.288981	0.948877	0.126973	-0.955976	-0.278956	-0.091073	0	0	0
13774	0	0	0	0	0	9.699014	1.161723	-0.975349	-0.003687	0.000918	-0.003550	-0.493164	-0.586914	-0.434326	0.672091	0.150974	-0.723009	0.052527	125.647503	-81.010026	-109.049265	-0.051001	-0.147704	0.987716	-0.288917	0.948896	0.126981	-0.955995	-0.278892	-0.091069	0	0	0
13775	0	0	0	0	0	9.688955	1.194600	-0.968358	-0.001450	0.003624	-0.006892	-0.490723	-0.573486	-0.429199	0.672105	0.150973	-0.722998	0.052502	125.629365	-81.009183	-109.033204	-0.050964	-0.147733	0.987713	-0.288881	0.948901	0.127022	-0.956008	-0.278858	-0.091037	0	0	0
13776	0	0	0	0	0	9.730427	1.156932	-0.987690	0.003095	-0.000022	-0.007329	-0.500977	-0.579590	-0.437500	0.672100	0.150994	-0.722999	0.052492	125.625640	-81.006728	-109.028624	-0.050966	-0.147777	0.987707	-0.288896	0.948891	0.127062	-0.956003	-0.278869	-0.091053	0	0	0
13777	0	0	0	0	0	9.702795	1.213138	-0.941791	0.004184	0.000247	-0.005833	-0.488281	-0.582031	-0.429443	0.672097	0.151009	-0.722999	0.052489	125.622906	-81.005250	-109.024891	-0.050965	-0.147804	0.987703	-0.288914	0.948882	0.127087	-0.955998	-0.278884	-0.091062	0	0	0
13778	0	0	0	0	0	9.727777	1.199641	-1.013210	0.010834	0.006196	-0.009526	-0.496338	-0.583252	-0.435303	0.672108	0.151061	-0.722976	0.052503	125.600904	-81.003882	-108.997411	-0.050902	-0.147851	0.987699	-0.289003	0.948848	0.127141	-0.955974	-0.278976	-0.091027	0	0	0
13779	0	0	0	0	0	9.671186	1.220402	-0.928329	0.014100	0.007003	-0.005039	-0.487061	-0.575439	-0.433105	0.672122	0.151105	-0.722951	0.052543	125.585646	-81.005027	-108.975245	-0.050838	-0.147852	0.987702	-0.289114	0.948813	0.127149	-0.955944	-0.279095	-0.090982	0	0	0
13780	0	0	0	0	0	9.687468	1.218341	-0.979752	0.012610	0.009180	-0.007710	-0.492920	-0.582275	-0.439209	0.672144	0.151154	-0.722919	0.052571	125.559132	-81.005516	-108.942416	-0.050751	-0.147873	0.987703	-0.289215	0.948777	0.127185	-0.955918	-0.279204	-0.090918	0	0	0
13781	0	0	0	0	0	9.687417	1.218997	-0.979440	0.009437	0.000037	-0.008061	-0.494629	-0.585938	-0.431396	0.672137	0.151195	-0.722916	0.052579	125.555350	-81.002930	-108.934573	-0.050745	-0.147922	0.987696	-0.289284	0.948751	0.127227	-0.955897	-0.279269	-0.090936	0	0	0
13782	0	0	0	0	0	9.693754	1.227981	-0.920802	0.007660	-0.002950	-0.009879	-0.501465	-0.579102	-0.437500	0.672118	0.151241	-0.722924	0.052575	125.557212	-80.998319	-108.932997	-0.050766	-0.147999	0.987684	-0.289344	0.948724	0.127289	-0.955878	-0.279319	-0.090986	0	0	0
13783	0	0	0	0	0	9.707606	1.246042	-0.894584	0.003095	-0.000026	-0.007331	-0.487793	-0.583740	-0.433350	0.672115	0.151258	-0.722924	0.052562	125.551524	-80.996051	-108.926904	-0.050763	-0.148041	0.987678	-0.289352	0.948716	0.127329	-0.955876	-0.279323	-0.090996	0	0	0
13784	0	0	0	0	0	9.711114	1.206104	-0.960146	-0.004775	0.000645	-0.005047	-0.488525	-0.575684	-0.432129	0.672118	0.151242	-0.722927	0.052530	125.546073	-80.994947	-108.925419	-0.050766	-0.148060	0.987675	-0.289286	0.948733	0.127354	-0.955895	-0.279256	-0.090995	0	0	0
13785	0	0	0	0	0	9.694532	1.230928	-1.012241	-0.004336	-0.000359	-0.008097	-0.489258	-0.576416	-0.434570	0.672120	0.151237	-0.722929	0.052488	125.535505	-80.992211	-108.918696	-0.050764	-0.148111	0.987667	-0.289223	0.948745	0.127409	-0.955915	-0.279189	-0.090999	0	0	0
13786	0	0	0	0	0	9.685677	1.243354	-0.992416	0.003381	0.005137	-0.008184	-0.494873	-0.583984	-0.430664	0.672135	0.151256	-0.722913	0.052476	125.514422	-80.991161	-108.897007	-0.050713	-0.148147	0.987664	-0.289232	0.948736	0.127457	-0.955915	-0.279200	-0.090963	0	0	0
13787	0	0	0	0	0	9.708577	1.228174	-0.881005	-0.007373	0.001829	-0.007102	-0.494141	-0.573242	-0.429932	0.672146	0.151237	-0.722909	0.052428	125.497776	-80.989617	-108.885892	-0.050693	-0.148182	0.987660	-0.289139	0.948758	0.127505	-0.955944	-0.279107	-0.090941	0	0	0
13788	0	0	0	0	0	9.694550	1.211605	-0.907156	0.001165	0.003154	-0.006953	-0.489258	-0.581543	-0.430420	0.672153	0.151247	-0.722902	0.052415	125.485262	-80.988426	-108.873574	-0.050668	-0.148212	0.987657	-0.289135	0.948754	0.127542	-0.955946	-0.279104	-0.090925	0	0	0
13789	0	0	0	0	0	9.686742	1.224723	-0.978977	0.012455	-0.002873	-0.006945	-0.492920	-0.582275	-0.436768	0.672133	0.151295	-0.722909	0.052435	125.494142	-80.985391	-108.876802	-0.050693	-0.148259	0.987648	-0.289232	0.948721	0.127570	-0.955916	-0.279193	-0.090975	0	0	0
13790	0	0	0	0	0	9.699317	1.263315	-0.965769	0.014670	-0.000891	-0.008178	-0.494629	-0.577881	-0.428223	0.672117	0.151358	-0.722909	0.052462	125.497462	-80.982256	-108.872712	-0.050700	-0.148314	0.987640	-0.289357	0.948677	0.127609	-0.955878	-0.279311	-0.091014	0	0	0
13791	0	0	0	0	0	9.685211	1.246860	-0.992566	0.009188	-0.003687	-0.011435	-0.493652	-0.581299	-0.427002	0.672097	0.151411	-0.722917	0.052455	125.497447	-80.976854	-108.868828	-0.050720	-0.148405	0.987625	-0.289425	0.948646	0.127685	-0.955856	-0.279367	-0.091068	0	0	0
13792	0	0	0	0	0	9.700307	1.244498	-0.953326	0.007543	0.004656	-0.011911	-0.489502	-0.582275	-0.434570	0.672105	0.151463	-0.722899	0.052451	125.474116	-80.973797	-108.841548	-0.050667	-0.148479	0.987617	-0.289490	0.948616	0.127765	-0.955839	-0.279432	-0.091047	0	0	0
13793	0	0	0	0	0	9.722959	1.251136	-0.946125	0.001182	0.003872	-0.009067	-0.495850	-0.584229	-0.433838	0.672119	0.151479	-0.722884	0.052429	125.452292	-80.972013	-108.820226	-0.050621	-0.148527	0.987612	-0.289480	0.948611	0.127824	-0.955845	-0.279423	-0.091016	0	0	0
13794	0	0	0	0	0	9.663481	1.223353	-0.985578	-0.000061	0.009769	-0.008368	-0.496094	-0.579834	-0.434814	0.672152	0.151490	-0.722853	0.052411	125.415614	-80.972335	-108.784150	-0.050526	-0.148554	0.987613	-0.289465	0.948608	0.127878	-0.955854	-0.279418	-0.090931	0	0	0
13795	0	0	0	0	0	9.676102	1.262314	-0.971265	-0.004033	0.005517	-0.011066	-0.496582	-0.570801	-0.435059	0.672175	0.151495	-0.722833	0.052364	125.381806	-80.970160	-108.753719	-0.050459	-0.148616	0.987607	-0.289407	0.948614	0.127962	-0.955875	-0.279363	-0.090877	0	0	0
13796	0	0	0	0	0	9.687375	1.210287	-0.964677	-0.008463	0.001552	-0.008601	-0.493652	-0.582520	-0.433594	0.672185	0.151474	-0.722832	0.052305	125.364856	-80.967813	-108.743309	-0.050445	-0.148664	0.987600	-0.289298	0.948640	0.128022	-0.955909	-0.279253	-0.090862	0	0	0
13797	0	0	0	0	0	9.679794	1.202181	-0.931718	-0.004455	0.007242	-0.010130	-0.492676	-0.573975	-0.426758	0.672215	0.151474	-0.722808	0.052261	125.327716	-80.966643	-108.709749	-0.050365	-0.148712	0.987597	-0.289235	0.948649	0.128097	-0.955932	-0.279196	-0.090791	0	0	0
13798	0	0	0	0	0	9.702468	1.208797	-0.924312	0.001182	0.003870	-0.009069	-0.494873	-0.582520	-0.425049	0.672225	0.151492	-0.722796	0.052241	125.308609	-80.964698	-108.690814	-0.050326	-0.148761	0.987592	-0.289231	0.948642	0.128155	-0.955936	-0.279192	-0.090768	0	0	0
13799	0	0	0	0	0	9.646784	1.230752	-0.931314	0.010297	-0.002695	-0.012053	-0.499512	-0.580811	-0.433594	0.672209	0.151551	-0.722799	0.052236	125.305154	-80.959334	-108.682803	-0.050335	-0.148855	0.987577	-0.289310	0.948607	0.128236	-0.955911	-0.279261	-0.090813	0	0	0
13800	0	0	0	0	0	9.712230	1.290172	-0.937074	0.009592	-0.006133	-0.010262	-0.491455	-0.575684	-0.434570	0.672176	0.151607	-0.722818	0.052237	125.318541	-80.953475	-108.691453	-0.050390	-0.148943	0.987561	-0.289394	0.948573	0.128297	-0.955883	-0.279329	-0.090902	0	0	0
13801	0	0	0	0	0	9.698139	1.273815	-0.963801	0.011667	0.002737	-0.011413	-0.495117	-0.583496	-0.434326	0.672178	0.151667	-0.722803	0.052244	125.301262	-80.950209	-108.668648	-0.050349	-0.149017	0.987552	-0.289486	0.948535	0.128371	-0.955857	-0.279419	-0.090896	0	0	0
13802	0	0	0	0	0	9.685374	1.236834	-0.977277	0.005747	0.000944	-0.011620	-0.494629	-0.587646	-0.430908	0.672175	0.151709	-0.722798	0.052228	125.287395	-80.946150	-108.652694	-0.050329	-0.149097	0.987541	-0.289521	0.948514	0.128450	-0.955847	-0.279449	-0.090905	0	0	0
13803	0	0	0	0	0	9.677745	1.228938	-0.944559	0.001216	0.005304	-0.013299	-0.492920	-0.579590	-0.431396	0.672195	0.151740	-0.722776	0.052192	125.252711	-80.942850	-108.618328	-0.050258	-0.149181	0.987532	-0.289514	0.948502	0.128551	-0.955853	-0.279444	-0.090860	0	0	0
13804	0	0	0	0	0	9.686469	1.218326	-0.963659	0.003375	0.005130	-0.008192	-0.487793	-0.578857	-0.429932	0.672208	0.151764	-0.722759	0.052185	125.232824	-80.941663	-108.596945	-0.050209	-0.149219	0.987529	-0.289537	0.948489	0.128599	-0.955849	-0.279469	-0.090827	0	0	0
13805	0	0	0	0	0	9.639614	1.228629	-0.989875	0.009067	0.003915	-0.013472	-0.492188	-0.579102	-0.426025	0.672216	0.151823	-0.722740	0.052177	125.206393	-80.937818	-108.566380	-0.050150	-0.149309	0.987518	-0.289605	0.948455	0.128695	-0.955832	-0.279536	-0.090806	0	0	0
13806	0	0	0	0	0	9.698921	1.258234	-0.949392	0.000739	0.004872	-0.006022	-0.488281	-0.580078	-0.429688	0.672230	0.151830	-0.722727	0.052166	125.190250	-80.937570	-108.550519	-0.050111	-0.149327	0.987517	-0.289598	0.948453	0.128724	-0.955836	-0.279533	-0.090772	0	0	0
13807	0	0	0	0	0	9.690027	1.270674	-0.929579	0.002023	0.000412	-0.010948	-0.499268	-0.585449	-0.434326	0.672230	0.151856	-0.722723	0.052138	125.175319	-80.933746	-108.535687	-0.050093	-0.149402	0.987507	-0.289597	0.948443	0.128802	-0.955837	-0.279527	-0.090777	0	0	0
13808	0	0	0	0	0	9.712646	1.277294	-0.922623	0.002689	0.002411	-0.008514	-0.495117	-0.582275	-0.432129	0.672234	0.151879	-0.722715	0.052125	125.162318	-80.931541	-108.521865	-0.050069	-0.149450	0.987501	-0.289611	0.948431	0.128854	-0.955834	-0.279539	-0.090769	0	0	0
13809	0	0	0	0	0	9.712554	1.278052	-0.922543	0.006817	0.000495	-0.008012	-0.492188	-0.586182	-0.433838	0.672230	0.151911	-0.722712	0.052124	125.155979	-80.929120	-108.512952	-0.050059	-0.149498	0.987494	-0.289654	0.948412	0.128898	-0.955821	-0.279580	-0.090779	0	0	0
13810	0	0	0	0	0	9.711136	1.299589	-0.935393	0.007941	0.002204	-0.010744	-0.492676	-0.579834	-0.430908	0.672230	0.151960	-0.722702	0.052122	125.141779	-80.925792	-108.494826	-0.050030	-0.149568	0.987485	-0.289720	0.948383	0.128967	-0.955803	-0.279642	-0.090780	0	0	0
13811	0	0	0	0	0	9.699720	1.241823	-0.936057	-0.000190	-0.001572	-0.009715	-0.487305	-0.577393	-0.436035	0.672225	0.151976	-0.722706	0.052088	125.133985	-80.921890	-108.488505	-0.050035	-0.149637	0.987474	-0.289697	0.948380	0.129034	-0.955810	-0.279613	-0.090801	0	0	0
13812	0	0	0	0	0	9.683015	1.267074	-0.988381	-0.002350	-0.001402	-0.014825	-0.494629	-0.581543	-0.438721	0.672221	0.152001	-0.722708	0.052029	125.115520	-80.915543	-108.472696	-0.050028	-0.149755	0.987457	-0.289656	0.948377	0.129153	-0.955823	-0.279561	-0.090823	0	0	0
13813	0	0	0	0	0	9.682875	1.268314	-0.988169	0.010836	0.006902	-0.011660	-0.493408	-0.578613	-0.434082	0.672239	0.152059	-0.722679	0.052035	125.085219	-80.913521	-108.437183	-0.049946	-0.149819	0.987451	-0.289739	0.948341	0.129230	-0.955801	-0.279649	-0.090774	0	0	0
13814	0	0	0	0	0	9.719440	1.292183	-0.954478	0.013418	0.005005	-0.007488	-0.486572	-0.578857	-0.431396	0.672245	0.152108	-0.722661	0.052062	125.072412	-80.912769	-108.418059	-0.049900	-0.149848	0.987449	-0.289843	0.948305	0.129261	-0.955773	-0.279755	-0.090753	0	0	0
13815	0	0	0	0	0	9.668883	1.342620	-0.915130	-0.002987	0.004339	-0.005350	-0.491455	-0.575439	-0.433838	0.672262	0.152097	-0.722650	0.052038	125.054705	-80.912859	-108.403322	-0.049861	-0.149859	0.987449	-0.289791	0.948317	0.129287	-0.955790	-0.279708	-0.090712	0	0	0
13816	0	0	0	0	0	9.701721	1.316564	-0.914495	-0.002987	0.004339	-0.005350	-0.495605	-0.587891	-0.426514	0.672277	0.152084	-0.722640	0.052012	125.038639	-80.912849	-108.390394	-0.049827	-0.149871	0.987449	-0.289737	0.948330	0.129313	-0.955808	-0.279657	-0.090676	0	0	0
13817	0	0	0	0	0	9.692843	1.328927	-0.894398	-0.006675	0.005243	-0.008906	-0.498779	-0.574951	-0.433838	0.672301	0.152073	-0.722623	0.051963	125.008859	-80.911566	-108.365571	-0.049769	-0.149913	0.987446	-0.289652	0.948347	0.129378	-0.955837	-0.279577	-0.090621	0	0	0
13818	0	0	0	0	0	9.685230	1.230777	-0.960283	-0.015030	-0.001544	-0.013365	-0.494385	-0.583252	-0.433594	0.672305	0.152054	-0.722631	0.051867	124.988460	-80.905801	-108.354491	-0.049772	-0.150017	0.987430	-0.289499	0.948379	0.129492	-0.955883	-0.279415	-0.090632	0	0	0
13819	0	0	0	0	0	9.698975	1.249352	-0.933761	-0.010659	0.000268	-0.009490	-0.489258	-0.577148	-0.438965	0.672314	0.152033	-0.722632	0.051798	124.969818	-80.902606	-108.343258	-0.049760	-0.150079	0.987421	-0.289377	0.948406	0.129566	-0.955921	-0.279289	-0.090622	0	0	0
13820	0	0	0	0	0	9.702717	1.209743	-0.998417	-0.011374	0.015766	-0.008393	-0.498779	-0.574219	-0.430420	0.672378	0.152000	-0.722583	0.051740	124.909073	-80.904930	-108.289944	-0.049607	-0.150087	0.987427	-0.289244	0.948438	0.129630	-0.955969	-0.279177	-0.090461	0	0	0
13821	0	0	0	0	0	9.692532	1.243179	-0.990568	-0.004024	0.006214	-0.013195	-0.491455	-0.579590	-0.424316	0.672405	0.152013	-0.722560	0.051687	124.869228	-80.901940	-108.253387	-0.049528	-0.150168	0.987419	-0.289186	0.948441	0.129735	-0.955991	-0.279123	-0.090401	0	0	0
13822	0	0	0	0	0	9.756904	1.211907	-1.002325	-0.009700	0.008142	-0.010030	-0.492188	-0.581787	-0.432129	0.672438	0.151997	-0.722536	0.051628	124.830681	-80.900926	-108.220988	-0.049448	-0.150212	0.987416	-0.289080	0.948463	0.129810	-0.956027	-0.279024	-0.090323	0	0	0
13823	0	0	0	0	0	9.666052	1.189889	-1.028527	-0.011395	0.015044	-0.006281	-0.489258	-0.570557	-0.437988	0.672500	0.151958	-0.722490	0.051578	124.774824	-80.904067	-108.172492	-0.049304	-0.150203	0.987425	-0.288949	0.948497	0.129853	-0.956074	-0.278913	-0.090166	0	0	0
13824	0	0	0	0	0	9.714232	1.160158	-0.987926	0.008370	0.007506	0.002348	-0.491943	-0.581299	-0.436523	0.672517	0.151953	-0.722473	0.051621	124.771797	-80.908761	-108.166426	-0.049263	-0.150131	0.987438	-0.288995	0.948491	0.129792	-0.956062	-0.278971	-0.090113	0	0	0
13825	0	0	0	0	0	9.697878	1.183540	-1.039282	0.023045	0.013648	0.008197	-0.492920	-0.577393	-0.429688	0.672544	0.151977	-0.722433	0.051743	124.769287	-80.918257	-108.151973	-0.049174	-0.149988	0.987464	-0.289186	0.948451	0.129661	-0.956009	-0.279185	-0.090014	0	0	0
13826	0	0	0	0	0	9.691872	1.173908	-1.096625	0.031653	0.024873	0.013911	-0.494385	-0.574707	-0.431152	0.672602	0.152008	-0.722360	0.051925	124.752599	-80.933991	-108.118017	-0.049001	-0.149760	0.987507	-0.289459	0.948395	0.129465	-0.955935	-0.279499	-0.089822	0	0	0
13827	0	0	0	0	0	9.703729	1.209082	-0.989344	0.033217	0.032589	0.022144	-0.491455	-0.570801	-0.431641	0.672686	0.152012	-0.722265	0.052145	124.728455	-80.956236	-108.075757	-0.048772	-0.149431	0.987569	-0.289740	0.948347	0.129187	-0.955862	-0.279837	-0.089549	0	0	0
13828	0	0	0	0	0	9.689082	1.299845	-0.926980	0.041118	0.040367	0.029642	-0.491943	-0.581299	-0.430908	0.672788	0.152009	-0.722150	0.052423	124.703924	-80.984528	-108.028889	-0.048498	-0.149007	0.987646	-0.290086	0.948290	0.128825	-0.955771	-0.280255	-0.089216	0	0	0
13829	0	0	0	0	0	9.683394	1.378255	-0.884393	0.032647	0.029276	0.037865	-0.492676	-0.572510	-0.436035	0.672857	0.151955	-0.722078	0.052692	124.721367	-81.013093	-108.029071	-0.048347	-0.148539	0.987724	-0.290355	0.948267	0.128393	-0.955697	-0.280583	-0.088974	0	0	0
13830	0	0	0	0	0	9.706926	1.379920	-0.874819	0.016497	0.033048	0.041234	-0.493896	-0.572021	-0.437988	0.672948	0.151832	-0.722002	0.052915	124.727597	-81.044406	-108.027414	-0.048175	-0.148027	0.987809	-0.290464	0.948294	0.127940	-0.955672	-0.280760	-0.088681	0	0	0
13831	0	0	0	0	0	9.686475	1.237472	-0.859683	0.002116	0.039809	0.046412	-0.487793	-0.578613	-0.431641	0.673076	0.151641	-0.721909	0.053110	124.713766	-81.080434	-108.013646	-0.047948	-0.147448	0.987907	-0.290437	0.948369	0.127450	-0.955692	-0.280813	-0.088296	0	0	0
13832	0	0	0	0	0	9.614197	1.165041	-0.818261	0.004900	0.040901	0.056053	-0.486816	-0.582031	-0.440186	0.673201	0.151422	-0.721821	0.053346	124.720079	-81.121316	-108.019057	-0.047743	-0.146773	0.988017	-0.290424	0.948451	0.126861	-0.955706	-0.280887	-0.087909	0	0	0
13833	0	0	0	0	0	9.628963	0.952865	-0.776861	-0.025695	0.030393	0.071657	-0.493652	-0.575195	-0.430176	0.673309	0.151049	-0.721786	0.053519	124.771649	-81.166155	-108.087610	-0.047679	-0.145981	0.988138	-0.290119	0.948640	0.126147	-0.955802	-0.280663	-0.087582	0	0	0
13834	0	0	0	0	0	9.657571	0.867820	-0.714968	-0.022137	0.033583	0.097642	-0.493652	-0.579102	-0.428223	0.673417	0.150593	-0.721760	0.053794	124.872753	-81.224128	-108.204211	-0.047663	-0.144933	0.988293	-0.289835	0.948856	0.125172	-0.955889	-0.280476	-0.087233	0	0	0
13835	0	0	0	0	0	9.557474	0.755855	-0.727728	-0.029239	0.018139	0.114842	-0.495850	-0.575684	-0.433105	0.673471	0.150056	-0.721800	0.054089	125.053845	-81.285180	-108.405843	-0.047841	-0.143765	0.988455	-0.289475	0.949115	0.124033	-0.955989	-0.280199	-0.087023	0	0	0
13836	0	0	0	0	0	9.563414	0.682831	-0.779424	0.000957	-0.001154	0.131615	-0.496094	-0.575195	-0.432617	0.673424	0.149568	-0.721910	0.054539	125.353887	-81.347419	-108.709713	-0.048258	-0.142493	0.988619	-0.289405	0.949310	0.122700	-0.955990	-0.280190	-0.087050	0	0	0
13837	0	0	0	0	0	9.634261	0.776833	-0.751758	0.025166	-0.005528	0.153756	-0.496582	-0.571045	-0.435059	0.673341	0.149079	-0.722043	0.055144	125.731568	-81.418418	-109.078582	-0.048774	-0.141021	0.988804	-0.289545	0.949469	0.121129	-0.955921	-0.280396	-0.087141	0	0	0
13838	0	0	0	0	0	9.705937	0.890072	-0.828563	0.023279	-0.003083	0.170048	-0.499268	-0.577148	-0.438721	0.673261	0.148523	-0.722182	0.055800	126.146364	-81.497356	-109.486074	-0.049321	-0.139386	0.989009	-0.289657	0.949654	0.119395	-0.955859	-0.280585	-0.087212	0	0	0
13839	0	0	0	0	0	9.736341	1.019689	-0.781153	0.004417	0.009430	0.169197	-0.496582	-0.574707	-0.436768	0.673242	0.147905	-0.722281	0.056393	126.514315	-81.579793	-109.856975	-0.049739	-0.137726	0.989221	-0.289590	0.949888	0.117689	-0.955858	-0.280615	-0.087130	0	0	0
13840	0	0	0	0	0	9.707488	0.989399	-0.755679	-0.005883	-0.010214	0.157329	-0.499023	-0.577393	-0.438477	0.673161	0.147299	-0.722441	0.056895	126.918953	-81.649611	-110.270906	-0.050315	-0.136232	0.989398	-0.289428	0.950132	0.116106	-0.955876	-0.280518	-0.087235	0	0	0
13841	0	0	0	0	0	9.685077	0.989831	-0.777337	0.009399	-0.026737	0.148060	-0.498535	-0.568848	-0.437012	0.673013	0.146784	-0.722643	0.057408	127.366958	-81.709100	-110.719693	-0.051017	-0.134873	0.989549	-0.289418	0.950317	0.114604	-0.955842	-0.280546	-0.087517	0	0	0
13842	0	0	0	0	0	9.643556	1.014282	-0.670390	0.012880	-0.045297	0.134170	-0.497070	-0.572021	-0.428711	0.672797	0.146334	-0.722898	0.057873	127.849337	-81.755212	-111.201333	-0.051861	-0.133696	0.989664	-0.289443	0.950474	0.113235	-0.955789	-0.280579	-0.087990	0	0	0
13843	0	0	0	0	0	9.746272	0.970176	-0.641490	0.028527	-0.055205	0.119846	-0.504395	-0.578125	-0.433838	0.672539	0.145993	-0.723169	0.058339	128.340003	-81.790829	-111.682044	-0.052754	-0.132685	0.989753	-0.289627	0.950565	0.111994	-0.955685	-0.280751	-0.088575	0	0	0
13844	0	0	0	0	0	9.764354	0.934989	-0.686644	0.029477	-0.064147	0.113651	-0.511963	-0.566650	-0.434814	0.672247	0.145685	-0.723467	0.058786	128.850176	-81.819658	-112.181130	-0.053719	-0.131759	0.989825	-0.289835	0.950640	0.110813	-0.955568	-0.280933	-0.089256	0	0	0
13845	0	0	0	0	0	9.787701	0.929737	-0.686461	0.038714	-0.066461	0.098024	-0.504639	-0.568848	-0.438477	0.671947	0.145461	-0.723756	0.059208	129.334240	-81.840301	-112.649205	-0.054657	-0.130987	0.989876	-0.290126	0.950671	0.109779	-0.955426	-0.281188	-0.089963	0	0	0
13846	0	0	0	0	0	9.748031	0.938902	-0.661005	0.054177	-0.062610	0.083848	-0.507080	-0.569580	-0.424805	0.671652	0.145333	-0.724020	0.059639	129.784333	-81.855591	-113.074527	-0.055524	-0.130334	0.989914	-0.290562	0.950643	0.108866	-0.955244	-0.281587	-0.090654	0	0	0
13847	0	0	0	0	0	9.727342	0.884108	-0.648524	0.058390	-0.061703	0.075895	-0.505615	-0.570801	-0.431885	0.671361	0.145253	-0.724271	0.060062	130.212116	-81.867218	-113.474325	-0.056352	-0.129760	0.989943	-0.291052	0.950588	0.108033	-0.955046	-0.282037	-0.091334	0	0	0
13848	0	0	0	0	0	9.743850	0.873392	-0.707148	0.080029	-0.061522	0.071484	-0.505859	-0.566895	-0.435059	0.671053	0.145264	-0.724514	0.060551	130.644621	-81.876408	-113.865875	-0.057173	-0.129226	0.989966	-0.291757	0.950464	0.107220	-0.954782	-0.282699	-0.092044	0	0	0
13849	0	0	0	0	0	9.787789	0.896994	-0.621497	0.066642	-0.055195	0.066364	-0.503662	-0.565918	-0.432373	0.670782	0.145244	-0.724733	0.060975	131.034448	-81.885511	-114.222536	-0.057912	-0.128724	0.989988	-0.292329	0.950372	0.106473	-0.954563	-0.283236	-0.092668	0	0	0
13850	0	0	0	0	0	9.770050	0.934859	-0.601354	0.062992	-0.053534	0.060703	-0.513184	-0.570313	-0.426758	0.670520	0.145227	-0.724945	0.061366	131.404495	-81.892498	-114.561964	-0.058623	-0.128269	0.990005	-0.292859	0.950286	0.105781	-0.954357	-0.283730	-0.093274	0	0	0
13851	0	0	0	0	0	9.728574	0.988784	-0.601244	0.041210	-0.062175	0.055362	-0.509521	-0.567383	-0.432129	0.670245	0.145164	-0.725187	0.061657	131.772712	-81.893571	-114.911505	-0.059397	-0.127892	0.990008	-0.293193	0.950251	0.105166	-0.954206	-0.284017	-0.093939	0	0	0
13852	0	0	0	0	0	9.721974	0.974651	-0.667009	0.020821	-0.074479	0.056886	-0.517334	-0.571289	-0.425781	0.669938	0.145030	-0.725480	0.061871	132.173245	-81.890195	-115.305484	-0.060300	-0.127534	0.990000	-0.293332	0.950277	0.104550	-0.954107	-0.284094	-0.094711	0	0	0
13853	0	0	0	0	0	9.677040	0.938734	-0.675329	0.008911	-0.084146	0.040501	-0.513428	-0.567627	-0.420410	0.669611	0.144919	-0.725795	0.061978	132.547590	-81.875830	-115.679917	-0.061240	-0.127361	0.989964	-0.293366	0.950314	0.104112	-0.954037	-0.284046	-0.095560	0	0	0
13854	0	0	0	0	0	9.659050	0.826505	-0.717264	0.004164	-0.099450	0.041635	-0.511719	-0.574707	-0.428711	0.669227	0.144796	-0.726166	0.062067	132.970380	-81.855451	-116.105344	-0.062338	-0.127219	0.989914	-0.293366	0.950364	0.103662	-0.953966	-0.283945	-0.096566	0	0	0
13855	0	0	0	0	0	9.649294	0.702023	-0.779500	0.011506	-0.100740	0.046515	-0.499756	-0.568604	-0.423096	0.668836	0.144678	-0.726539	0.062192	133.407853	-81.836329	-116.542083	-0.063454	-0.127035	0.989866	-0.293420	0.950401	0.103161	-0.953875	-0.283901	-0.097581	0	0	0
13856	0	0	0	0	0	9.668258	0.611691	-0.789936	0.023887	-0.112188	0.043640	-0.509521	-0.569580	-0.418945	0.668393	0.144617	-0.726945	0.062347	133.876408	-81.810827	-117.002625	-0.064673	-0.126914	0.989803	-0.293602	0.950398	0.102677	-0.953738	-0.283967	-0.098727	0	0	0
13857	0	0	0	0	0	9.700679	0.559207	-0.788259	0.034340	-0.121176	0.043225	-0.513916	-0.573730	-0.409180	0.667912	0.144593	-0.727377	0.062529	134.371276	-81.781192	-117.484189	-0.065974	-0.126820	0.989729	-0.293875	0.950366	0.102187	-0.953564	-0.284115	-0.099968	0	0	0
13858	0	0	0	0	0	9.693418	0.525489	-0.754496	0.047697	-0.118591	0.041941	-0.515625	-0.568359	-0.412354	0.667425	0.144627	-0.727796	0.062767	134.863307	-81.751103	-117.953548	-0.067254	-0.126734	0.989654	-0.294303	0.950287	0.101693	-0.953343	-0.284419	-0.101209	0	0	0
13859	0	0	0	0	0	9.700159	0.529586	-0.798789	0.061025	-0.116748	0.042742	-0.514648	-0.569824	-0.415527	0.666940	0.144692	-0.728204	0.063048	135.352730	-81.721894	-118.414232	-0.068511	-0.126633	0.989581	-0.294829	0.950178	0.101179	-0.953091	-0.284825	-0.102433	0	0	0
13860	0	0	0	0	0	9.683792	0.528377	-0.757975	0.091092	-0.109322	0.040420	-0.523193	-0.569336	-0.419189	0.666456	0.144870	-0.728577	0.063443	135.833276	-81.693946	-118.847392	-0.069699	-0.126534	0.989511	-0.295662	0.949975	0.100653	-0.952746	-0.285546	-0.103624	0	0	0
13861	0	0	0	0	0	9.653732	0.489670	-0.821869	0.109076	-0.122156	0.032173	-0.512207	-0.568359	-0.416016	0.665919	0.145136	-0.728979	0.063860	136.328272	-81.657184	-119.285954	-0.070976	-0.126551	0.989418	-0.296652	0.949715	0.100192	-0.952344	-0.286402	-0.104949	0	0	0
13862	0	0	0	0	0	9.694207	0.599171	-0.795757	0.128044	-0.129334	0.029628	-0.525391	-0.561768	-0.401855	0.665339	0.145477	-0.729398	0.064336	136.845257	-81.615731	-119.735319	-0.072322	-0.126612	0.989312	-0.297832	0.949395	0.099731	-0.951875	-0.287436	-0.106371	0	0	0
13863	0	0	0	0	0	9.699594	0.624349	-0.855691	0.158556	-0.144571	0.025995	-0.521484	-0.577393	-0.409912	0.664685	0.145937	-0.729853	0.064896	137.401140	-81.566000	-120.206868	-0.073793	-0.126754	0.989185	-0.299295	0.948982	0.099275	-0.951303	-0.288733	-0.107965	0	0	0
13864	0	0	0	0	0	9.680191	0.685895	-0.858319	0.160013	-0.152473	0.024201	-0.518799	-0.563477	-0.400146	0.663995	0.146417	-0.730334	0.065459	137.972538	-81.511229	-120.691941	-0.075346	-0.126938	0.989045	-0.300795	0.948554	0.098827	-0.950708	-0.290054	-0.109652	0	0	0
13865	0	0	0	0	0	9.624270	0.683737	-0.959665	0.143005	-0.173649	0.017472	-0.520020	-0.569336	-0.409424	0.663247	0.146865	-0.730883	0.065912	138.556234	-81.444451	-121.200761	-0.077068	-0.127250	0.988872	-0.302115	0.948172	0.098467	-0.950151	-0.291164	-0.111517	0	0	0
13866	0	0	0	0	0	9.714996	0.680333	-1.030672	0.159702	-0.181507	0.011827	-0.530762	-0.568359	-0.407715	0.662456	0.147394	-0.731449	0.066407	139.148130	-81.371195	-121.707724	-0.078855	-0.127639	0.988681	-0.303605	0.947731	0.098137	-0.949529	-0.292430	-0.113485	0	0	0
13867	0	0	0	0	0	9.766950	0.718686	-0.900038	0.185247	-0.176109	0.005343	-0.531494	-0.573975	-0.388184	0.661670	0.148026	-0.731980	0.066973	139.709939	-81.297307	-122.170115	-0.080561	-0.128077	0.988487	-0.305333	0.947206	0.097844	-0.948832	-0.293935	-0.115414	0	0	0
13868	0	0	0	0	0	9.700106	0.813505	-0.853613	0.179555	-0.173586	0.006262	-0.528320	-0.570068	-0.391602	0.660891	0.148641	-0.732508	0.067530	140.261640	-81.223922	-122.624602	-0.082257	-0.128500	0.988292	-0.307021	0.946691	0.097537	-0.948141	-0.295403	-0.117324	0	0	0
13869	0	0	0	0	0	9.700349	0.943673	-0.893305	0.192116	-0.171841	-0.001940	-0.527344	-0.577637	-0.388184	0.660117	0.149321	-0.733015	0.068100	140.779618	-81.147954	-123.038839	-0.083898	-0.129001	0.988089	-0.308817	0.946131	0.097301	-0.947414	-0.296975	-0.119217	0	0	0
13870	0	0	0	0	0	9.703661	1.013122	-0.893705	0.205772	-0.176854	-0.008782	-0.525391	-0.572754	-0.384277	0.659311	0.150077	-0.733530	0.068700	141.292701	-81.066477	-123.439383	-0.085572	-0.129583	0.987869	-0.310761	0.945514	0.097108	-0.946628	-0.298682	-0.121179	0	0	0
13871	0	0	0	0	0	9.652097	1.041222	-1.043151	0.209784	-0.175598	-0.019107	-0.526611	-0.579102	-0.384766	0.658513	0.150880	-0.734028	0.069275	141.764503	-80.981601	-123.796805	-0.087193	-0.130263	0.987638	-0.312736	0.944873	0.097013	-0.945829	-0.300412	-0.123124	0	0	0
13872	0	0	0	0	0	9.671188	1.109870	-1.005718	0.169383	-0.189215	-0.033011	-0.531982	-0.578613	-0.384277	0.657696	0.151606	-0.734575	0.069648	142.198097	-80.885098	-124.138656	-0.088902	-0.131117	0.987373	-0.314347	0.944329	0.097098	-0.945136	-0.301745	-0.125169	0	0	0
13873	0	0	0	0	0	9.671788	1.093638	-0.921454	0.130823	-0.200533	-0.042986	-0.525146	-0.575684	-0.374268	0.656873	0.152244	-0.735162	0.069836	142.595994	-80.779719	-124.467235	-0.090680	-0.132102	0.987080	-0.315595	0.943889	0.097329	-0.944551	-0.302692	-0.127283	0	0	0
13874	0	0	0	0	0	9.640100	1.041287	-0.979517	0.117800	-0.201484	-0.053103	-0.537598	-0.571045	-0.364258	0.656056	0.152877	-0.735749	0.069943	142.953702	-80.669978	-124.762585	-0.092438	-0.133186	0.986771	-0.316732	0.943473	0.097671	-0.944000	-0.303513	-0.129397	0	0	0
13875	0	0	0	0	0	9.667756	0.973013	-1.156411	0.097731	-0.214942	-0.054245	-0.534180	-0.576172	-0.368408	0.655207	0.153453	-0.736384	0.069961	143.315393	-80.553458	-125.073891	-0.094313	-0.134324	0.986439	-0.317678	0.943115	0.098051	-0.943496	-0.304123	-0.131620	0	0	0
13876	0	0	0	0	0	9.695524	0.970082	-1.192317	0.099492	-0.224781	-0.057026	-0.525635	-0.571289	-0.366455	0.654318	0.154048	-0.737049	0.069969	143.683531	-80.431080	-125.390730	-0.096274	-0.135517	0.986086	-0.318646	0.942747	0.098451	-0.942972	-0.304734	-0.133944	0	0	0
13877	0	0	0	0	0	9.707641	0.992621	-1.189643	0.091610	-0.221280	-0.063125	-0.534912	-0.573486	-0.363281	0.653451	0.154638	-0.737698	0.069930	144.013684	-80.308003	-125.673825	-0.098178	-0.136761	0.985727	-0.319544	0.942394	0.098922	-0.942472	-0.305271	-0.136223	0	0	0
13878	0	0	0	0	0	9.561391	1.026734	-1.286740	0.101845	-0.219436	-0.076494	-0.537842	-0.575684	-0.368408	0.652585	0.155309	-0.738327	0.069887	144.303763	-80.180989	-125.910342	-0.100023	-0.138124	0.985351	-0.320553	0.941989	0.099506	-0.941935	-0.305905	-0.138496	0	0	0
13879	0	0	0	0	0	9.563935	1.083921	-1.278816	0.120950	-0.240083	-0.089084	-0.542725	-0.576416	-0.357666	0.651633	0.156097	-0.739005	0.069857	144.602322	-80.040007	-126.144522	-0.102016	-0.139671	0.984929	-0.321755	0.941507	0.100187	-0.941311	-0.306685	-0.140989	0	0	0
13880	0	0	0	0	0	9.626600	1.191145	-1.249141	0.111163	-0.232642	-0.096870	-0.535400	-0.586670	-0.354980	0.650716	0.156879	-0.739655	0.069772	144.854878	-79.899683	-126.337708	-0.103916	-0.141269	0.984502	-0.322875	0.941042	0.100953	-0.940720	-0.307381	-0.143401	0	0	0
13881	0	0	0	0	0	9.660773	1.180017	-1.306392	0.076239	-0.237370	-0.105113	-0.535400	-0.582520	-0.359131	0.649812	0.157579	-0.740324	0.069526	145.067405	-79.754349	-126.510715	-0.105827	-0.142961	0.984054	-0.323675	0.940670	0.101850	-0.940231	-0.307736	-0.145822	0	0	0
13882	0	0	0	0	0	9.689174	1.205547	-1.266269	0.034675	-0.233864	-0.109215	-0.541016	-0.577881	-0.350098	0.648952	0.158157	-0.740993	0.069116	145.235294	-79.609164	-126.662561	-0.107694	-0.144680	0.983600	-0.324092	0.940419	0.102844	-0.939876	-0.307701	-0.148167	0	0	0
13883	0	0	0	0	0	9.660042	1.230679	-1.308170	-0.013503	-0.236221	-0.109302	-0.540039	-0.574951	-0.343750	0.648123	0.158580	-0.741683	0.068525	145.374129	-79.462826	-126.813078	-0.109579	-0.146407	0.983136	-0.324057	0.940314	0.103911	-0.939670	-0.307205	-0.150483	0	0	0
13884	0	0	0	0	0	9.653827	1.261644	-1.344776	-0.049063	-0.248040	-0.105097	-0.538574	-0.571533	-0.342529	0.647273	0.158876	-0.742427	0.067806	145.520718	-79.312152	-126.992213	-0.111591	-0.148129	0.982652	-0.323686	0.940322	0.104989	-0.939561	-0.306354	-0.152879	0	0	0
13885	0	0	0	0	0	9.588664	1.223555	-1.390429	-0.095810	-0.264774	-0.109018	-0.535645	-0.581299	-0.350830	0.646400	0.159040	-0.743235	0.066888	145.653652	-79.152276	-127.184874	-0.113746	-0.149937	0.982131	-0.322881	0.940464	0.106181	-0.939580	-0.305034	-0.155385	0	0	0
13886	0	0	0	0	0	9.474042	1.152191	-1.525011	-0.130355	-0.281482	-0.109821	-0.536621	-0.580811	-0.342773	0.645490	0.159101	-0.744108	0.065825	145.788926	-78.984088	-127.400113	-0.116059	-0.151798	0.981574	-0.321756	0.940708	0.107434	-0.939683	-0.303359	-0.158019	0	0	0
13887	0	0	0	0	0	9.505720	1.207835	-1.533386	-0.129991	-0.274575	-0.096217	-0.534912	-0.588623	-0.345703	0.644600	0.159110	-0.744966	0.064813	145.939613	-78.823507	-127.631038	-0.118349	-0.153507	0.981035	-0.320620	0.940966	0.108559	-0.939785	-0.301692	-0.160580	0	0	0
13888	0	0	0	0	0	9.580755	1.076635	-1.649688	-0.145611	-0.266863	-0.089080	-0.543701	-0.584473	-0.334717	0.643747	0.159039	-0.745808	0.063772	146.081643	-78.668702	-127.862315	-0.120594	-0.155120	0.980507	-0.319331	0.941279	0.109639	-0.939939	-0.299885	-0.163047	0	0	0
13889	0	0	0	0	0	9.672423	1.069191	-1.625254	-0.163051	-0.242325	-0.079051	-0.535400	-0.579590	-0.331787	0.642995	0.158867	-0.746583	0.062717	146.192815	-78.528735	-128.072496	-0.122639	-0.156562	0.980025	-0.317867	0.941656	0.110655	-0.940170	-0.297947	-0.165249	0	0	0
13890	0	0	0	0	0	9.731114	1.039858	-1.537075	-0.221941	-0.215661	-0.068278	-0.532959	-0.582275	-0.331543	0.642383	0.158456	-0.747298	0.061498	146.251286	-78.404774	-128.263353	-0.124472	-0.157817	0.979592	-0.315838	0.942220	0.111664	-0.940613	-0.295493	-0.167125	0	0	0
13891	0	0	0	0	0	9.664347	1.083835	-1.537638	-0.319414	-0.189435	-0.057970	-0.540283	-0.579346	-0.335449	0.641942	0.157685	-0.747964	0.059968	146.234145	-78.296637	-128.434183	-0.126091	-0.158893	0.979211	-0.312877	0.943079	0.112741	-0.941387	-0.292157	-0.168628	0	0	0
13892	0	0	0	0	0	9.631155	1.267836	-1.729132	-0.350268	-0.174268	-0.048499	-0.543213	-0.578125	-0.332275	0.641576	0.156774	-0.748595	0.058366	146.197445	-78.198695	-128.603084	-0.127603	-0.159828	0.978863	-0.309613	0.944031	0.113780	-0.942262	-0.288550	-0.169946	0	0	0
13893	0	0	0	0	0	9.594114	1.195294	-2.089901	-0.382235	-0.149818	-0.053862	-0.545654	-0.582764	-0.334229	0.641327	0.155773	-0.749150	0.056645	146.091374	-78.110779	-128.719947	-0.128869	-0.160739	0.978548	-0.306051	0.945052	0.114932	-0.943253	-0.284674	-0.170982	0	0	0
13894	0	0	0	0	0	9.518962	0.915202	-2.275805	-0.414249	-0.164279	-0.078247	-0.538574	-0.579346	-0.333496	0.641051	0.154764	-0.749738	0.054715	145.935011	-78.008171	-128.804121	-0.130202	-0.161915	0.978177	-0.302216	0.946109	0.116380	-0.944306	-0.280468	-0.172119	0	0	0
13895	0	0	0	0	0	9.487686	0.558304	-2.459530	-0.409201	-0.145137	-0.083823	-0.535156	-0.581299	-0.334229	0.640843	0.153787	-0.750255	0.052800	145.740136	-77.912964	-128.846064	-0.131340	-0.163086	0.977831	-0.298431	0.947124	0.117880	-0.945351	-0.276333	-0.173065	0	0	0
13896	0	0	0	0	0	9.448501	0.273543	-2.808185	-0.410020	-0.142773	-0.087708	-0.543701	-0.569824	-0.337158	0.640640	0.152819	-0.750758	0.050872	145.534884	-77.817573	-128.877806	-0.132452	-0.164280	0.977481	-0.294642	0.948117	0.119420	-0.946384	-0.272189	-0.173984	0	0	0
13897	0	0	0	0	0	9.386076	0.023405	-3.335050	-0.338815	-0.166090	-0.085847	-0.541504	-0.570068	-0.332275	0.640294	0.152079	-0.751316	0.049198	145.409433	-77.711876	-128.949552	-0.133791	-0.165516	0.977090	-0.291520	0.948903	0.120824	-0.947162	-0.268676	-0.175206	0	0	0
13898	0	0	0	0	0	9.306995	0.030138	-3.725369	-0.178993	-0.180528	-0.073330	-0.538086	-0.579590	-0.334961	0.639766	0.151805	-0.751888	0.048154	145.424969	-77.603361	-129.071814	-0.135310	-0.166667	0.976685	-0.289896	0.949273	0.121827	-0.947445	-0.266653	-0.176762	0	0	0
13899	0	0	0	0	0	9.305051	0.250807	-4.009018	-0.059562	-0.171361	-0.057745	-0.547363	-0.573486	-0.330566	0.639178	0.151854	-0.752413	0.047615	145.526123	-77.504301	-129.211825	-0.136784	-0.167644	0.976312	-0.289383	0.949347	0.122470	-0.947390	-0.265776	-0.178369	0	0	0
13900	0	0	0	0	0	9.255967	0.455712	-4.300917	0.024876	-0.152518	-0.056779	-0.538086	-0.573975	-0.322021	0.638594	0.152163	-0.752858	0.047413	145.649683	-77.414277	-129.325156	-0.138088	-0.168559	0.975971	-0.289670	0.949197	0.122950	-0.947113	-0.265731	-0.179899	0	0	0
13901	0	0	0	0	0	9.398147	0.657372	-4.024100	0.056163	-0.141036	-0.079386	-0.540283	-0.572021	-0.327148	0.638037	0.152655	-0.753241	0.047263	145.724035	-77.322467	-129.369852	-0.139211	-0.169660	0.975621	-0.290283	0.948925	0.123597	-0.946761	-0.266000	-0.181350	0	0	0
13902	0	0	0	0	0	9.369733	0.887053	-3.438443	0.034217	-0.129182	-0.088454	-0.546387	-0.576172	-0.319092	0.637540	0.153108	-0.753585	0.047013	145.750697	-77.233172	-129.378413	-0.140201	-0.170815	0.975277	-0.290705	0.948696	0.124369	-0.946485	-0.266081	-0.182665	0	0	0
13903	0	0	0	0	0	9.526543	1.062492	-2.932272	0.011603	-0.118974	-0.107237	-0.543945	-0.568848	-0.324219	0.637106	0.153557	-0.753885	0.046623	145.709294	-77.142815	-129.330613	-0.141033	-0.172121	0.974928	-0.290937	0.948493	0.125367	-0.946290	-0.265962	-0.183845	0	0	0
13904	0	0	0	0	0	9.563158	1.192780	-2.525975	-0.065868	-0.096333	-0.128139	-0.551758	-0.562988	-0.327637	0.636818	0.153833	-0.754117	0.045894	145.550988	-77.056198	-129.208236	-0.141597	-0.173564	0.974590	-0.290469	0.948458	0.126708	-0.946350	-0.265147	-0.184713	0	0	0
13905	0	0	0	0	0	9.707638	1.264576	-2.191507	-0.130243	-0.077717	-0.145862	-0.543213	-0.576416	-0.328369	0.636656	0.153966	-0.754287	0.044879	145.293872	-76.972689	-129.022433	-0.141927	-0.175125	0.974263	-0.289415	0.948560	0.128344	-0.946623	-0.263750	-0.185310	0	0	0
13906	0	0	0	0	0	9.721633	1.383101	-1.895814	-0.157233	-0.058928	-0.157350	-0.550293	-0.577148	-0.336182	0.636585	0.154053	-0.754397	0.043741	144.976091	-76.893846	-128.789993	-0.142055	-0.176744	0.973952	-0.288124	0.948709	0.130139	-0.946998	-0.262131	-0.185693	0	0	0
13907	0	0	0	0	0	9.722595	1.411819	-1.931624	-0.201231	-0.049817	-0.176074	-0.550781	-0.574463	-0.332031	0.636587	0.154068	-0.754469	0.042383	144.584598	-76.812951	-128.507843	-0.142039	-0.178518	0.973630	-0.286439	0.948934	0.132202	-0.947511	-0.260108	-0.185920	0	0	0
13908	0	0	0	0	0	9.619300	1.422188	-1.930339	-0.243116	-0.025170	-0.193411	-0.541016	-0.575928	-0.333740	0.636715	0.154009	-0.754459	0.040832	144.105637	-76.737059	-128.160229	-0.141750	-0.180390	0.973327	-0.284383	0.949228	0.134507	-0.948173	-0.257732	-0.185853	0	0	0
13909	0	0	0	0	0	9.565356	1.425393	-1.904691	-0.310364	-0.015998	-0.200154	-0.548096	-0.577148	-0.334717	0.636931	0.153759	-0.754423	0.039011	143.565094	-76.662618	-127.788996	-0.141353	-0.182304	0.973029	-0.281694	0.949672	0.137006	-0.949035	-0.254730	-0.185593	0	0	0
13910	0	0	0	0	0	9.525557	1.407125	-1.918341	-0.332687	-0.004919	-0.209632	-0.548584	-0.571777	-0.336426	0.637203	0.153471	-0.754349	0.037086	142.984221	-76.588993	-127.389163	-0.140837	-0.184279	0.972731	-0.278805	0.950142	0.139633	-0.949965	-0.251537	-0.185193	0	0	0
13911	0	0	0	0	0	9.441852	1.335652	-1.770587	-0.311131	0.019822	-0.208786	-0.552246	-0.575684	-0.329590	0.637552	0.153244	-0.754188	0.035263	142.385021	-76.526176	-126.957854	-0.140087	-0.186186	0.972476	-0.276113	0.950546	0.142213	-0.950861	-0.248592	-0.184567	0	0	0
13912	0	0	0	0	0	9.424228	1.201786	-1.740662	-0.300192	0.021417	-0.219067	-0.544189	-0.572021	-0.334717	0.637896	0.153089	-0.754012	0.033450	141.776844	-76.459220	-126.510569	-0.139305	-0.188187	0.972204	-0.273538	0.950889	0.144867	-0.951720	-0.245754	-0.183940	0	0	0
13913	0	0	0	0	0	9.493572	0.952177	-1.734681	-0.274252	0.030469	-0.225891	-0.552734	-0.569336	-0.341553	0.638255	0.153041	-0.753792	0.031719	141.161113	-76.392957	-126.040278	-0.138417	-0.190233	0.971932	-0.271212	0.951145	0.147540	-0.952515	-0.243178	-0.183248	0	0	0
13914	0	0	0	0	0	9.596466	0.919234	-1.660234	-0.243665	0.049252	-0.235765	-0.550537	-0.567627	-0.334961	0.638659	0.153125	-0.753500	0.030087	140.523665	-76.330089	-125.529298	-0.137335	-0.192328	0.971673	-0.269189	0.951295	0.150248	-0.953245	-0.240930	-0.182418	0	0	0
13915	0	0	0	0	0	9.649028	0.955898	-1.552159	-0.234390	0.060458	-0.248078	-0.548096	-0.568359	-0.343018	0.639101	0.153282	-0.753157	0.028458	139.856207	-76.266438	-124.982002	-0.136110	-0.194515	0.971410	-0.267265	0.951390	0.153058	-0.953962	-0.238791	-0.181481	0	0	0
13916	0	0	0	0	0	9.709378	1.104455	-1.498716	-0.219804	0.077715	-0.265583	-0.548340	-0.571289	-0.347900	0.639594	0.153548	-0.752743	0.026842	139.147096	-76.202085	-124.382889	-0.134685	-0.196828	0.971143	-0.265501	0.951405	0.156006	-0.954656	-0.236828	-0.180398	0	0	0
13917	0	0	0	0	0	9.653340	1.223848	-1.467987	-0.220129	0.080249	-0.287067	-0.539063	-0.571533	-0.338135	0.640100	0.153894	-0.752300	0.025157	138.401083	-76.129057	-123.745965	-0.133176	-0.199342	0.970838	-0.263755	0.951367	0.159163	-0.955352	-0.234867	-0.179277	0	0	0
13918	0	0	0	0	0	9.660238	1.185216	-1.532086	-0.220632	0.096325	-0.305672	-0.551270	-0.566162	-0.347900	0.640665	0.154305	-0.751791	0.023425	137.606957	-76.053567	-123.059391	-0.131475	-0.201996	0.970521	-0.262026	0.951282	0.162495	-0.956063	-0.232937	-0.177998	0	0	0
13919	0	0	0	0	0	9.531336	1.051394	-1.680082	-0.229145	0.094523	-0.326178	-0.541992	-0.575195	-0.349854	0.641232	0.154766	-0.751267	0.021591	136.782928	-75.967142	-122.346963	-0.129737	-0.204851	0.970157	-0.260232	0.951162	0.166040	-0.956790	-0.230924	-0.176710	0	0	0
13920	0	0	0	0	0	9.508566	0.860147	-1.761770	-0.209573	0.083834	-0.332202	-0.536621	-0.565186	-0.350098	0.641740	0.155313	-0.750770	0.019806	135.988197	-75.871364	-121.652719	-0.128096	-0.207789	0.969750	-0.258628	0.950971	0.169602	-0.957446	-0.229080	-0.175556	0	0	0
13921	0	0	0	0	0	9.494245	0.818858	-1.833046	-0.172375	0.080533	-0.334691	-0.543945	-0.572021	-0.355225	0.642206	0.155988	-0.750273	0.018147	135.224442	-75.771058	-120.968320	-0.126478	-0.210759	0.969321	-0.257376	0.950677	0.173123	-0.957998	-0.227583	-0.174484	0	0	0
13922	0	0	0	0	0	9.452297	0.876245	-2.022606	-0.158801	0.087644	-0.340473	-0.534180	-0.568115	-0.351318	0.642684	0.156727	-0.749747	0.016528	134.459807	-75.668955	-120.274500	-0.124788	-0.213767	0.968882	-0.256256	0.950327	0.176668	-0.958520	-0.226236	-0.173368	0	0	0
13923	0	0	0	0	0	9.358708	0.809871	-2.167339	-0.149370	0.091323	-0.358625	-0.539063	-0.578125	-0.355957	0.643170	0.157564	-0.749189	0.014887	133.675438	-75.558630	-119.554581	-0.123012	-0.216940	0.968403	-0.255240	0.949904	0.180374	-0.959021	-0.224987	-0.172221	0	0	0
13924	0	0	0	0	0	9.238944	0.765311	-2.217311	-0.130704	0.099575	-0.376408	-0.542725	-0.574463	-0.351318	0.643668	0.158526	-0.748588	0.013267	132.874833	-75.441589	-118.806290	-0.121121	-0.220261	0.967892	-0.254420	0.949387	0.184212	-0.959479	-0.223940	-0.171030	0	0	0
13925	0	0	0	0	0	9.256460	0.729705	-2.192685	-0.119026	0.090926	-0.384066	-0.546143	-0.571777	-0.368164	0.644126	0.159554	-0.748003	0.011658	132.094410	-75.315461	-118.071717	-0.119290	-0.223675	0.967336	-0.253712	0.948813	0.188105	-0.959896	-0.222986	-0.169933	0	0	0
13926	0	0	0	0	0	9.217314	0.711690	-2.169295	-0.095027	0.108015	-0.381116	-0.544922	-0.571777	-0.356689	0.644622	0.160646	-0.747363	0.010163	131.318820	-75.194547	-117.327310	-0.117311	-0.227019	0.966799	-0.253225	0.948179	0.191921	-0.960268	-0.222304	-0.168718	0	0	0
13927	0	0	0	0	0	9.162553	0.852660	-2.057995	-0.090179	0.107247	-0.384210	-0.539795	-0.569824	-0.354736	0.645112	0.161766	-0.746718	0.008674	130.553521	-75.069519	-116.590451	-0.115325	-0.230395	0.966239	-0.252778	0.947513	0.195760	-0.960626	-0.221668	-0.167511	0	0	0
13928	0	0	0	0	0	9.258843	0.982902	-1.912373	-0.088776	0.110386	-0.385030	-0.539551	-0.573242	-0.360840	0.645607	0.162891	-0.746061	0.007192	129.797138	-74.942758	-115.861352	-0.113316	-0.233767	0.965667	-0.252341	0.946829	0.199596	-0.960981	-0.221059	-0.166280	0	0	0
13929	0	0	0	0	0	9.321062	1.164391	-1.918087	-0.106202	0.118008	-0.391230	-0.538818	-0.579346	-0.352051	0.646145	0.163984	-0.745369	0.005629	129.020678	-74.813541	-115.121567	-0.111213	-0.237182	0.965078	-0.251731	0.946155	0.203522	-0.961386	-0.220306	-0.164931	0	0	0
13930	0	0	0	0	0	9.432769	1.303110	-1.967486	-0.108873	0.128541	-0.400512	-0.538818	-0.577637	-0.362793	0.646718	0.165100	-0.744635	0.004037	128.228082	-74.681295	-114.365973	-0.108994	-0.240656	0.964471	-0.251101	0.945451	0.207534	-0.961805	-0.219559	-0.163478	0	0	0
13931	0	0	0	0	0	9.461939	1.458443	-1.910720	-0.098380	0.137390	-0.410568	-0.538086	-0.569824	-0.361328	0.647316	0.166288	-0.743857	0.002457	127.425667	-74.544858	-113.593686	-0.106660	-0.244208	0.963839	-0.250569	0.944685	0.211626	-0.962205	-0.218937	-0.161951	0	0	0
13932	0	0	0	0	0	9.575955	1.611170	-1.990292	-0.089371	0.140850	-0.416230	-0.536377	-0.579590	-0.356201	0.647914	0.167524	-0.743063	0.000897	126.631484	-74.404191	-112.823850	-0.104286	-0.247799	0.963182	-0.250124	0.943870	0.215749	-0.962581	-0.218415	-0.160413	0	0	0
13933	0	0	0	0	0	9.596680	1.772647	-2.022911	-0.064100	0.151736	-0.419663	-0.537842	-0.573242	-0.369629	0.648530	0.168854	-0.742224	-0.000573	125.841824	-74.262776	-112.043363	-0.101793	-0.251399	0.962516	-0.249912	0.942976	0.219866	-0.962903	-0.218163	-0.158816	0	0	0
13934	0	0	0	0	0	9.511882	1.791531	-1.970316	-0.042144	0.156368	-0.447573	-0.532715	-0.581543	-0.365234	0.649139	0.170358	-0.741345	-0.002047	125.040721	-74.106983	-111.237112	-0.099193	-0.255245	0.961775	-0.249931	0.941948	0.224207	-0.963169	-0.218138	-0.157229	0	0	0
13935	0	0	0	0	0	9.433413	1.753721	-1.973647	-0.034521	0.161273	-0.474345	-0.539551	-0.583984	-0.367920	0.649758	0.171986	-0.740421	-0.003577	124.219672	-73.937039	-110.405144	-0.096471	-0.259331	0.960958	-0.250035	0.940816	0.228794	-0.963419	-0.218202	-0.155603	0	0	0
13936	0	0	0	0	0	9.460621	1.680966	-2.031948	-0.020784	0.156819	-0.510631	-0.533203	-0.577393	-0.369141	0.650341	0.173790	-0.739477	-0.005175	123.393755	-73.745167	-109.558922	-0.093707	-0.263759	0.960026	-0.250297	0.939540	0.233699	-0.963624	-0.218392	-0.154060	0	0	0
13937	0	0	0	0	0	9.696993	1.576040	-2.131748	0.006633	0.159597	-0.550109	-0.534668	-0.583496	-0.371826	0.650907	0.175829	-0.738483	-0.006800	122.555374	-73.531736	-108.682699	-0.090808	-0.268547	0.958977	-0.250841	0.938076	0.238941	-0.963760	-0.218853	-0.152547	0	0	0
13938	0	0	0	0	0	9.870562	1.447450	-2.359139	0.045098	0.168969	-0.582925	-0.528809	-0.590088	-0.373535	0.651465	0.178113	-0.737428	-0.008379	121.714575	-73.301709	-107.779711	-0.087739	-0.273608	0.957831	-0.251773	0.936411	0.244427	-0.963801	-0.219710	-0.151047	0	0	0
13939	0	0	0	0	0	9.882746	1.259572	-2.481354	0.090775	0.163621	-0.607933	-0.528320	-0.584717	-0.367188	0.651957	0.180636	-0.736359	-0.009879	120.906123	-73.054091	-106.882290	-0.084644	-0.278907	0.956580	-0.253144	0.934546	0.250083	-0.963718	-0.220985	-0.149708	0	0	0
13940	0	0	0	0	0	9.835347	1.123748	-2.539068	0.162081	0.163701	-0.630701	-0.522705	-0.590088	-0.371094	0.652375	0.183473	-0.735268	-0.011187	120.143524	-72.791814	-105.988618	-0.081489	-0.284400	0.955236	-0.255207	0.932425	0.255838	-0.963446	-0.222935	-0.148564	0	0	0
13941	0	0	0	0	0	9.724964	1.150658	-2.586597	0.216299	0.148691	-0.644923	-0.523682	-0.596436	-0.371094	0.652682	0.186537	-0.734205	-0.012359	119.445862	-72.514770	-105.129391	-0.078420	-0.290046	0.953794	-0.257779	0.930103	0.261647	-0.963016	-0.225350	-0.147706	0	0	0
13942	0	0	0	0	0	9.685387	1.147531	-2.765871	0.221811	0.131658	-0.648069	-0.522461	-0.593262	-0.362061	0.652911	0.189626	-0.733189	-0.013534	118.801654	-72.228547	-104.321324	-0.075499	-0.295736	0.952282	-0.260391	0.927718	0.267463	-0.962547	-0.227772	-0.147049	0	0	0
13943	0	0	0	0	0	9.882135	1.062917	-2.686928	0.194333	0.142314	-0.650249	-0.526367	-0.598633	-0.372314	0.653199	0.192633	-0.732123	-0.014809	118.144529	-71.941244	-103.515213	-0.072446	-0.301408	0.950739	-0.262716	0.925347	0.273339	-0.962150	-0.229972	-0.146222	0	0	0
13944	0	0	0	0	0	9.661022	0.861153	-2.677946	0.133560	0.175683	-0.629852	-0.517334	-0.601563	-0.366943	0.653660	0.195366	-0.730957	-0.016204	117.442770	-71.670436	-102.697186	-0.069123	-0.306792	0.949263	-0.264424	0.923139	0.279094	-0.961926	-0.231717	-0.144933	0	0	0
13945	0	0	0	0	0	9.790070	0.695712	-2.701969	0.076145	0.201205	-0.607621	-0.512939	-0.615234	-0.361328	0.654267	0.197831	-0.729715	-0.017715	116.706557	-71.414273	-101.876575	-0.065595	-0.311900	0.947848	-0.265540	0.921098	0.284722	-0.961866	-0.233015	-0.143241	0	0	0
13946	0	0	0	0	0	9.844877	0.760505	-2.689725	0.083034	0.242215	-0.579494	-0.512939	-0.605225	-0.374512	0.655010	0.200216	-0.728362	-0.019064	115.956180	-71.179834	-101.035334	-0.061750	-0.316634	0.946536	-0.266686	0.919100	0.290058	-0.961803	-0.234517	-0.141196	0	0	0
13947	0	0	0	0	0	9.868401	1.005877	-2.745195	0.101533	0.254993	-0.559292	-0.516602	-0.609131	-0.374023	0.655780	0.202589	-0.726979	-0.020270	115.228881	-70.955324	-100.206464	-0.057820	-0.321142	0.945264	-0.267971	0.917094	0.295180	-0.961690	-0.236236	-0.139083	0	0	0
13948	0	0	0	0	0	9.912908	1.166886	-2.750942	0.114832	0.277095	-0.533490	-0.520508	-0.607178	-0.373535	0.656610	0.204911	-0.725548	-0.021317	114.513991	-70.746441	-99.381232	-0.053750	-0.325339	0.944069	-0.269352	0.915114	0.300026	-0.961541	-0.238160	-0.136818	0	0	0
13949	0	0	0	0	0	9.831146	1.129027	-2.781987	0.083415	0.292381	-0.511965	-0.516357	-0.608643	-0.363281	0.657527	0.207052	-0.724076	-0.022395	113.786909	-70.548743	-98.561481	-0.049575	-0.329294	0.942925	-0.270392	0.913256	0.304717	-0.961473	-0.239854	-0.134313	0	0	0
13950	0	0	0	0	0	9.760364	0.973873	-2.959803	0.044574	0.297346	-0.486274	-0.522949	-0.608887	-0.370117	0.658496	0.208971	-0.722607	-0.023520	113.064305	-70.362563	-97.768756	-0.045428	-0.332983	0.941838	-0.271032	0.911556	0.309204	-0.961498	-0.241221	-0.131659	0	0	0
13951	0	0	0	0	0	9.903570	0.723891	-3.344206	0.015889	0.294436	-0.480812	-0.514404	-0.610840	-0.367676	0.659484	0.210774	-0.721140	-0.024737	112.344916	-70.174995	-96.996356	-0.041310	-0.336623	0.940733	-0.271367	0.909925	0.313683	-0.961589	-0.242326	-0.128938	0	0	0
13952	0	0	0	0	0	10.053416	0.443544	-3.683054	0.019135	0.293324	-0.472843	-0.520264	-0.609131	-0.377197	0.660456	0.212556	-0.719685	-0.025913	111.649970	-69.988570	-96.246664	-0.037235	-0.340176	0.939624	-0.271718	0.908297	0.318067	-0.961656	-0.243469	-0.126252	0	0	0
13953	0	0	0	0	0	10.226299	0.279067	-3.592134	0.060978	0.319694	-0.458602	-0.514404	-0.603516	-0.383545	0.661479	0.214429	-0.718153	-0.026868	110.959401	-69.811800	-95.475641	-0.032931	-0.343530	0.938564	-0.272440	0.906597	0.322271	-0.961609	-0.245090	-0.123446	0	0	0
13954	0	0	0	0	0	10.264910	0.295077	-3.325293	0.113231	0.336982	-0.434198	-0.515137	-0.616455	-0.379395	0.662503	0.216385	-0.716596	-0.027530	110.301820	-69.648918	-94.706588	-0.028536	-0.346599	0.937579	-0.273643	0.904839	0.326167	-0.961408	-0.247255	-0.120665	0	0	0
13955	0	0	0	0	0	10.328536	0.239849	-3.131172	0.153765	0.349777	-0.394330	-0.515137	-0.610107	-0.387207	0.663533	0.218335	-0.715035	-0.027907	109.678237	-69.506616	-93.948711	-0.024109	-0.349268	0.936713	-0.275200	0.903102	0.329653	-0.961085	-0.249836	-0.117892	0	0	0
13956	0	0	0	0	0	10.377806	0.059710	-2.976979	0.212546	0.366279	-0.327440	-0.517090	-0.602295	-0.380615	0.664557	0.220239	-0.713501	-0.027827	109.109800	-69.401351	-93.212677	-0.019717	-0.351267	0.936068	-0.277296	0.901441	0.332432	-0.960582	-0.253014	-0.115179	0	0	0
13957	0	0	0	0	0	10.490949	-0.184436	-2.940566	0.249111	0.370144	-0.239574	-0.517090	-0.606201	-0.382568	0.665568	0.221952	-0.712046	-0.027326	108.603002	-69.341528	-92.520191	-0.015513	-0.352456	0.935700	-0.279706	0.899981	0.334364	-0.959960	-0.256534	-0.112545	0	0	0
