// General information: 
//  MT Manager version: 2022.2.0 
//  XDA version: 2022.2.0 build 7381 rev 124627 built on 2023-07-19
// Device information: 
//  DeviceId: 10B426DD
//  ProductCode: MTW2-3A7G6
//  Firmware Version: 4.14.0
//  Hardware Version: 3.0.0
// Device settings: 
//  Filter Profile: human(46.1)
//  Option Flags: Orientation Smoother Disabled, Position/Velocity Smoother Disabled, Continuous Zero Rotation Update Disabled, AHS Disabled, ICC Disabled
// Coordinate system: ENU
PacketCounter	SampleTimeFine	Year	Month	Day	Second	Acc_X	Acc_Y	Acc_Z	Gyr_X	Gyr_Y	Gyr_Z	Mag_X	Mag_Y	Mag_Z	Quat_q0	Quat_q1	Quat_q2	Quat_q3	Roll	Pitch	Yaw	Mat[1][1]	Mat[2][1]	Mat[3][1]	Mat[1][2]	Mat[2][2]	Mat[3][2]	Mat[1][3]	Mat[2][3]	Mat[3][3]	Vel_E	Vel_N	Vel_U
13511	0	0	0	0	0	8.483965	0.221498	5.035291	0.016521	0.003030	-0.007608	-1.010254	-0.508545	-0.251953	-0.417709	-0.438596	0.226687	-0.762736	2.302448	-59.142377	121.279226	-0.266306	0.438354	0.858444	-0.836051	-0.548265	0.020606	0.479688	-0.712216	0.512492	0	0	0
13512	0	0	0	0	0	8.472214	0.215467	4.995462	0.009845	0.002955	-0.000384	-1.005127	-0.510742	-0.244385	-0.417701	-0.438598	0.226649	-0.762750	2.307526	-59.140127	121.278206	-0.266315	0.438388	0.858424	-0.836019	-0.548312	0.020653	0.479738	-0.712159	0.512524	0	0	0
13513	0	0	0	0	0	8.465856	0.230883	4.965130	0.010386	0.003166	-0.002156	-1.014893	-0.511963	-0.245605	-0.417701	-0.438603	0.226605	-0.762761	2.314793	-59.137846	121.274847	-0.266308	0.438432	0.858404	-0.835990	-0.548353	0.020719	0.479792	-0.712100	0.512556	0	0	0
13514	0	0	0	0	0	8.438817	0.221106	5.004724	0.009188	0.002288	-0.002538	-1.011475	-0.510986	-0.245361	-0.417702	-0.438608	0.226565	-0.762769	2.321583	-59.135928	121.271393	-0.266296	0.438473	0.858387	-0.835967	-0.548386	0.020781	0.479839	-0.712049	0.512582	0	0	0
13515	0	0	0	0	0	8.463750	0.233938	5.025235	0.005463	0.001688	-0.001965	-1.008057	-0.513184	-0.245605	-0.417705	-0.438610	0.226541	-0.762773	2.325926	-59.134615	121.268923	-0.266287	0.438501	0.858375	-0.835954	-0.548404	0.020820	0.479866	-0.712018	0.512600	0	0	0
13516	0	0	0	0	0	8.426979	0.215006	4.965052	0.008515	0.004111	0.000950	-1.009521	-0.510498	-0.247070	-0.417696	-0.438603	0.226508	-0.762792	2.328918	-59.131733	121.269445	-0.266314	0.438536	0.858349	-0.835925	-0.548448	0.020849	0.479903	-0.711963	0.512642	0	0	0
13517	0	0	0	0	0	8.463344	0.235122	5.025863	0.020231	0.006123	-0.002543	-1.007080	-0.514404	-0.248047	-0.417676	-0.438619	0.226418	-0.762820	2.342207	-59.127810	121.266098	-0.266319	0.438602	0.858314	-0.835846	-0.548563	0.020970	0.480037	-0.711834	0.512696	0	0	0
13518	0	0	0	0	0	8.392057	0.294408	4.931902	0.012861	-0.008815	-0.002012	-1.004639	-0.507324	-0.249512	-0.417655	-0.438674	0.226389	-0.762809	2.351031	-59.132260	121.262726	-0.266258	0.438560	0.858354	-0.835804	-0.548625	0.021047	0.480144	-0.711812	0.512626	0	0	0
13519	0	0	0	0	0	8.473652	0.218220	4.936234	0.008081	-0.003983	0.001556	-1.015869	-0.513916	-0.235596	-0.417639	-0.438697	0.226377	-0.762808	2.353786	-59.134125	121.262947	-0.266245	0.438535	0.858371	-0.835778	-0.548663	0.021070	0.480196	-0.711798	0.512597	0	0	0
13520	0	0	0	0	0	8.470300	0.222102	5.055094	0.001686	-0.010616	-0.000290	-1.006836	-0.512207	-0.234131	-0.417634	-0.438733	0.226398	-0.762784	2.354631	-59.139645	121.261412	-0.266191	0.438472	0.858420	-0.835785	-0.548653	0.021074	0.480215	-0.711845	0.512514	0	0	0
13521	0	0	0	0	0	8.460363	0.249723	4.933142	-0.001000	-0.014156	0.002931	-1.009766	-0.509277	-0.231934	-0.417603	-0.438783	0.226436	-0.762761	2.351535	-59.147801	121.264991	-0.266155	0.438351	0.858493	-0.835775	-0.548669	0.021041	0.480252	-0.711907	0.512393	0	0	0
13522	0	0	0	0	0	8.418819	0.235775	5.050920	0.006318	-0.010922	0.003497	-1.017578	-0.515137	-0.245361	-0.417573	-0.438826	0.226448	-0.762749	2.351416	-59.153586	121.267670	-0.266130	0.438264	0.858545	-0.835749	-0.548708	0.021037	0.480310	-0.711930	0.512307	0	0	0
13523	0	0	0	0	0	8.446274	0.246249	5.010558	0.008305	-0.011409	0.004314	-1.006104	-0.505859	-0.249756	-0.417524	-0.438880	0.226450	-0.762744	2.352029	-59.160096	121.272509	-0.266117	0.438158	0.858603	-0.835696	-0.548788	0.021038	0.480410	-0.711933	0.512209	0	0	0
13524	0	0	0	0	0	8.442411	0.187873	5.021014	0.006832	-0.016563	0.002273	-1.014160	-0.509766	-0.249756	-0.417490	-0.438947	0.226470	-0.762718	2.353600	-59.169081	121.273563	-0.266055	0.438038	0.858683	-0.835671	-0.548826	0.021047	0.480487	-0.711978	0.512074	0	0	0
13525	0	0	0	0	0	8.460292	0.216847	5.069056	0.005094	-0.017649	0.003665	-1.008057	-0.506592	-0.238037	-0.417459	-0.439012	0.226504	-0.762688	2.352843	-59.178791	121.275502	-0.265994	0.437905	0.858770	-0.835657	-0.548848	0.021034	0.480545	-0.712043	0.511929	0	0	0
13526	0	0	0	0	0	8.430030	0.218976	5.016457	0.000672	-0.022275	0.008278	-1.018066	-0.508789	-0.244629	-0.417410	-0.439081	0.226573	-0.762655	2.345345	-59.191188	121.283006	-0.265955	0.437711	0.858881	-0.835646	-0.548868	0.020960	0.480587	-0.712146	0.511746	0	0	0
13527	0	0	0	0	0	8.475046	0.257835	5.024658	0.001751	-0.021856	0.004731	-1.012451	-0.508057	-0.249023	-0.417366	-0.439158	0.226626	-0.762618	2.341909	-59.203582	121.287321	-0.265891	0.437533	0.858992	-0.835631	-0.548892	0.020921	0.480648	-0.712238	0.511562	0	0	0
13528	0	0	0	0	0	8.484160	0.240867	4.993654	-0.000236	-0.021368	0.003913	-1.006592	-0.505371	-0.233154	-0.417337	-0.439227	0.226686	-0.762577	2.338039	-59.215357	121.289995	-0.265820	0.437369	0.859097	-0.835636	-0.548887	0.020879	0.480679	-0.712342	0.511387	0	0	0
13529	0	0	0	0	0	8.476449	0.293643	4.999803	-0.006356	-0.023722	0.003728	-1.012451	-0.503662	-0.236572	-0.417315	-0.439295	0.226773	-0.762524	2.331030	-59.228759	121.292801	-0.265737	0.437184	0.859217	-0.835665	-0.548845	0.020809	0.480674	-0.712488	0.511188	0	0	0
13530	0	0	0	0	0	8.478353	0.256288	5.019155	-0.010055	-0.018470	0.003755	-1.010742	-0.502930	-0.246826	-0.417311	-0.439332	0.226864	-0.762477	2.321565	-59.238871	121.295438	-0.265678	0.437043	0.859307	-0.835717	-0.548769	0.020718	0.480616	-0.712634	0.511040	0	0	0
13531	0	0	0	0	0	8.484637	0.277117	5.027196	-0.014700	-0.015671	0.005612	-1.014160	-0.519775	-0.247559	-0.417310	-0.439349	0.226972	-0.762436	2.307396	-59.247691	121.300730	-0.265650	0.436905	0.859386	-0.835784	-0.548672	0.020586	0.480516	-0.712792	0.510913	0	0	0
13532	0	0	0	0	0	8.435277	0.251195	4.985296	-0.023598	-0.016171	0.004177	-1.010498	-0.508789	-0.248535	-0.417337	-0.439348	0.227111	-0.762380	2.289667	-59.256496	121.303953	-0.265606	0.436777	0.859464	-0.835900	-0.548502	0.020423	0.480338	-0.713002	0.510788	0	0	0
13533	0	0	0	0	0	8.467361	0.247444	5.034982	-0.018388	-0.012910	-0.000003	-1.012695	-0.508057	-0.237305	-0.417374	-0.439352	0.227214	-0.762327	2.279184	-59.263423	121.302113	-0.265538	0.436697	0.859526	-0.836004	-0.548346	0.020325	0.480194	-0.713170	0.510687	0	0	0
13534	0	0	0	0	0	8.442878	0.233899	5.013720	-0.022121	-0.011017	0.006215	-1.007813	-0.514404	-0.237793	-0.417395	-0.439333	0.227341	-0.762289	2.260133	-59.269322	121.307858	-0.265536	0.436595	0.859579	-0.836108	-0.548195	0.020152	0.480015	-0.713349	0.510606	0	0	0
13535	0	0	0	0	0	8.455166	0.239385	5.052816	-0.020793	-0.012171	0.004875	-1.009521	-0.508545	-0.238770	-0.417410	-0.439328	0.227458	-0.762249	2.243625	-59.276213	121.312867	-0.265520	0.436483	0.859640	-0.836197	-0.548064	0.020001	0.479868	-0.713518	0.510508	0	0	0
13536	0	0	0	0	0	8.471735	0.204800	4.993440	-0.020254	-0.011960	0.003100	-1.016113	-0.506836	-0.240967	-0.417438	-0.439320	0.227573	-0.762204	2.228671	-59.282581	121.315089	-0.265488	0.436391	0.859697	-0.836300	-0.547912	0.019864	0.479707	-0.713691	0.510418	0	0	0
13537	0	0	0	0	0	8.464305	0.220034	5.021784	-0.022372	-0.009439	0.004002	-1.009766	-0.509277	-0.245605	-0.417465	-0.439300	0.227690	-0.762165	2.211696	-59.287833	121.319083	-0.265477	0.436306	0.859744	-0.836403	-0.547761	0.019710	0.479534	-0.713860	0.510345	0	0	0
13538	0	0	0	0	0	8.492500	0.192391	5.002521	-0.020792	-0.012168	0.004868	-1.005371	-0.510986	-0.242432	-0.417487	-0.439290	0.227812	-0.762123	2.194731	-59.294359	121.323287	-0.265458	0.436202	0.859802	-0.836503	-0.547613	0.019555	0.479368	-0.714036	0.510253	0	0	0
13539	0	0	0	0	0	8.503937	0.234624	5.020575	-0.018395	-0.010414	0.005628	-1.014648	-0.515137	-0.236816	-0.417504	-0.439278	0.227921	-0.762087	2.178688	-59.300048	121.328091	-0.265450	0.436107	0.859853	-0.836591	-0.547485	0.019409	0.479220	-0.714193	0.510173	0	0	0
13540	0	0	0	0	0	8.506986	0.194796	4.981045	-0.020383	-0.009924	0.004811	-1.010742	-0.507813	-0.242432	-0.417528	-0.439260	0.228036	-0.762050	2.161922	-59.305287	121.332334	-0.265442	0.436020	0.859899	-0.836689	-0.547339	0.019257	0.479053	-0.714357	0.510100	0	0	0
13541	0	0	0	0	0	8.524675	0.222071	5.029717	-0.022119	-0.011010	0.006200	-1.005615	-0.511475	-0.247070	-0.417544	-0.439245	0.228160	-0.762013	2.143258	-59.311482	121.338707	-0.265442	0.435911	0.859955	-0.836783	-0.547201	0.019087	0.478888	-0.714529	0.510014	0	0	0
13542	0	0	0	0	0	8.475005	0.195890	4.988246	-0.024644	-0.010730	0.007155	-1.007568	-0.507568	-0.235107	-0.417567	-0.439219	0.228298	-0.761974	2.121811	-59.317230	121.345554	-0.265449	0.435806	0.860006	-0.836896	-0.547035	0.018893	0.478687	-0.714721	0.509934	0	0	0
13543	0	0	0	0	0	8.492647	0.223049	5.037040	-0.019974	-0.007679	0.004753	-1.014160	-0.505859	-0.240967	-0.417592	-0.439196	0.228405	-0.761942	2.105659	-59.321400	121.349821	-0.265449	0.435733	0.860043	-0.836990	-0.546897	0.018747	0.478524	-0.714871	0.509877	0	0	0
13544	0	0	0	0	0	8.481317	0.214603	4.996397	-0.020511	-0.007889	0.006523	-1.019043	-0.505859	-0.242920	-0.417612	-0.439167	0.228520	-0.761913	2.087081	-59.325507	121.356085	-0.265464	0.435651	0.860079	-0.837084	-0.546758	0.018579	0.478349	-0.715027	0.509822	0	0	0
13545	0	0	0	0	0	8.489651	0.196588	4.966553	-0.016787	-0.007291	0.005947	-1.008789	-0.507080	-0.242920	-0.417623	-0.439148	0.228617	-0.761889	2.071155	-59.329525	121.362283	-0.265480	0.435571	0.860115	-0.837158	-0.546651	0.018435	0.478213	-0.715158	0.509767	0	0	0
13546	0	0	0	0	0	8.482051	0.211990	4.995263	-0.014514	-0.005993	0.002784	-1.007324	-0.502197	-0.242676	-0.417646	-0.439129	0.228697	-0.761863	2.059553	-59.332467	121.364432	-0.265474	0.435523	0.860141	-0.837233	-0.546538	0.018330	0.478084	-0.715273	0.509726	0	0	0
13547	0	0	0	0	0	8.443053	0.230196	4.973131	-0.012273	-0.008060	0.005802	-1.005127	-0.504395	-0.238770	-0.417651	-0.439121	0.228780	-0.761840	2.046508	-59.336838	121.369734	-0.265480	0.435443	0.860180	-0.837291	-0.546454	0.018212	0.477979	-0.715386	0.509665	0	0	0
13548	0	0	0	0	0	8.457717	0.197841	4.973697	-0.010409	-0.009003	0.002691	-1.005127	-0.507813	-0.240967	-0.417663	-0.439123	0.228850	-0.761811	2.037448	-59.341501	121.371661	-0.265458	0.435374	0.860222	-0.837347	-0.546370	0.018129	0.477893	-0.715492	0.509598	0	0	0
13549	0	0	0	0	0	8.471621	0.202236	4.953110	-0.014541	-0.011839	0.003315	-1.012207	-0.509766	-0.234863	-0.417676	-0.439128	0.228942	-0.761773	2.025844	-59.348040	121.374217	-0.265426	0.435278	0.860280	-0.837419	-0.546265	0.018022	0.477785	-0.715631	0.509503	0	0	0
13550	0	0	0	0	0	8.450109	0.249281	4.980058	-0.014413	-0.013868	0.001593	-1.011963	-0.506836	-0.241943	-0.417695	-0.439141	0.229036	-0.761727	2.015714	-59.355467	121.374722	-0.265372	0.435181	0.860346	-0.837497	-0.546147	0.017928	0.477678	-0.715780	0.509395	0	0	0
13551	0	0	0	0	0	8.486346	0.205854	4.931135	-0.009899	-0.014638	0.001449	-1.007813	-0.510742	-0.247803	-0.417697	-0.439171	0.229110	-0.761687	2.008661	-59.363652	121.375705	-0.265315	0.435071	0.860419	-0.837545	-0.546076	0.017861	0.477625	-0.715901	0.509274	0	0	0
13552	0	0	0	0	0	8.479149	0.221670	4.959189	-0.012424	-0.014358	0.002405	-1.008057	-0.515137	-0.244385	-0.417708	-0.439189	0.229199	-0.761644	1.998897	-59.371375	121.377108	-0.265266	0.434966	0.860488	-0.837612	-0.545976	0.017770	0.477536	-0.716041	0.509161	0	0	0
13553	0	0	0	0	0	8.480682	0.184164	4.979036	-0.010027	-0.012607	0.003168	-1.001709	-0.506836	-0.243896	-0.417715	-0.439206	0.229276	-0.761607	1.990240	-59.378193	121.378741	-0.265225	0.434871	0.860548	-0.837668	-0.545894	0.017690	0.477461	-0.716161	0.509062	0	0	0
13554	0	0	0	0	0	8.498549	0.211988	5.027554	-0.012552	-0.012327	0.004125	-1.011475	-0.509521	-0.245117	-0.417722	-0.439214	0.229364	-0.761572	1.978666	-59.384787	121.382162	-0.265199	0.434770	0.860607	-0.837730	-0.545801	0.017584	0.477365	-0.716293	0.508966	0	0	0
13555	0	0	0	0	0	8.520424	0.199781	4.977563	-0.011353	-0.011452	0.004506	-1.011230	-0.510986	-0.248047	-0.417728	-0.439222	0.229448	-0.761539	1.967712	-59.391002	121.385486	-0.265176	0.434675	0.860662	-0.837789	-0.545714	0.017483	0.477275	-0.716417	0.508876	0	0	0
13556	0	0	0	0	0	8.468298	0.213075	4.974778	-0.010153	-0.013056	-0.000760	-1.014893	-0.513916	-0.245605	-0.417747	-0.439243	0.229518	-0.761495	1.962260	-59.397918	121.383390	-0.265106	0.434596	0.860724	-0.837853	-0.545617	0.017431	0.477201	-0.716539	0.508774	0	0	0
13557	0	0	0	0	0	8.494080	0.224619	4.994018	-0.012015	-0.012114	0.002350	-1.012451	-0.519531	-0.247803	-0.417761	-0.439254	0.229600	-0.761456	1.953080	-59.404450	121.384358	-0.265062	0.434508	0.860782	-0.837919	-0.545518	0.017346	0.477109	-0.716668	0.508679	0	0	0
13558	0	0	0	0	0	8.481327	0.218428	5.012771	-0.014539	-0.011834	0.003307	-1.010498	-0.509766	-0.242920	-0.417776	-0.439257	0.229694	-0.761418	1.941133	-59.410745	121.386888	-0.265032	0.434416	0.860837	-0.837994	-0.545407	0.017237	0.476995	-0.716808	0.508588	0	0	0
13559	0	0	0	0	0	8.478022	0.194313	4.942463	-0.012142	-0.012563	-0.001577	-1.008301	-0.503906	-0.239990	-0.417804	-0.439276	0.229767	-0.761370	1.935878	-59.417484	121.383486	-0.264953	0.434345	0.860897	-0.838069	-0.545294	0.017187	0.476907	-0.716937	0.508488	0	0	0
13560	0	0	0	0	0	8.484995	0.178735	4.971881	-0.013213	-0.012987	0.001964	-1.012451	-0.509521	-0.248779	-0.417820	-0.439287	0.229855	-0.761328	1.926027	-59.424413	121.384466	-0.264907	0.434251	0.860959	-0.838140	-0.545187	0.017096	0.476807	-0.717076	0.508387	0	0	0
13561	0	0	0	0	0	8.497493	0.184768	5.010764	-0.012423	-0.014352	0.002393	-1.011963	-0.505127	-0.238281	-0.417832	-0.439306	0.229944	-0.761284	1.916430	-59.432273	121.385579	-0.264854	0.434145	0.861029	-0.838208	-0.545085	0.017007	0.476717	-0.717217	0.508272	0	0	0
13562	0	0	0	0	0	8.491917	0.198962	4.979009	-0.012296	-0.016379	0.000668	-1.012207	-0.511475	-0.244629	-0.417847	-0.439334	0.230033	-0.761233	1.908466	-59.441119	121.384977	-0.264780	0.434035	0.861107	-0.838279	-0.544978	0.016932	0.476634	-0.717365	0.508142	0	0	0
13563	0	0	0	0	0	8.512404	0.188556	4.988416	-0.013621	-0.015225	0.002008	-1.011719	-0.503662	-0.240723	-0.417858	-0.439356	0.230125	-0.761186	1.898687	-59.449555	121.386090	-0.264722	0.433921	0.861182	-0.838349	-0.544874	0.016841	0.476544	-0.717512	0.508018	0	0	0
13564	0	0	0	0	0	8.513085	0.187880	4.987280	-0.014131	-0.012066	-0.002396	-1.011719	-0.515137	-0.242920	-0.417893	-0.439367	0.230205	-0.761136	1.892503	-59.455874	121.382201	-0.264643	0.433858	0.861238	-0.838436	-0.544742	0.016783	0.476434	-0.717651	0.507925	0	0	0
13565	0	0	0	0	0	8.500385	0.181794	5.005965	-0.016935	-0.013578	0.002533	-0.999512	-0.506104	-0.250732	-0.417912	-0.439375	0.230308	-0.761089	1.880322	-59.463360	121.383864	-0.264597	0.433755	0.861304	-0.838520	-0.544615	0.016671	0.476311	-0.717810	0.507816	0	0	0
13566	0	0	0	0	0	8.500943	0.180933	5.005049	-0.015047	-0.008671	-0.001103	-1.010742	-0.504883	-0.240234	-0.417949	-0.439370	0.230387	-0.761048	1.872248	-59.467760	121.381560	-0.264545	0.433709	0.861343	-0.838609	-0.544481	0.016598	0.476184	-0.717939	0.507752	0	0	0
13567	0	0	0	0	0	8.489580	0.173206	4.964243	-0.023691	-0.010733	-0.000338	-1.014893	-0.509766	-0.248535	-0.418004	-0.439353	0.230507	-0.760992	1.858763	-59.473419	121.379214	-0.264483	0.433647	0.861394	-0.838742	-0.544279	0.016475	0.475983	-0.718130	0.507671	0	0	0
13568	0	0	0	0	0	8.490960	0.135521	4.984327	-0.018235	-0.009051	-0.002303	-1.009277	-0.515137	-0.236816	-0.418051	-0.439344	0.230596	-0.760944	1.850037	-59.478014	121.375546	-0.264420	0.433605	0.861434	-0.838849	-0.544118	0.016396	0.475831	-0.718278	0.507604	0	0	0
13569	0	0	0	0	0	8.469396	0.182608	5.011665	-0.019178	-0.011503	-0.000488	-1.005615	-0.512207	-0.245361	-0.418089	-0.439343	0.230696	-0.760893	1.839580	-59.484236	121.373769	-0.264357	0.433533	0.861489	-0.838952	-0.543962	0.016300	0.475684	-0.718439	0.507514	0	0	0
13570	0	0	0	0	0	8.496586	0.192365	4.971299	-0.016780	-0.009755	0.000278	-1.012939	-0.502197	-0.241943	-0.418123	-0.439337	0.230787	-0.760851	1.829201	-59.489282	121.372988	-0.264312	0.433472	0.861534	-0.839044	-0.543822	0.016206	0.475546	-0.718582	0.507441	0	0	0
13571	0	0	0	0	0	8.498025	0.154727	4.991274	-0.017188	-0.011994	0.000322	-1.004150	-0.507568	-0.246338	-0.418156	-0.439340	0.230884	-0.760802	1.818870	-59.495756	121.371863	-0.264253	0.433394	0.861592	-0.839140	-0.543677	0.016111	0.475410	-0.718738	0.507346	0	0	0
13572	0	0	0	0	0	8.497791	0.190808	4.969298	-0.012550	-0.014792	-0.001552	-1.010742	-0.503662	-0.240234	-0.418181	-0.439364	0.230965	-0.760749	1.812846	-59.503654	121.368841	-0.264168	0.433307	0.861662	-0.839217	-0.543559	0.016054	0.475320	-0.718880	0.507229	0	0	0
13573	0	0	0	0	0	8.485208	0.184835	4.987813	-0.010430	-0.014839	0.003186	-1.016113	-0.507813	-0.245850	-0.418185	-0.439388	0.231049	-0.760707	1.803654	-59.511805	121.370798	-0.264119	0.433193	0.861734	-0.839274	-0.543474	0.015969	0.475248	-0.719013	0.507109	0	0	0
13574	0	0	0	0	0	8.493696	0.167675	4.957388	-0.013466	-0.011398	-0.000255	-1.006836	-0.509277	-0.237793	-0.418212	-0.439395	0.231130	-0.760664	1.795738	-59.517783	121.369362	-0.264061	0.433123	0.861787	-0.839352	-0.543355	0.015896	0.475141	-0.719145	0.507022	0	0	0
13575	0	0	0	0	0	8.488841	0.145450	4.946737	-0.008828	-0.014196	-0.002130	-1.012451	-0.499512	-0.240967	-0.418230	-0.439428	0.231193	-0.760616	1.792712	-59.525532	121.365738	-0.263973	0.433040	0.861855	-0.839411	-0.543266	0.015866	0.475087	-0.719262	0.506906	0	0	0
13576	0	0	0	0	0	8.489497	0.145221	4.945617	-0.006430	-0.012450	-0.001362	-1.010254	-0.506104	-0.241943	-0.418244	-0.439455	0.231247	-0.760576	1.789936	-59.532093	121.363016	-0.263901	0.432968	0.861913	-0.839458	-0.543193	0.015838	0.475043	-0.719361	0.506808	0	0	0
13577	0	0	0	0	0	8.520749	0.178848	4.974507	-0.003366	-0.010045	0.001561	-1.016357	-0.503662	-0.241211	-0.418242	-0.439478	0.231290	-0.760551	1.786013	-59.537537	121.363804	-0.263865	0.432895	0.861961	-0.839483	-0.543157	0.015801	0.475020	-0.719433	0.506727	0	0	0
13578	0	0	0	0	0	8.482818	0.161181	4.973019	-0.002451	-0.013436	0.000261	-1.005859	-0.512207	-0.241455	-0.418240	-0.439516	0.231334	-0.760516	1.783966	-59.544691	121.362882	-0.263802	0.432807	0.862025	-0.839507	-0.543119	0.015779	0.475011	-0.719514	0.506620	0	0	0
13579	0	0	0	0	0	8.503057	0.151331	4.982801	0.000231	-0.007425	0.002713	-1.003418	-0.505371	-0.238770	-0.418228	-0.439536	0.231360	-0.760504	1.781195	-59.548651	121.364966	-0.263787	0.432747	0.862060	-0.839510	-0.543116	0.015753	0.475015	-0.719553	0.506562	0	0	0
13580	0	0	0	0	0	8.483733	0.160959	4.971464	0.002088	-0.008364	-0.000402	-0.999512	-0.508789	-0.250000	-0.418225	-0.439565	0.231374	-0.760485	1.782240	-59.552889	121.363473	-0.263742	0.432699	0.862097	-0.839515	-0.543108	0.015760	0.475031	-0.719587	0.506498	0	0	0
13581	0	0	0	0	0	8.502825	0.187895	4.960790	-0.007852	-0.003426	0.001194	-1.014648	-0.510254	-0.242920	-0.418248	-0.439552	0.231421	-0.760465	1.776310	-59.554379	121.362953	-0.263726	0.432682	0.862110	-0.839569	-0.543026	0.015707	0.474945	-0.719659	0.506477	0	0	0
13582	0	0	0	0	0	8.521238	0.179205	5.031088	-0.003056	0.000065	0.002730	-1.013428	-0.510498	-0.242432	-0.418253	-0.439534	0.231445	-0.760465	1.771101	-59.553846	121.365296	-0.263748	0.432678	0.862106	-0.839590	-0.542995	0.015661	0.474895	-0.719685	0.506486	0	0	0
13583	0	0	0	0	0	8.502977	0.186973	4.960565	-0.003998	-0.002388	0.004544	-1.009033	-0.508057	-0.241455	-0.418250	-0.439524	0.231480	-0.760463	1.764009	-59.554933	121.369590	-0.263772	0.432645	0.862115	-0.839608	-0.542969	0.015598	0.474850	-0.719724	0.506472	0	0	0
13584	0	0	0	0	0	8.504105	0.149682	4.981061	-0.003083	-0.005779	0.003244	-1.005859	-0.503662	-0.247803	-0.418246	-0.439528	0.231517	-0.760451	1.758460	-59.557756	121.372310	-0.263771	0.432596	0.862140	-0.839628	-0.542940	0.015548	0.474816	-0.719776	0.506431	0	0	0
13585	0	0	0	0	0	8.528047	0.162588	5.060901	-0.006903	0.001497	0.005033	-1.007568	-0.502197	-0.243408	-0.418256	-0.439494	0.231558	-0.760452	1.748979	-59.556529	121.376691	-0.263813	0.432591	0.862129	-0.839665	-0.542885	0.015464	0.474727	-0.719820	0.506452	0	0	0
13586	0	0	0	0	0	8.509762	0.170054	4.990422	-0.007720	-0.002981	0.005119	-1.006348	-0.498047	-0.245361	-0.418260	-0.439475	0.231611	-0.760445	1.738862	-59.557781	121.381629	-0.263841	0.432552	0.862141	-0.839702	-0.542830	0.015374	0.474646	-0.719884	0.506436	0	0	0
13587	0	0	0	0	0	8.499661	0.161155	4.889930	-0.004052	-0.014077	0.005569	-1.014160	-0.510254	-0.238281	-0.418244	-0.439505	0.231677	-0.760417	1.730659	-59.565490	121.386213	-0.263815	0.432432	0.862209	-0.839725	-0.542796	0.015298	0.474619	-0.719982	0.506322	0	0	0
13588	0	0	0	0	0	8.467606	0.164597	4.897398	-0.005962	-0.024827	0.009707	-1.016846	-0.507568	-0.244385	-0.418200	-0.439568	0.231779	-0.760373	1.717713	-59.579331	121.395598	-0.263777	0.432211	0.862331	-0.839742	-0.542774	0.015178	0.474611	-0.720132	0.506117	0	0	0
13589	0	0	0	0	0	8.453436	0.196352	4.953731	-0.009844	-0.031706	0.006865	-1.005615	-0.506836	-0.240723	-0.418165	-0.439655	0.231902	-0.760305	1.705796	-59.597293	121.401803	-0.263683	0.431952	0.862490	-0.839779	-0.542719	0.015065	0.474597	-0.720329	0.505850	0	0	0
13590	0	0	0	0	0	8.494517	0.175625	4.972276	-0.023665	-0.033644	0.005621	-1.005371	-0.511230	-0.241699	-0.418166	-0.439719	0.232081	-0.760213	1.686929	-59.616113	121.406290	-0.263569	0.431690	0.862656	-0.839890	-0.542552	0.014890	0.474463	-0.720612	0.505572	0	0	0
13591	0	0	0	0	0	8.475949	0.148404	5.039637	-0.015936	-0.028194	0.006152	-1.015137	-0.502686	-0.242188	-0.418154	-0.439780	0.232218	-0.760142	1.672343	-59.631969	121.411129	-0.263481	0.431464	0.862796	-0.839963	-0.542443	0.014754	0.474383	-0.720829	0.505337	0	0	0
13592	0	0	0	0	0	8.471557	0.125631	5.028171	-0.004458	-0.016312	0.005601	-1.002441	-0.500977	-0.241699	-0.418133	-0.439818	0.232288	-0.760110	1.663986	-59.640860	121.416187	-0.263450	0.431326	0.862874	-0.839983	-0.542414	0.014676	0.474365	-0.720933	0.505205	0	0	0
13593	0	0	0	0	0	8.476868	0.183756	5.015758	0.004593	-0.012018	0.004791	-1.012451	-0.503418	-0.244141	-0.418101	-0.439860	0.232313	-0.760095	1.661528	-59.647420	121.420237	-0.263429	0.431223	0.862932	-0.839964	-0.542444	0.014652	0.474410	-0.720973	0.505107	0	0	0
13594	0	0	0	0	0	8.518348	0.162905	4.975993	0.006297	-0.016774	0.003911	-1.013428	-0.511963	-0.245117	-0.418062	-0.439925	0.232339	-0.760072	1.660995	-59.656549	121.423370	-0.263381	0.431091	0.863013	-0.839938	-0.542485	0.014643	0.474484	-0.721020	0.504970	0	0	0
13595	0	0	0	0	0	8.560029	0.142088	4.935845	0.003489	-0.020755	0.003183	-1.011230	-0.505371	-0.246826	-0.418030	-0.439999	0.232383	-0.760033	1.659913	-59.668031	121.425055	-0.263303	0.430936	0.863114	-0.839929	-0.542499	0.014629	0.474542	-0.721103	0.504797	0	0	0
13596	0	0	0	0	0	8.566589	0.163748	4.943650	0.003489	-0.020755	0.003181	-1.006836	-0.506348	-0.242920	-0.417995	-0.440074	0.232426	-0.759995	1.658596	-59.679426	121.427231	-0.263230	0.430779	0.863214	-0.839918	-0.542516	0.014612	0.474602	-0.721183	0.504626	0	0	0
13597	0	0	0	0	0	8.535830	0.166896	4.891338	0.006283	-0.019240	-0.001749	-1.016846	-0.501953	-0.239746	-0.417979	-0.440154	0.232446	-0.759952	1.663882	-59.689915	121.423082	-0.263116	0.430664	0.863307	-0.839912	-0.542524	0.014654	0.474676	-0.721246	0.504467	0	0	0
13598	0	0	0	0	0	8.561989	0.179243	4.909974	0.003639	-0.016935	0.000942	-1.001465	-0.502930	-0.242920	-0.417957	-0.440217	0.232476	-0.759919	1.664737	-59.699086	121.422843	-0.263043	0.430547	0.863388	-0.839906	-0.542534	0.014657	0.474727	-0.721309	0.504328	0	0	0
13599	0	0	0	0	0	8.537539	0.167421	4.888338	0.001511	-0.016883	-0.003793	-1.009766	-0.512451	-0.232910	-0.417959	-0.440281	0.232504	-0.759872	1.669094	-59.708283	121.416971	-0.262926	0.430456	0.863468	-0.839924	-0.542504	0.014692	0.474760	-0.721385	0.504189	0	0	0
13600	0	0	0	0	0	8.510880	0.193940	4.905708	0.002711	-0.016011	-0.003410	-1.001709	-0.501953	-0.243652	-0.417956	-0.440343	0.232526	-0.759830	1.673660	-59.716852	121.411817	-0.262820	0.430369	0.863544	-0.839934	-0.542488	0.014728	0.474801	-0.721449	0.504059	0	0	0
13601	0	0	0	0	0	8.510406	0.195777	4.964186	0.005111	-0.014267	-0.002644	-1.011475	-0.508789	-0.238770	-0.417947	-0.440406	0.232535	-0.759796	1.679291	-59.724622	121.407351	-0.262726	0.430290	0.863612	-0.839929	-0.542495	0.014774	0.474863	-0.721491	0.503940	0	0	0
13602	0	0	0	0	0	8.532092	0.185179	4.913723	0.005902	-0.015633	-0.002220	-1.011719	-0.512939	-0.247559	-0.417934	-0.440472	0.232546	-0.759762	1.684512	-59.732994	121.403556	-0.262631	0.430199	0.863686	-0.839920	-0.542507	0.014817	0.474930	-0.721536	0.503813	0	0	0
13603	0	0	0	0	0	8.493400	0.205005	4.891123	0.003502	-0.017375	-0.002989	-1.013184	-0.506592	-0.240723	-0.417929	-0.440542	0.232569	-0.759717	1.689619	-59.742433	121.398175	-0.262517	0.430102	0.863769	-0.839928	-0.542495	0.014857	0.474980	-0.721603	0.503669	0	0	0
13604	0	0	0	0	0	8.519597	0.217601	4.909692	0.005615	-0.019892	-0.003913	-1.002930	-0.507080	-0.233398	-0.417917	-0.440626	0.232586	-0.759669	1.696467	-59.753215	121.392308	-0.262388	0.429991	0.863864	-0.839925	-0.542498	0.014913	0.475056	-0.721668	0.503505	0	0	0
13605	0	0	0	0	0	8.521552	0.181391	4.928796	0.002424	-0.020269	-0.005105	-1.006348	-0.506592	-0.237793	-0.417915	-0.440709	0.232613	-0.759615	1.703084	-59.764414	121.385071	-0.262246	0.429880	0.863962	-0.839937	-0.542477	0.014966	0.475113	-0.721749	0.503334	0	0	0
13606	0	0	0	0	0	8.514762	0.198337	4.956609	-0.003140	-0.016549	-0.007568	-1.013916	-0.512695	-0.238281	-0.417940	-0.440766	0.232648	-0.759556	1.708419	-59.773219	121.375150	-0.262102	0.429812	0.864040	-0.839986	-0.542401	0.015009	0.475107	-0.721847	0.503200	0	0	0
13607	0	0	0	0	0	8.540772	0.210756	4.975526	-0.003382	-0.012502	-0.004107	-1.014404	-0.517334	-0.238281	-0.417957	-0.440806	0.232682	-0.759514	1.710588	-59.779960	121.369175	-0.262005	0.429752	0.864099	-0.840023	-0.542342	0.015025	0.475094	-0.721927	0.503098	0	0	0
13608	0	0	0	0	0	8.535761	0.189155	4.965037	-0.006956	-0.009277	-0.005762	-1.006348	-0.502441	-0.240479	-0.417992	-0.440825	0.232722	-0.759471	1.711752	-59.784630	121.361551	-0.261911	0.429727	0.864140	-0.840085	-0.542246	0.015033	0.475037	-0.722014	0.503027	0	0	0
13609	0	0	0	0	0	8.576878	0.168461	4.925619	-0.007486	-0.009491	-0.003991	-1.007324	-0.513916	-0.241943	-0.418022	-0.440845	0.232766	-0.759430	1.711340	-59.789607	121.355620	-0.261827	0.429690	0.864184	-0.840144	-0.542155	0.015027	0.474978	-0.722104	0.502952	0	0	0
13610	0	0	0	0	0	8.531063	0.167503	4.954007	-0.008539	-0.006545	-0.006610	-1.015625	-0.502930	-0.242432	-0.418068	-0.440851	0.232803	-0.759389	1.712354	-59.792698	121.347121	-0.261739	0.429689	0.864211	-0.840216	-0.542044	0.015034	0.474900	-0.722188	0.502905	0	0	0
13611	0	0	0	0	0	8.577506	0.168603	4.924521	-0.007461	-0.003650	-0.004495	-1.014160	-0.507324	-0.237061	-0.418109	-0.440847	0.232836	-0.759359	1.712105	-59.794248	121.340552	-0.261678	0.429699	0.864224	-0.840280	-0.541945	0.015032	0.474821	-0.722257	0.502882	0	0	0
13612	0	0	0	0	0	8.524815	0.182550	4.923108	-0.009165	0.001104	-0.003611	-1.016846	-0.507324	-0.244141	-0.418153	-0.440820	0.232867	-0.759341	1.709586	-59.793010	121.335727	-0.261651	0.429737	0.864213	-0.840346	-0.541842	0.015010	0.474718	-0.722311	0.502901	0	0	0
13613	0	0	0	0	0	8.513747	0.138734	4.903942	-0.005449	-0.001678	0.001969	-1.013428	-0.510010	-0.240967	-0.418164	-0.440806	0.232901	-0.759332	1.703938	-59.793620	121.337099	-0.261657	0.429723	0.864219	-0.840380	-0.541791	0.014960	0.474655	-0.722358	0.502894	0	0	0
13614	0	0	0	0	0	8.526920	0.143753	4.884212	-0.006095	0.003505	-0.000689	-1.010498	-0.510010	-0.229980	-0.418194	-0.440773	0.232922	-0.759329	1.700234	-59.791057	121.335681	-0.261666	0.429762	0.864196	-0.840424	-0.541723	0.014929	0.474571	-0.722385	0.502933	0	0	0
13615	0	0	0	0	0	8.500255	0.132750	4.924249	-0.003025	0.005905	0.002234	-1.004883	-0.511475	-0.239502	-0.418203	-0.440738	0.232928	-0.759342	1.695842	-59.787453	121.338000	-0.261712	0.429798	0.864165	-0.840439	-0.541701	0.014892	0.474519	-0.722381	0.502989	0	0	0
13616	0	0	0	0	0	8.530734	0.166275	4.954616	-0.001418	0.009014	0.002578	-1.001709	-0.497559	-0.236816	-0.418216	-0.440690	0.232927	-0.759363	1.691446	-59.781790	121.340484	-0.261775	0.429860	0.864115	-0.840453	-0.541681	0.014856	0.474460	-0.722359	0.503075	0	0	0
13617	0	0	0	0	0	8.535861	0.188012	4.964907	0.010797	0.007844	0.003453	-1.013672	-0.500000	-0.241699	-0.418199	-0.440672	0.232883	-0.759397	1.693555	-59.776962	121.343529	-0.261836	0.429908	0.864072	-0.840407	-0.541751	0.014876	0.474507	-0.722278	0.503148	0	0	0
13618	0	0	0	0	0	8.493856	0.181616	4.755508	0.005086	0.007747	0.003226	-1.013184	-0.509766	-0.240234	-0.418194	-0.440642	0.232860	-0.759424	1.692285	-59.772036	121.346708	-0.261898	0.429957	0.864029	-0.840389	-0.541780	0.014867	0.474506	-0.722227	0.503222	0	0	0
13619	0	0	0	0	0	8.516610	0.196358	4.895657	0.001078	0.002895	0.002115	-1.008057	-0.515137	-0.233154	-0.418196	-0.440623	0.232862	-0.759433	1.690009	-59.770018	121.348346	-0.261926	0.429975	0.864011	-0.840392	-0.541775	0.014848	0.474484	-0.722219	0.503253	0	0	0
13620	0	0	0	0	0	8.517658	0.159234	4.916384	0.000785	-0.004740	0.006584	-1.008545	-0.505859	-0.241699	-0.418173	-0.440627	0.232889	-0.759435	1.683338	-59.772300	121.354925	-0.261958	0.429916	0.864032	-0.840385	-0.541788	0.014789	0.474480	-0.722245	0.503220	0	0	0
13621	0	0	0	0	0	8.528794	0.166703	5.015790	-0.002527	-0.003095	0.007125	-1.018311	-0.510742	-0.239014	-0.418155	-0.440621	0.232924	-0.759438	1.674781	-59.773861	121.362048	-0.261999	0.429863	0.864045	-0.840388	-0.541785	0.014713	0.474451	-0.722279	0.503199	0	0	0
13622	0	0	0	0	0	8.491495	0.147347	4.955551	-0.003050	0.000066	0.002735	-1.006836	-0.514404	-0.236816	-0.418161	-0.440603	0.232948	-0.759438	1.669555	-59.773326	121.364410	-0.262021	0.429859	0.864041	-0.840409	-0.541754	0.014667	0.474402	-0.722305	0.503209	0	0	0
13623	0	0	0	0	0	8.510159	0.174143	4.945509	0.002949	0.004423	0.004653	-1.016357	-0.507568	-0.237061	-0.418148	-0.440583	0.232940	-0.759459	1.666358	-59.770553	121.369111	-0.262078	0.429874	0.864016	-0.840392	-0.541782	0.014640	0.474402	-0.722275	0.503251	0	0	0
13624	0	0	0	0	0	8.512173	0.135710	4.906758	0.003331	0.000820	0.005117	-1.010742	-0.500732	-0.236572	-0.418132	-0.440573	0.232943	-0.759473	1.662428	-59.769625	121.374205	-0.262123	0.429862	0.864008	-0.840376	-0.541807	0.014606	0.474404	-0.722263	0.503266	0	0	0
13625	0	0	0	0	0	8.547403	0.192288	5.005884	-0.000389	0.000229	0.005697	-1.014160	-0.517334	-0.241455	-0.418116	-0.440559	0.232962	-0.759483	1.655913	-59.769313	121.380408	-0.262172	0.429838	0.864005	-0.840371	-0.541816	0.014549	0.474385	-0.722271	0.503273	0	0	0
13626	0	0	0	0	0	8.524242	0.141554	4.946762	0.001602	-0.000265	0.006504	-1.011230	-0.509766	-0.241211	-0.418097	-0.440548	0.232976	-0.759496	1.649660	-59.769029	121.387044	-0.262224	0.429811	0.864003	-0.840361	-0.541834	0.014494	0.474376	-0.722273	0.503278	0	0	0
13627	0	0	0	0	0	8.517782	0.155942	4.916275	0.001334	-0.002059	0.010469	-1.014648	-0.516357	-0.243408	-0.418061	-0.440541	0.233003	-0.759512	1.640005	-59.769964	121.397671	-0.262297	0.429750	0.864011	-0.840340	-0.541868	0.014409	0.474373	-0.722283	0.503267	0	0	0
13628	0	0	0	0	0	8.517900	0.155368	4.916087	0.001723	-0.002288	0.004772	-1.013184	-0.505859	-0.233887	-0.418046	-0.440540	0.233018	-0.759516	1.635580	-59.770810	121.402272	-0.262325	0.429718	0.864018	-0.840333	-0.541880	0.014370	0.474370	-0.722293	0.503255	0	0	0
13629	0	0	0	0	0	8.509419	0.208086	4.924394	0.001455	-0.004082	0.008738	-1.015381	-0.508545	-0.247559	-0.418012	-0.440543	0.233044	-0.759525	1.627633	-59.772961	121.411363	-0.262376	0.429649	0.864037	-0.840312	-0.541914	0.014299	0.474377	-0.722310	0.503225	0	0	0
13630	0	0	0	0	0	8.523942	0.175831	4.924864	-0.001884	-0.008276	0.009781	-1.010254	-0.506104	-0.236084	-0.417978	-0.440551	0.233096	-0.759523	1.616383	-59.777316	121.421470	-0.262417	0.429547	0.864076	-0.840309	-0.541921	0.014199	0.474360	-0.722365	0.503162	0	0	0
13631	0	0	0	0	0	8.478072	0.174121	4.953369	0.000784	-0.004739	0.006582	-1.009521	-0.511230	-0.244629	-0.417957	-0.440556	0.233124	-0.759524	1.609933	-59.779706	121.427677	-0.262445	0.429488	0.864097	-0.840304	-0.541931	0.014141	0.474354	-0.722392	0.503127	0	0	0
13632	0	0	0	0	0	8.504837	0.184156	4.913219	-0.003345	-0.007567	0.007203	-1.015625	-0.511719	-0.244629	-0.417937	-0.440562	0.233174	-0.759516	1.600358	-59.783612	121.434878	-0.262468	0.429404	0.864131	-0.840314	-0.541917	0.014055	0.474323	-0.722453	0.503071	0	0	0
13633	0	0	0	0	0	8.504018	0.184838	4.972483	-0.004398	-0.004621	0.004585	-1.012207	-0.511963	-0.242432	-0.417937	-0.440556	0.233217	-0.759505	1.593104	-59.785816	121.438298	-0.262477	0.429360	0.864150	-0.840342	-0.541876	0.013991	0.474269	-0.722509	0.503039	0	0	0
13634	0	0	0	0	0	8.531657	0.158096	4.953294	-0.006389	-0.004126	0.003779	-1.008789	-0.511963	-0.241455	-0.417941	-0.440546	0.233265	-0.759494	1.585056	-59.787697	121.441713	-0.262488	0.429320	0.864167	-0.840376	-0.541825	0.013919	0.474203	-0.722571	0.503013	0	0	0
13635	0	0	0	0	0	8.512008	0.167097	4.942568	-0.006100	0.000134	0.005470	-1.007568	-0.504639	-0.248535	-0.417946	-0.440520	0.233305	-0.759495	1.575964	-59.787254	121.446506	-0.262527	0.429304	0.864163	-0.840406	-0.541781	0.013839	0.474128	-0.722614	0.503022	0	0	0
13636	0	0	0	0	0	8.519702	0.149728	4.913141	-0.008359	-0.001164	0.008628	-1.012695	-0.510254	-0.244385	-0.417939	-0.440489	0.233364	-0.759498	1.561937	-59.787514	121.455534	-0.262593	0.429260	0.864165	-0.840437	-0.541736	0.013716	0.474037	-0.722674	0.503021	0	0	0
13637	0	0	0	0	0	8.531817	0.155355	4.953105	-0.010611	0.000911	0.005627	-1.009277	-0.507324	-0.240479	-0.417958	-0.440447	0.233424	-0.759494	1.549743	-59.786500	121.460062	-0.262634	0.429252	0.864156	-0.840495	-0.541649	0.013610	0.473911	-0.722744	0.503040	0	0	0
13638	0	0	0	0	0	8.506507	0.142385	4.932966	-0.010491	-0.001112	0.003895	-1.013184	-0.514404	-0.237061	-0.417974	-0.440417	0.233480	-0.759485	1.539147	-59.786654	121.463705	-0.262661	0.429233	0.864158	-0.840548	-0.541569	0.013516	0.473802	-0.722816	0.503040	0	0	0
13639	0	0	0	0	0	8.533005	0.152257	4.893271	-0.007300	-0.000736	0.005085	-1.011719	-0.503662	-0.245850	-0.417978	-0.440394	0.233524	-0.759483	1.529769	-59.786811	121.468565	-0.262696	0.429209	0.864159	-0.840580	-0.541522	0.013434	0.473727	-0.722865	0.503040	0	0	0
13640	0	0	0	0	0	8.546137	0.121301	4.953917	-0.011691	-0.001982	0.003511	-1.016113	-0.504395	-0.239258	-0.417997	-0.440365	0.233587	-0.759470	1.518887	-59.787457	121.471744	-0.262714	0.429186	0.864165	-0.840639	-0.541431	0.013338	0.473610	-0.722947	0.503032	0	0	0
13641	0	0	0	0	0	8.565001	0.147518	4.943598	-0.012482	-0.000615	0.003088	-1.018311	-0.510498	-0.240479	-0.418023	-0.440330	0.233649	-0.759457	1.507958	-59.787428	121.474243	-0.262733	0.429175	0.864164	-0.840706	-0.541330	0.013242	0.473481	-0.723029	0.503035	0	0	0
13642	0	0	0	0	0	8.532020	0.150899	4.952893	-0.015793	0.001033	0.003628	-1.008057	-0.504639	-0.241699	-0.418054	-0.440281	0.233721	-0.759446	1.494532	-59.786349	121.477646	-0.262767	0.429173	0.864155	-0.840785	-0.541210	0.013125	0.473322	-0.723120	0.503055	0	0	0
13643	0	0	0	0	0	8.531884	0.150009	4.953154	-0.013124	0.004569	0.000432	-1.007324	-0.505615	-0.252441	-0.418096	-0.440229	0.233768	-0.759438	1.485989	-59.783352	121.477322	-0.262789	0.429213	0.864129	-0.840859	-0.541097	0.013051	0.473179	-0.723181	0.503102	0	0	0
13644	0	0	0	0	0	8.519643	0.142544	4.913456	-0.015263	0.001248	0.001856	-1.009766	-0.510742	-0.243408	-0.418133	-0.440182	0.233833	-0.759425	1.474605	-59.782122	121.478712	-0.262809	0.429223	0.864118	-0.840940	-0.540973	0.012952	0.473024	-0.723267	0.503123	0	0	0
13645	0	0	0	0	0	8.493028	0.131175	4.953380	-0.006212	0.005533	0.001043	-1.014160	-0.511475	-0.247559	-0.418166	-0.440137	0.233857	-0.759426	1.469423	-59.778358	121.477933	-0.262832	0.429275	0.864085	-0.840991	-0.540896	0.012908	0.472921	-0.723295	0.503181	0	0	0
13646	0	0	0	0	0	8.467543	0.118737	4.933508	-0.007031	0.001059	0.001119	-1.008545	-0.505615	-0.245605	-0.418188	-0.440109	0.233890	-0.759420	1.463485	-59.777225	121.478479	-0.262845	0.429287	0.864075	-0.841035	-0.540829	0.012856	0.472835	-0.723338	0.503199	0	0	0
13647	0	0	0	0	0	8.506075	0.135866	4.933896	-0.003191	-0.000374	-0.001191	-1.013916	-0.513916	-0.252686	-0.418214	-0.440096	0.233908	-0.759407	1.462366	-59.776881	121.475375	-0.262825	0.429305	0.864072	-0.841073	-0.540769	0.012846	0.472778	-0.723371	0.503205	0	0	0
13648	0	0	0	0	0	8.500565	0.113893	4.924185	-0.003459	-0.002170	0.002771	-1.016357	-0.512695	-0.240967	-0.418218	-0.440086	0.233938	-0.759402	1.456931	-59.777621	121.477706	-0.262837	0.429285	0.864078	-0.841096	-0.540735	0.012798	0.472731	-0.723409	0.503195	0	0	0
13649	0	0	0	0	0	8.486501	0.145015	4.923054	-0.006121	-0.002329	-0.000191	-1.015625	-0.508545	-0.247559	-0.418243	-0.440075	0.233972	-0.759384	1.453385	-59.778436	121.475716	-0.262815	0.429284	0.864085	-0.841144	-0.540661	0.012767	0.472658	-0.723465	0.503183	0	0	0
13650	0	0	0	0	0	8.513107	0.155433	4.883176	-0.008522	-0.004069	-0.000960	-1.012695	-0.504150	-0.244385	-0.418269	-0.440065	0.234017	-0.759361	1.448767	-59.780211	121.473747	-0.262786	0.429270	0.864101	-0.841200	-0.540574	0.012725	0.472573	-0.723538	0.503158	0	0	0
13651	0	0	0	0	0	8.486988	0.144520	4.922230	-0.007492	-0.009480	-0.004003	-1.017578	-0.510254	-0.241211	-0.418303	-0.440082	0.234064	-0.759319	1.447984	-59.785091	121.467575	-0.262702	0.429235	0.864144	-0.841264	-0.540474	0.012717	0.472506	-0.723633	0.503084	0	0	0
13652	0	0	0	0	0	8.545625	0.152091	4.932550	-0.006002	-0.004351	-0.001924	-1.009277	-0.505615	-0.241455	-0.418327	-0.440080	0.234097	-0.759296	1.445764	-59.787013	121.464501	-0.262664	0.429225	0.864161	-0.841311	-0.540401	0.012696	0.472443	-0.723693	0.503056	0	0	0
13653	0	0	0	0	0	8.527092	0.124797	4.942298	-0.011593	-0.006465	-0.003885	-1.021240	-0.509033	-0.239990	-0.418368	-0.440079	0.234151	-0.759257	1.442650	-59.790300	121.459042	-0.262597	0.429208	0.864190	-0.841388	-0.540283	0.012668	0.472344	-0.723792	0.503007	0	0	0
13654	0	0	0	0	0	8.513210	0.156078	4.940859	-0.005211	-0.005717	-0.001502	-1.019043	-0.511230	-0.243408	-0.418388	-0.440084	0.234186	-0.759233	1.440502	-59.793010	121.456408	-0.262556	0.429185	0.864213	-0.841430	-0.540217	0.012648	0.472291	-0.723855	0.502966	0	0	0
13655	0	0	0	0	0	8.533149	0.146126	4.951091	-0.008112	-0.001832	-0.000998	-1.018066	-0.513672	-0.242188	-0.418414	-0.440070	0.234223	-0.759215	1.436384	-59.793723	121.454629	-0.262537	0.429184	0.864220	-0.841481	-0.540139	0.012612	0.472212	-0.723914	0.502957	0	0	0
13656	0	0	0	0	0	8.513428	0.155551	4.940500	-0.007702	0.000405	-0.001035	-1.012451	-0.512207	-0.241943	-0.418444	-0.440045	0.234255	-0.759203	1.432199	-59.792935	121.452701	-0.262529	0.429203	0.864213	-0.841534	-0.540058	0.012575	0.472122	-0.723963	0.502969	0	0	0
13657	0	0	0	0	0	8.526637	0.160650	4.920714	-0.005711	-0.000092	-0.000229	-1.014893	-0.508545	-0.248047	-0.418466	-0.440029	0.234280	-0.759193	1.428941	-59.792615	121.451395	-0.262521	0.429213	0.864210	-0.841573	-0.539998	0.012547	0.472056	-0.724002	0.502975	0	0	0
13658	0	0	0	0	0	8.546426	0.150617	4.931206	-0.010103	-0.001335	-0.001806	-1.013916	-0.507568	-0.241699	-0.418503	-0.440007	0.234323	-0.759172	1.424182	-59.792812	121.448541	-0.262498	0.429223	0.864212	-0.841639	-0.539896	0.012505	0.471951	-0.724072	0.502973	0	0	0
13659	0	0	0	0	0	8.494683	0.127536	4.950636	-0.007702	0.000405	-0.001036	-1.015869	-0.504395	-0.243652	-0.418536	-0.439983	0.234356	-0.759158	1.420231	-59.792113	121.446142	-0.262486	0.429243	0.864206	-0.841694	-0.539810	0.012470	0.471860	-0.724124	0.502984	0	0	0
13660	0	0	0	0	0	8.546412	0.150186	4.931243	-0.006644	0.000836	-0.004576	-1.011475	-0.507813	-0.237549	-0.418578	-0.439963	0.234376	-0.759140	1.420126	-59.791027	121.440195	-0.262450	0.429285	0.864196	-0.841751	-0.539721	0.012470	0.471778	-0.724165	0.503001	0	0	0
13661	0	0	0	0	0	8.514329	0.117465	4.961369	-0.011013	0.002053	-0.000495	-1.013672	-0.504639	-0.250244	-0.418613	-0.439928	0.234417	-0.759128	1.413695	-59.789517	121.439077	-0.262453	0.429309	0.864183	-0.841815	-0.539623	0.012414	0.471663	-0.724224	0.503025	0	0	0
13662	0	0	0	0	0	8.500124	0.148637	4.960504	-0.004391	-0.001243	-0.001578	-1.015625	-0.509521	-0.246582	-0.418637	-0.439917	0.234439	-0.759115	1.411981	-59.789665	121.436485	-0.262433	0.429319	0.864184	-0.841854	-0.539564	0.012399	0.471605	-0.724263	0.503023	0	0	0
13663	0	0	0	0	0	8.502148	0.110307	4.921534	-0.006622	0.003296	0.001082	-1.011230	-0.512207	-0.244385	-0.418665	-0.439880	0.234468	-0.759111	1.406364	-59.787244	121.436213	-0.262450	0.429352	0.864163	-0.841903	-0.539488	0.012350	0.471508	-0.724300	0.503061	0	0	0
13664	0	0	0	0	0	8.527347	0.121888	4.941931	-0.005831	0.001929	0.001504	-1.023193	-0.510010	-0.239014	-0.418684	-0.439851	0.234495	-0.759109	1.400717	-59.785618	121.437218	-0.262470	0.429368	0.864149	-0.841940	-0.539431	0.012301	0.471431	-0.724332	0.503086	0	0	0
13665	0	0	0	0	0	8.532783	0.143229	4.951806	-0.003430	0.003669	0.002275	-1.015625	-0.506836	-0.238037	-0.418694	-0.439822	0.234510	-0.759116	1.396071	-59.783225	121.439193	-0.262504	0.429390	0.864127	-0.841960	-0.539401	0.012262	0.471376	-0.724342	0.503124	0	0	0
13666	0	0	0	0	0	8.501679	0.109241	4.922367	-0.001701	0.004755	0.000890	-1.010498	-0.510010	-0.249268	-0.418709	-0.439791	0.234514	-0.759124	1.393328	-59.779972	121.439576	-0.262532	0.429430	0.864099	-0.841979	-0.539371	0.012239	0.471326	-0.724340	0.503173	0	0	0
13667	0	0	0	0	0	8.512678	0.152533	4.941886	-0.001320	0.001151	0.001348	-1.010742	-0.504883	-0.246338	-0.418718	-0.439776	0.234525	-0.759124	1.390766	-59.778924	121.440058	-0.262544	0.429441	0.864090	-0.841996	-0.539346	0.012217	0.471290	-0.724352	0.503190	0	0	0
13668	0	0	0	0	0	8.500416	0.145874	4.902186	0.002019	0.005343	0.000313	-1.013428	-0.502930	-0.254395	-0.418728	-0.439752	0.234513	-0.759137	1.390708	-59.775326	121.439801	-0.262571	0.429488	0.864058	-0.841999	-0.539341	0.012217	0.471269	-0.724328	0.503244	0	0	0
13669	0	0	0	0	0	8.526475	0.120825	4.943461	-0.008612	0.003794	0.000274	-1.014404	-0.504883	-0.242676	-0.418767	-0.439708	0.234549	-0.759130	1.384574	-59.772546	121.438416	-0.262582	0.429531	0.864034	-0.842063	-0.539242	0.012164	0.471149	-0.724376	0.503287	0	0	0
13670	0	0	0	0	0	8.531800	0.142188	4.953530	0.000170	0.006279	0.003431	-1.010742	-0.509033	-0.242432	-0.418770	-0.439673	0.234549	-0.759149	1.380369	-59.768455	121.441731	-0.262639	0.429568	0.863998	-0.842067	-0.539237	0.012129	0.471110	-0.724358	0.503350	0	0	0
13671	0	0	0	0	0	8.498560	0.146225	4.963254	-0.002230	0.004539	0.002660	-1.019531	-0.516357	-0.247803	-0.418778	-0.439642	0.234559	-0.759159	1.375878	-59.765528	121.444036	-0.262679	0.429595	0.863972	-0.842082	-0.539214	0.012091	0.471060	-0.724359	0.503395	0	0	0
13672	0	0	0	0	0	8.518055	0.136148	4.974243	-0.003021	0.005906	0.002238	-1.017578	-0.514160	-0.242432	-0.418793	-0.439602	0.234569	-0.759170	1.371029	-59.761634	121.445981	-0.262725	0.429636	0.863938	-0.842104	-0.539180	0.012049	0.470995	-0.724360	0.503454	0	0	0
13673	0	0	0	0	0	8.511295	0.150865	4.944318	-0.000769	0.003826	0.005237	-1.011963	-0.510986	-0.239014	-0.418788	-0.439575	0.234579	-0.759186	1.365173	-59.759119	121.450851	-0.262781	0.429646	0.863916	-0.842107	-0.539177	0.011999	0.470959	-0.724356	0.503494	0	0	0
13674	0	0	0	0	0	8.511067	0.150365	4.944727	-0.003550	0.005691	0.004007	-1.011963	-0.509521	-0.243164	-0.418797	-0.439533	0.234596	-0.759200	1.358289	-59.755373	121.454801	-0.262840	0.429676	0.863883	-0.842127	-0.539148	0.011940	0.470891	-0.724360	0.503551	0	0	0
13675	0	0	0	0	0	8.497519	0.144485	4.965087	-0.001150	0.007430	0.004778	-1.011475	-0.509277	-0.246826	-0.418797	-0.439492	0.234599	-0.759223	1.352529	-59.750865	121.459629	-0.262912	0.429712	0.863843	-0.842129	-0.539145	0.011891	0.470846	-0.724341	0.503621	0	0	0
13676	0	0	0	0	0	8.523685	0.155014	4.926007	-0.004362	0.004599	-0.002074	-1.010986	-0.510254	-0.239746	-0.418829	-0.439460	0.234607	-0.759221	1.351181	-59.747661	121.456632	-0.262914	0.429767	0.863815	-0.842169	-0.539083	0.011880	0.470774	-0.724354	0.503669	0	0	0
13677	0	0	0	0	0	8.510186	0.149462	4.946270	0.000170	0.006279	0.003430	-1.011963	-0.509277	-0.242188	-0.418832	-0.439427	0.234605	-0.759239	1.347475	-59.743728	121.459611	-0.262968	0.429804	0.863780	-0.842171	-0.539080	0.011849	0.470739	-0.724335	0.503729	0	0	0
13678	0	0	0	0	0	8.496663	0.143732	4.966573	-0.006211	0.005535	0.001042	-1.018555	-0.508789	-0.248779	-0.418858	-0.439383	0.234626	-0.759244	1.341985	-59.740030	121.460183	-0.263001	0.429849	0.863748	-0.842212	-0.539018	0.011802	0.470649	-0.724354	0.503786	0	0	0
13679	0	0	0	0	0	8.502064	0.165258	4.976514	-0.000790	0.001367	-0.000422	-1.006104	-0.509766	-0.252197	-0.418872	-0.439370	0.234631	-0.759242	1.341433	-59.738827	121.458670	-0.262999	0.429871	0.863737	-0.842230	-0.538989	0.011797	0.470616	-0.724363	0.503804	0	0	0
13680	0	0	0	0	0	8.516085	0.133705	4.977681	-0.001700	0.004756	0.000889	-1.013428	-0.508789	-0.240967	-0.418888	-0.439340	0.234635	-0.759250	1.338697	-59.735573	121.459045	-0.263028	0.429911	0.863709	-0.842250	-0.538959	0.011775	0.470566	-0.724361	0.503854	0	0	0
13681	0	0	0	0	0	8.509350	0.148653	4.947733	-0.004891	0.004384	-0.000305	-1.017090	-0.504150	-0.247314	-0.418917	-0.439306	0.234650	-0.759248	1.335748	-59.732573	121.457275	-0.263038	0.429958	0.863682	-0.842291	-0.538895	0.011750	0.470486	-0.724381	0.503900	0	0	0
13682	0	0	0	0	0	8.503630	0.126715	4.938351	-0.003311	0.001649	0.000539	-1.016846	-0.504883	-0.244629	-0.418934	-0.439284	0.234667	-0.759247	1.332505	-59.731094	121.457169	-0.263049	0.429978	0.863669	-0.842319	-0.538852	0.011722	0.470430	-0.724401	0.503923	0	0	0
13683	0	0	0	0	0	8.516697	0.131910	4.918856	-0.003691	0.005253	0.000081	-1.003906	-0.498779	-0.243896	-0.418957	-0.439249	0.234677	-0.759251	1.329375	-59.727682	121.456640	-0.263072	0.430024	0.863639	-0.842350	-0.538804	0.011695	0.470362	-0.724410	0.503975	0	0	0
13684	0	0	0	0	0	8.503326	0.126379	4.938883	-0.005181	0.000126	-0.002003	-1.027100	-0.512207	-0.246094	-0.418985	-0.439232	0.234698	-0.759239	1.327590	-59.727042	121.453605	-0.263054	0.430046	0.863634	-0.842393	-0.538737	0.011680	0.470294	-0.724446	0.503985	0	0	0
13685	0	0	0	0	0	8.504160	0.089508	4.959752	0.002810	0.003976	0.000736	-1.017334	-0.505615	-0.245361	-0.418989	-0.439215	0.234686	-0.759250	1.327700	-59.724394	121.453798	-0.263076	0.430079	0.863610	-0.842391	-0.538741	0.011682	0.470286	-0.724424	0.504025	0	0	0
13686	0	0	0	0	0	8.516223	0.131889	4.919679	-0.002631	0.005685	-0.003459	-1.015869	-0.511719	-0.248291	-0.419024	-0.439184	0.234683	-0.759250	1.328676	-59.720550	121.449257	-0.263072	0.430150	0.863576	-0.842426	-0.538686	0.011692	0.470226	-0.724423	0.504082	0	0	0
13687	0	0	0	0	0	8.508203	0.148231	4.949718	-0.002081	0.008360	0.000430	-1.008057	-0.507080	-0.248291	-0.419047	-0.439141	0.234680	-0.759263	1.326319	-59.715342	121.448908	-0.263111	0.430218	0.863531	-0.842449	-0.538650	0.011673	0.470163	-0.724409	0.504161	0	0	0
13688	0	0	0	0	0	8.514282	0.133230	4.980777	0.001500	0.008511	-0.004070	-1.015869	-0.508789	-0.250244	-0.419078	-0.439108	0.234654	-0.759273	1.330196	-59.709872	121.443748	-0.263115	0.430312	0.863482	-0.842466	-0.538622	0.011709	0.470129	-0.724374	0.504243	0	0	0
13689	0	0	0	0	0	8.499656	0.164942	4.980636	-0.000351	0.009446	-0.000954	-1.007813	-0.503662	-0.248291	-0.419107	-0.439064	0.234641	-0.759286	1.330187	-59.703921	121.441322	-0.263143	0.430400	0.863430	-0.842490	-0.538585	0.011711	0.470071	-0.724349	0.504333	0	0	0
13690	0	0	0	0	0	8.513291	0.133725	4.982458	0.001119	0.012116	-0.004529	-1.015625	-0.517578	-0.241211	-0.419146	-0.439018	0.234607	-0.759302	1.334211	-59.696380	121.435738	-0.263161	0.430522	0.863364	-0.842510	-0.538553	0.011749	0.470025	-0.724301	0.504445	0	0	0
13691	0	0	0	0	0	8.523805	0.177484	5.002790	-0.004591	0.012026	-0.004765	-1.014160	-0.510498	-0.239990	-0.419197	-0.438962	0.234594	-0.759310	1.335715	-59.689047	121.429556	-0.263172	0.430645	0.863299	-0.842556	-0.538480	0.011765	0.469935	-0.724282	0.504556	0	0	0
13692	0	0	0	0	0	8.484460	0.160388	5.003707	-0.004822	0.019452	-0.007454	-1.016113	-0.509521	-0.244629	-0.419268	-0.438879	0.234561	-0.759329	1.339028	-59.677263	121.420853	-0.263199	0.430837	0.863195	-0.842612	-0.538391	0.011798	0.469820	-0.724234	0.504732	0	0	0
13693	0	0	0	0	0	8.516487	0.156233	4.996120	-0.009073	0.018648	-0.005112	-1.015381	-0.508057	-0.246338	-0.419334	-0.438791	0.234548	-0.759347	1.338066	-59.666244	121.415081	-0.263242	0.431005	0.863098	-0.842676	-0.538292	0.011793	0.469682	-0.724207	0.504898	0	0	0
13694	0	0	0	0	0	8.458651	0.147330	4.926662	-0.004453	0.012464	-0.000842	-1.018066	-0.514404	-0.246338	-0.419371	-0.438728	0.234543	-0.759365	1.335274	-59.658552	121.413695	-0.263292	0.431110	0.863030	-0.842712	-0.538235	0.011771	0.469588	-0.724187	0.505015	0	0	0
13695	0	0	0	0	0	8.483054	0.123630	5.028337	-0.003800	0.010660	-0.004345	-1.012939	-0.507080	-0.245117	-0.419416	-0.438679	0.234530	-0.759372	1.336710	-59.652019	121.408165	-0.263302	0.431219	0.862973	-0.842753	-0.538171	0.011786	0.469509	-0.724170	0.505113	0	0	0
13696	0	0	0	0	0	8.487921	0.145464	5.039146	-0.004302	0.016287	-0.003072	-1.013184	-0.506104	-0.251465	-0.419466	-0.438604	0.234512	-0.759394	1.336098	-59.642107	121.404352	-0.263351	0.431364	0.862885	-0.842795	-0.538105	0.011785	0.469407	-0.724132	0.505262	0	0	0
13697	0	0	0	0	0	8.490278	0.178898	4.839902	-0.005439	0.001710	-0.004200	-1.013672	-0.506348	-0.248047	-0.419506	-0.438583	0.234526	-0.759379	1.336417	-59.640625	121.398542	-0.263319	0.431410	0.862872	-0.842847	-0.538024	0.011788	0.469331	-0.724166	0.505285	0	0	0
13698	0	0	0	0	0	8.470474	0.152969	4.909353	-0.005906	-0.012213	-0.003172	-1.011719	-0.506592	-0.244385	-0.419526	-0.438613	0.234573	-0.759336	1.335633	-59.647037	121.393864	-0.263233	0.431349	0.862929	-0.842897	-0.537946	0.011779	0.469290	-0.724259	0.505188	0	0	0
13699	0	0	0	0	0	8.460234	0.109050	4.888558	-0.016048	-0.022773	0.001655	-1.011719	-0.514648	-0.253906	-0.419537	-0.438657	0.234691	-0.759268	1.324752	-59.659724	121.394329	-0.263137	0.431184	0.863041	-0.842980	-0.537818	0.011678	0.469194	-0.724453	0.504999	0	0	0
13700	0	0	0	0	0	8.502122	0.186739	4.995560	-0.015533	-0.025012	-0.005777	-1.011230	-0.499268	-0.247559	-0.419573	-0.438719	0.234796	-0.759181	1.321292	-59.673433	121.386360	-0.262970	0.431044	0.863162	-0.843082	-0.537659	0.011643	0.469105	-0.724654	0.504794	0	0	0
13701	0	0	0	0	0	8.504261	0.149467	5.014198	-0.018844	-0.023361	-0.005243	-1.011963	-0.510742	-0.242920	-0.419620	-0.438765	0.234913	-0.759092	1.315542	-59.686210	121.378253	-0.262808	0.430917	0.863274	-0.843204	-0.537469	0.011588	0.468977	-0.724871	0.504602	0	0	0
13702	0	0	0	0	0	8.498457	0.128411	5.062722	-0.009366	-0.014383	-0.000413	-1.014893	-0.510498	-0.248047	-0.419635	-0.438792	0.234984	-0.759046	1.310123	-59.693902	121.376648	-0.262736	0.430826	0.863342	-0.843262	-0.537378	0.011538	0.468912	-0.724992	0.504488	0	0	0
13703	0	0	0	0	0	8.480424	0.137189	4.991511	0.008064	-0.006468	-0.004157	-1.007813	-0.513672	-0.249268	-0.419633	-0.438833	0.234962	-0.759030	1.318638	-59.697186	121.370826	-0.262667	0.430810	0.863371	-0.843247	-0.537401	0.011611	0.468979	-0.724985	0.504436	0	0	0
13704	0	0	0	0	0	8.487379	0.158567	4.941007	0.010873	-0.002491	-0.003418	-1.013184	-0.512695	-0.243164	-0.419629	-0.438861	0.234925	-0.759027	1.327495	-59.698026	121.366119	-0.262625	0.430821	0.863378	-0.843218	-0.537444	0.011689	0.469053	-0.724947	0.504422	0	0	0
13705	0	0	0	0	0	8.546886	0.130252	4.972156	0.013365	-0.008614	-0.003887	-1.014893	-0.509033	-0.250244	-0.419614	-0.438921	0.234888	-0.759012	1.339045	-59.702490	121.360128	-0.262544	0.430791	0.863417	-0.843180	-0.537503	0.011789	0.469168	-0.724921	0.504352	0	0	0
13706	0	0	0	0	0	8.566933	0.121518	4.982162	0.012193	-0.003641	-0.004767	-1.006836	-0.501709	-0.252686	-0.419611	-0.438958	0.234845	-0.759006	1.350009	-59.703970	121.353856	-0.262486	0.430800	0.863431	-0.843149	-0.537549	0.011885	0.469257	-0.724880	0.504328	0	0	0
13707	0	0	0	0	0	8.540821	0.147525	4.941000	0.013923	-0.002554	-0.006151	-1.015625	-0.506104	-0.252930	-0.419616	-0.438994	0.234793	-0.758999	1.363322	-59.704768	121.345161	-0.262414	0.430830	0.863438	-0.843121	-0.537590	0.012002	0.469346	-0.724833	0.504313	0	0	0
13708	0	0	0	0	0	8.540916	0.148691	4.940803	0.017783	-0.001528	-0.002800	-1.012451	-0.512451	-0.244141	-0.419595	-0.439032	0.234729	-0.759008	1.375511	-59.705063	121.341179	-0.262382	0.430844	0.863440	-0.843058	-0.537686	0.012109	0.469477	-0.724753	0.504306	0	0	0
13709	0	0	0	0	0	8.482655	0.141928	4.929768	0.011952	0.000401	-0.001301	-1.016113	-0.509277	-0.243896	-0.419585	-0.439050	0.234686	-0.759016	1.383088	-59.704349	121.338465	-0.262367	0.430866	0.863434	-0.843022	-0.537741	0.012176	0.469550	-0.724699	0.504315	0	0	0
13710	0	0	0	0	0	8.507857	0.154902	4.950108	0.013951	0.003288	-0.006647	-1.020020	-0.511475	-0.242676	-0.419593	-0.439067	0.234618	-0.759024	1.396740	-59.701831	121.330247	-0.262325	0.430936	0.863412	-0.842987	-0.537793	0.012297	0.469636	-0.724619	0.504350	0	0	0
13711	0	0	0	0	0	8.501136	0.171229	4.920086	0.015820	0.004812	-0.004106	-1.011719	-0.512695	-0.246582	-0.419584	-0.439082	0.234542	-0.759043	1.409242	-59.698743	121.325354	-0.262312	0.430998	0.863384	-0.842931	-0.537878	0.012409	0.469744	-0.724519	0.504394	0	0	0
13712	0	0	0	0	0	8.507416	0.157243	4.950791	0.017811	0.004316	-0.003298	-1.019531	-0.513916	-0.247314	-0.419572	-0.439099	0.234464	-0.759064	1.421794	-59.695682	121.320971	-0.262303	0.431058	0.863358	-0.842870	-0.537972	0.012520	0.469859	-0.724414	0.504437	0	0	0
13713	0	0	0	0	0	8.467719	0.177777	4.929981	0.019272	0.003604	-0.000720	-1.014648	-0.504883	-0.256104	-0.419546	-0.439120	0.234387	-0.759090	1.433140	-59.693197	121.319113	-0.262309	0.431098	0.863336	-0.842794	-0.538088	0.012621	0.469991	-0.724304	0.504472	0	0	0
13714	0	0	0	0	0	8.512591	0.181055	4.960997	0.016082	0.003230	-0.001916	-1.017822	-0.515137	-0.246582	-0.419531	-0.439136	0.234321	-0.759109	1.443371	-59.690777	121.316270	-0.262306	0.431142	0.863314	-0.842737	-0.538175	0.012712	0.470095	-0.724213	0.504506	0	0	0
13715	0	0	0	0	0	8.487169	0.169808	4.940994	0.013822	0.001928	0.001238	-1.015625	-0.512939	-0.253906	-0.419512	-0.439147	0.234275	-0.759127	1.449382	-59.689146	121.316217	-0.262319	0.431164	0.863300	-0.842689	-0.538250	0.012766	0.470175	-0.724145	0.504530	0	0	0
13716	0	0	0	0	0	8.500450	0.175860	4.921108	0.006484	-0.003733	-0.005003	-1.016846	-0.509277	-0.249023	-0.419522	-0.439173	0.234254	-0.759114	1.457310	-59.690669	121.309672	-0.262258	0.431174	0.863313	-0.842685	-0.538254	0.012835	0.470216	-0.724135	0.504505	0	0	0
13717	0	0	0	0	0	8.512583	0.183336	4.960927	0.006632	0.000087	-0.007234	-1.014160	-0.511963	-0.242920	-0.419549	-0.439186	0.234220	-0.759102	1.467611	-59.689967	121.299886	-0.262189	0.431228	0.863307	-0.842693	-0.538240	0.012926	0.470240	-0.724114	0.504513	0	0	0
13718	0	0	0	0	0	8.506150	0.199034	4.930413	0.006093	-0.003510	0.000693	-1.017822	-0.511230	-0.246338	-0.419538	-0.439203	0.234212	-0.759100	1.469730	-59.691445	121.299811	-0.262177	0.431209	0.863320	-0.842676	-0.538266	0.012944	0.470277	-0.724105	0.504491	0	0	0
13719	0	0	0	0	0	8.524915	0.191051	5.000398	0.005284	-0.004604	-0.005389	-1.019531	-0.514893	-0.247070	-0.419548	-0.439233	0.234194	-0.759083	1.477750	-59.693669	121.292852	-0.262108	0.431212	0.863340	-0.842675	-0.538265	0.013014	0.470317	-0.724104	0.504455	0	0	0
13720	0	0	0	0	0	8.538317	0.196983	4.980302	0.002642	-0.002302	-0.002695	-1.015381	-0.504395	-0.250488	-0.419559	-0.439242	0.234189	-0.759073	1.481181	-59.694405	121.288967	-0.262073	0.431221	0.863346	-0.842683	-0.538252	0.013044	0.470322	-0.724109	0.504443	0	0	0
13721	0	0	0	0	0	8.516299	0.110290	4.941535	0.002903	-0.003884	-0.000501	-1.014648	-0.515625	-0.252197	-0.419561	-0.439256	0.234192	-0.759063	1.482765	-59.696167	121.287220	-0.262046	0.431206	0.863362	-0.842686	-0.538246	0.013057	0.470331	-0.724122	0.504416	0	0	0
13722	0	0	0	0	0	8.494586	0.158223	4.969685	0.005564	-0.003725	0.002463	-1.012451	-0.512695	-0.244141	-0.419544	-0.439271	0.234190	-0.759064	1.482852	-59.697794	121.289147	-0.262047	0.431176	0.863376	-0.842667	-0.538276	0.013057	0.470365	-0.724117	0.504392	0	0	0
13723	0	0	0	0	0	8.514459	0.148576	4.980040	0.003981	-0.000992	0.001617	-1.012207	-0.510498	-0.241211	-0.419540	-0.439274	0.234186	-0.759066	1.483313	-59.697916	121.289478	-0.262049	0.431173	0.863377	-0.842661	-0.538287	0.013061	0.470376	-0.724111	0.504390	0	0	0
13724	0	0	0	0	0	8.494757	0.158288	4.969391	0.006642	-0.000833	0.004581	-1.015869	-0.508301	-0.242676	-0.419516	-0.439278	0.234179	-0.759079	1.481869	-59.697919	121.293893	-0.262082	0.431153	0.863377	-0.842631	-0.538333	0.013048	0.470411	-0.724089	0.504390	0	0	0
13725	0	0	0	0	0	8.527702	0.154103	4.960226	0.009310	0.002707	0.001387	-1.009033	-0.518555	-0.249756	-0.419498	-0.439282	0.234144	-0.759098	1.485327	-59.696120	121.295189	-0.262106	0.431170	0.863361	-0.842591	-0.538396	0.013079	0.470470	-0.724032	0.504417	0	0	0
13726	0	0	0	0	0	8.535189	0.137959	4.931156	0.013049	0.005759	0.006468	-1.017822	-0.515869	-0.248779	-0.419461	-0.439272	0.234103	-0.759137	1.485538	-59.692375	121.301940	-0.262186	0.431187	0.863328	-0.842526	-0.538497	0.013083	0.470541	-0.723946	0.504473	0	0	0
13727	0	0	0	0	0	8.505260	0.202667	4.989593	0.022751	0.008242	0.002157	-1.015625	-0.511719	-0.246094	-0.419426	-0.439278	0.234009	-0.759181	1.496161	-59.687176	121.302835	-0.262233	0.431250	0.863283	-0.842431	-0.538643	0.013178	0.470685	-0.723800	0.504549	0	0	0
13728	0	0	0	0	0	8.495185	0.194113	4.830696	0.013319	0.007558	0.002502	-1.011963	-0.513428	-0.241699	-0.419405	-0.439266	0.233954	-0.759216	1.500366	-59.682342	121.305139	-0.262289	0.431302	0.863240	-0.842375	-0.538729	0.013217	0.470753	-0.723705	0.504621	0	0	0
13729	0	0	0	0	0	8.506885	0.201189	4.871279	0.010129	0.007183	0.001308	-1.014404	-0.513428	-0.246094	-0.419393	-0.439254	0.233907	-0.759245	1.504415	-59.677915	121.306041	-0.262330	0.431355	0.863201	-0.842334	-0.538793	0.013255	0.470804	-0.723626	0.504686	0	0	0
13730	0	0	0	0	0	8.506520	0.165905	4.952048	0.005972	-0.001486	0.002425	-1.016113	-0.514648	-0.242676	-0.419379	-0.439261	0.233899	-0.759251	1.504718	-59.678260	121.307988	-0.262342	0.431341	0.863204	-0.842313	-0.538826	0.013257	0.470835	-0.723610	0.504681	0	0	0
13731	0	0	0	0	0	8.514376	0.149499	4.922370	0.003833	-0.004810	0.003849	-1.017090	-0.516357	-0.253174	-0.419357	-0.439278	0.233907	-0.759251	1.503020	-59.680737	121.311373	-0.262348	0.431294	0.863226	-0.842295	-0.538854	0.013241	0.470864	-0.723617	0.504644	0	0	0
13732	0	0	0	0	0	8.441861	0.137720	4.990651	0.006763	-0.002853	0.002848	-1.021729	-0.513672	-0.243164	-0.419337	-0.439292	0.233899	-0.759256	1.503397	-59.681872	121.313760	-0.262357	0.431268	0.863236	-0.842269	-0.538894	0.013244	0.470905	-0.723602	0.504627	0	0	0
13733	0	0	0	0	0	8.462924	0.126720	4.941229	0.007433	-0.002196	0.005003	-1.018311	-0.512451	-0.249023	-0.419310	-0.439304	0.233892	-0.759267	1.502429	-59.682777	121.318226	-0.262384	0.431236	0.863244	-0.842235	-0.538948	0.013235	0.470951	-0.723582	0.504614	0	0	0
13734	0	0	0	0	0	8.508183	0.129137	4.971612	0.015516	-0.006200	0.006503	-1.019775	-0.510010	-0.253174	-0.419253	-0.439344	0.233867	-0.759283	1.504328	-59.685884	121.324660	-0.262408	0.431167	0.863271	-0.842159	-0.539067	0.013251	0.471074	-0.723534	0.504566	0	0	0
13735	0	0	0	0	0	8.482079	0.118247	5.010582	0.009005	-0.008305	0.012007	-1.014648	-0.513184	-0.242188	-0.419191	-0.439372	0.233884	-0.759296	1.497251	-59.690295	121.336665	-0.262464	0.431055	0.863310	-0.842103	-0.539155	0.013187	0.471142	-0.723535	0.504502	0	0	0
13736	0	0	0	0	0	8.495669	0.123058	4.990195	0.010615	-0.005196	0.012351	-1.012695	-0.521729	-0.237549	-0.419123	-0.439391	0.233888	-0.759320	1.490583	-59.692913	121.349770	-0.262542	0.430961	0.863333	-0.842034	-0.539264	0.013127	0.471222	-0.723510	0.504464	0	0	0
13737	0	0	0	0	0	8.528019	0.154902	4.959656	0.010876	-0.006776	0.014544	-1.018311	-0.513916	-0.243164	-0.419040	-0.439421	0.233893	-0.759348	1.482856	-59.696789	121.365484	-0.262629	0.430840	0.863367	-0.841950	-0.539398	0.013057	0.471324	-0.723483	0.504407	0	0	0
13738	0	0	0	0	0	8.495373	0.158581	4.968327	0.012076	-0.005904	0.014927	-1.016357	-0.513428	-0.238770	-0.418960	-0.439443	0.233899	-0.759378	1.474514	-59.699849	121.381494	-0.262726	0.430727	0.863394	-0.841867	-0.539529	0.012983	0.471418	-0.723452	0.504363	0	0	0
13739	0	0	0	0	0	8.503409	0.141577	4.938328	0.012196	-0.007927	0.013195	-1.020508	-0.514648	-0.253906	-0.418877	-0.439480	0.233900	-0.759401	1.468522	-59.704346	121.395893	-0.262799	0.430603	0.863434	-0.841780	-0.539665	0.012928	0.471532	-0.723424	0.504296	0	0	0
13740	0	0	0	0	0	8.509273	0.162539	4.947428	0.007445	-0.003102	0.016811	-1.020508	-0.515625	-0.249268	-0.418803	-0.439480	0.233921	-0.759436	1.455605	-59.705826	121.414129	-0.262924	0.430500	0.863447	-0.841715	-0.539771	0.012814	0.471580	-0.723407	0.504277	0	0	0
13741	0	0	0	0	0	8.522685	0.166959	4.927347	0.005314	-0.003050	0.012079	-1.016357	-0.510010	-0.245117	-0.418756	-0.439479	0.233941	-0.759456	1.446422	-59.707189	121.426075	-0.263003	0.430428	0.863459	-0.841678	-0.539830	0.012733	0.471602	-0.723405	0.504259	0	0	0
13742	0	0	0	0	0	8.515230	0.182363	4.956419	0.005715	-0.004185	0.018195	-1.022705	-0.513916	-0.232422	-0.418678	-0.439478	0.233975	-0.759489	1.431180	-59.709305	121.445855	-0.263135	0.430310	0.863477	-0.841616	-0.539929	0.012598	0.471637	-0.723402	0.504230	0	0	0
13743	0	0	0	0	0	8.503116	0.138922	4.996738	-0.000257	-0.002697	0.015774	-1.016846	-0.505371	-0.243164	-0.418617	-0.439467	0.234017	-0.759516	1.415289	-59.710912	121.463765	-0.263257	0.430207	0.863492	-0.841578	-0.539992	0.012457	0.471637	-0.723416	0.504209	0	0	0
13744	0	0	0	0	0	8.509940	0.157942	4.946431	-0.001837	0.000036	0.014927	-1.019043	-0.515137	-0.236328	-0.418574	-0.439438	0.234063	-0.759543	1.398820	-59.710559	121.479955	-0.263381	0.430137	0.863489	-0.841561	-0.540021	0.012312	0.471598	-0.723436	0.504218	0	0	0
13745	0	0	0	0	0	8.516377	0.141642	4.976962	0.000304	0.003357	0.013500	-1.025146	-0.504639	-0.251953	-0.418528	-0.439407	0.234087	-0.759578	1.385266	-59.708606	121.495254	-0.263512	0.430092	0.863471	-0.841529	-0.540075	0.012194	0.471583	-0.723423	0.504251	0	0	0
13746	0	0	0	0	0	8.456787	0.134096	5.026084	-0.000755	0.002931	0.017039	-1.010254	-0.505615	-0.240479	-0.418478	-0.439366	0.234127	-0.759617	1.367280	-59.706621	121.513919	-0.263667	0.430031	0.863454	-0.841501	-0.540121	0.012036	0.471546	-0.723424	0.504284	0	0	0
13747	0	0	0	0	0	8.516169	0.138918	4.977394	-0.000636	0.000908	0.015308	-1.018555	-0.506592	-0.244629	-0.418432	-0.439336	0.234168	-0.759647	1.351048	-59.705886	121.530533	-0.263798	0.429964	0.863447	-0.841478	-0.540160	0.011894	0.471514	-0.723435	0.504299	0	0	0
13748	0	0	0	0	0	8.483151	0.142076	4.986737	-0.002097	0.001617	0.012731	-1.010254	-0.505859	-0.240967	-0.418399	-0.439302	0.234207	-0.759673	1.336550	-59.704589	121.544268	-0.263911	0.429918	0.863436	-0.841468	-0.540179	0.011767	0.471468	-0.723449	0.504321	0	0	0
13749	0	0	0	0	0	8.496415	0.146286	4.966923	-0.001189	-0.001773	0.011424	-1.019531	-0.513672	-0.245361	-0.418363	-0.439288	0.234245	-0.759689	1.324135	-59.705412	121.556571	-0.263997	0.429851	0.863443	-0.841454	-0.540203	0.011657	0.471445	-0.723470	0.504311	0	0	0
13750	0	0	0	0	0	8.504160	0.128827	4.937384	-0.001189	-0.001773	0.011423	-1.019531	-0.507324	-0.248535	-0.418330	-0.439271	0.234284	-0.759705	1.311517	-59.706038	121.568732	-0.264083	0.429786	0.863449	-0.841443	-0.540222	0.011546	0.471416	-0.723494	0.504304	0	0	0
13751	0	0	0	0	0	8.485442	0.101019	4.947409	0.003181	-0.002998	0.007344	-1.013184	-0.514160	-0.245605	-0.418301	-0.439273	0.234300	-0.759715	1.305701	-59.707419	121.575955	-0.264126	0.429735	0.863461	-0.841423	-0.540255	0.011494	0.471428	-0.723500	0.504285	0	0	0
13752	0	0	0	0	0	8.497725	0.107049	4.987063	0.000920	-0.004293	0.010499	-1.017578	-0.510010	-0.243896	-0.418263	-0.439271	0.234335	-0.759726	1.295251	-59.709474	121.587003	-0.264193	0.429658	0.863479	-0.841404	-0.540286	0.011401	0.471424	-0.723523	0.504256	0	0	0
13753	0	0	0	0	0	8.525262	0.080137	4.967962	0.003852	-0.002340	0.009496	-1.015625	-0.512451	-0.240967	-0.418225	-0.439271	0.234350	-0.759742	1.287939	-59.710537	121.596643	-0.264257	0.429600	0.863488	-0.841374	-0.540335	0.011337	0.471443	-0.723521	0.504241	0	0	0
13754	0	0	0	0	0	8.511311	0.111118	4.966692	0.007162	-0.003991	0.008956	-1.017334	-0.509766	-0.247070	-0.418180	-0.439283	0.234357	-0.759758	1.282571	-59.712398	121.605947	-0.264312	0.429533	0.863505	-0.841330	-0.540404	0.011289	0.471490	-0.723509	0.504214	0	0	0
13755	0	0	0	0	0	8.524706	0.116029	4.946626	0.007574	-0.001754	0.008915	-1.012939	-0.512695	-0.245605	-0.418136	-0.439289	0.234356	-0.759779	1.277874	-59.713143	121.615124	-0.264375	0.429481	0.863511	-0.841282	-0.540480	0.011247	0.471541	-0.723483	0.504204	0	0	0
13756	0	0	0	0	0	8.505076	0.125586	4.935889	0.010624	-0.001826	0.006182	-1.018799	-0.509277	-0.248047	-0.418096	-0.439303	0.234339	-0.759798	1.277162	-59.713728	121.621334	-0.264417	0.429445	0.863516	-0.841229	-0.540562	0.011241	0.471611	-0.723443	0.504195	0	0	0
13757	0	0	0	0	0	8.503868	0.127074	4.995774	0.009198	0.004723	0.003103	-1.018066	-0.508789	-0.254150	-0.418080	-0.439294	0.234307	-0.759822	1.278905	-59.710602	121.623693	-0.264459	0.429474	0.863489	-0.841193	-0.540618	0.011257	0.471652	-0.723384	0.504242	0	0	0
13758	0	0	0	0	0	8.504960	0.125850	4.936082	0.009952	-0.002484	0.004030	-1.016602	-0.511230	-0.247803	-0.418050	-0.439311	0.234289	-0.759835	1.279934	-59.711536	121.627441	-0.264480	0.429445	0.863497	-0.841149	-0.540686	0.011266	0.471719	-0.723350	0.504228	0	0	0
13759	0	0	0	0	0	8.511530	0.110848	4.966323	0.006643	-0.000832	0.004570	-1.021973	-0.516846	-0.248291	-0.418031	-0.439314	0.234284	-0.759845	1.278725	-59.711508	121.630971	-0.264507	0.429429	0.863497	-0.841126	-0.540723	0.011255	0.471746	-0.723332	0.504229	0	0	0
13760	0	0	0	0	0	8.497492	0.142273	4.965197	0.005442	-0.001702	0.004187	-1.024658	-0.510498	-0.247803	-0.418010	-0.439319	0.234282	-0.759854	1.276998	-59.711996	121.634917	-0.264532	0.429405	0.863501	-0.841102	-0.540759	0.011240	0.471773	-0.723320	0.504222	0	0	0
13761	0	0	0	0	0	8.486328	0.098868	4.945932	0.006501	-0.001278	0.000648	-1.018311	-0.505615	-0.246582	-0.418002	-0.439330	0.234267	-0.759857	1.279689	-59.712300	121.634516	-0.264527	0.429403	0.863504	-0.841084	-0.540787	0.011263	0.471808	-0.723300	0.504216	0	0	0
13762	0	0	0	0	0	8.498495	0.105842	4.985775	0.006501	-0.001278	0.000648	-1.013916	-0.509521	-0.254395	-0.417993	-0.439340	0.234252	-0.759861	1.282031	-59.712499	121.634453	-0.264525	0.429400	0.863506	-0.841065	-0.540816	0.011284	0.471843	-0.723280	0.504213	0	0	0
13763	0	0	0	0	0	8.473226	0.093935	4.965501	0.005442	-0.001701	0.004186	-1.014404	-0.512695	-0.242676	-0.417977	-0.439344	0.234252	-0.759867	1.280431	-59.712978	121.637651	-0.264545	0.429379	0.863510	-0.841048	-0.540843	0.011270	0.471862	-0.723272	0.504206	0	0	0
13764	0	0	0	0	0	8.506296	0.089272	4.956091	0.001720	-0.002286	0.004767	-1.024658	-0.509521	-0.250732	-0.417961	-0.439342	0.234267	-0.759872	1.276015	-59.713807	121.642241	-0.264573	0.429348	0.863517	-0.841041	-0.540854	0.011231	0.471859	-0.723282	0.504194	0	0	0
13765	0	0	0	0	0	8.512134	0.110986	4.965284	0.007667	-0.006248	0.001534	-1.017578	-0.504639	-0.247314	-0.417941	-0.439374	0.234260	-0.759867	1.278582	-59.716984	121.642788	-0.264552	0.429304	0.863545	-0.841015	-0.540895	0.011252	0.471918	-0.723277	0.504146	0	0	0
13766	0	0	0	0	0	8.525576	0.116545	4.945114	0.008492	-0.001775	0.001453	-1.023682	-0.506836	-0.236572	-0.417924	-0.439389	0.234240	-0.759874	1.281286	-59.717478	121.643627	-0.264554	0.429294	0.863549	-0.840984	-0.540942	0.011276	0.471971	-0.723248	0.504138	0	0	0
13767	0	0	0	0	0	8.512534	0.111474	4.964588	0.010329	-0.006085	0.004491	-1.016602	-0.507813	-0.252441	-0.417882	-0.439423	0.234228	-0.759881	1.282243	-59.720732	121.648338	-0.264564	0.429231	0.863578	-0.840932	-0.541024	0.011283	0.472059	-0.723225	0.504089	0	0	0
13768	0	0	0	0	0	8.512760	0.111778	4.964193	0.009810	-0.002930	0.000105	-1.023926	-0.506836	-0.243896	-0.417866	-0.439447	0.234203	-0.759884	1.287050	-59.721871	121.647617	-0.264549	0.429219	0.863588	-0.840899	-0.541074	0.011325	0.472126	-0.723194	0.504071	0	0	0
13769	0	0	0	0	0	8.526110	0.117534	4.944170	0.009021	-0.001563	-0.000318	-1.020752	-0.512207	-0.248291	-0.417856	-0.439464	0.234178	-0.759887	1.291863	-59.722297	121.646164	-0.264535	0.429221	0.863592	-0.840873	-0.541114	0.011367	0.472180	-0.723164	0.504063	0	0	0
13770	0	0	0	0	0	8.507322	0.090977	4.954299	0.009021	-0.001563	-0.000318	-1.021484	-0.504883	-0.245361	-0.417845	-0.439481	0.234153	-0.759891	1.296603	-59.722647	121.644996	-0.264524	0.429221	0.863595	-0.840845	-0.541156	0.011409	0.472237	-0.723131	0.504057	0	0	0
13771	0	0	0	0	0	8.487583	0.101207	4.943731	0.008645	0.002040	-0.000783	-1.017578	-0.508057	-0.240234	-0.417841	-0.439486	0.234120	-0.759901	1.301649	-59.721044	121.643250	-0.264523	0.429250	0.863581	-0.840820	-0.541194	0.011454	0.472281	-0.723086	0.504080	0	0	0
13772	0	0	0	0	0	8.506322	0.128700	4.933662	0.004664	0.003032	-0.002393	-1.017090	-0.507813	-0.251953	-0.417852	-0.439479	0.234097	-0.759906	1.305826	-59.718735	121.639844	-0.264516	0.429295	0.863560	-0.840818	-0.541196	0.011491	0.472289	-0.723057	0.504114	0	0	0
13773	0	0	0	0	0	8.493831	0.087192	4.974526	0.007973	0.001381	-0.002935	-1.018799	-0.505127	-0.244385	-0.417857	-0.439487	0.234063	-0.759909	1.312675	-59.717476	121.635550	-0.264494	0.429331	0.863549	-0.840802	-0.541220	0.011552	0.472329	-0.723019	0.504132	0	0	0
13774	0	0	0	0	0	8.518205	0.136650	4.973972	0.010376	0.003122	-0.002171	-1.018555	-0.517090	-0.247314	-0.417856	-0.439491	0.234019	-0.759921	1.319904	-59.715119	121.632400	-0.264489	0.429376	0.863529	-0.840772	-0.541264	0.011616	0.472385	-0.722959	0.504166	0	0	0
13775	0	0	0	0	0	8.506055	0.130492	4.934075	0.009022	-0.001562	-0.000319	-1.016846	-0.504639	-0.241211	-0.417844	-0.439510	0.233992	-0.759924	1.324991	-59.715595	121.630980	-0.264474	0.429377	0.863533	-0.840744	-0.541308	0.011661	0.472444	-0.722926	0.504158	0	0	0
13776	0	0	0	0	0	8.526597	0.084467	4.965600	0.007856	0.003407	-0.001208	-1.025146	-0.510254	-0.249023	-0.417845	-0.439507	0.233958	-0.759936	1.329824	-59.713086	121.628932	-0.264479	0.429418	0.863511	-0.840724	-0.541338	0.011704	0.472477	-0.722878	0.504195	0	0	0
13777	0	0	0	0	0	8.506741	0.094612	4.955229	0.008116	0.001830	0.000985	-1.012207	-0.513184	-0.241455	-0.417833	-0.439509	0.233932	-0.759949	1.332798	-59.711671	121.629434	-0.264494	0.429434	0.863498	-0.840694	-0.541383	0.011731	0.472521	-0.722835	0.504215	0	0	0
13778	0	0	0	0	0	8.500145	0.109947	4.925000	0.009317	0.002701	0.001366	-1.020752	-0.514404	-0.245850	-0.417820	-0.439509	0.233900	-0.759967	1.335958	-59.709601	121.630292	-0.264517	0.429457	0.863480	-0.840660	-0.541435	0.011760	0.472568	-0.722783	0.504246	0	0	0
13779	0	0	0	0	0	8.512163	0.117023	4.965095	0.006914	0.000960	0.000603	-1.014404	-0.503174	-0.244629	-0.417812	-0.439514	0.233876	-0.759975	1.339094	-59.708686	121.630006	-0.264522	0.429470	0.863472	-0.840637	-0.541470	0.011787	0.472607	-0.722749	0.504259	0	0	0
13780	0	0	0	0	0	8.497944	0.148942	4.964227	0.011048	0.003782	-0.000023	-1.016846	-0.509766	-0.252197	-0.417801	-0.439515	0.233833	-0.759994	1.344583	-59.705978	121.629316	-0.264538	0.429508	0.863448	-0.840599	-0.541529	0.011837	0.472666	-0.722682	0.504299	0	0	0
13781	0	0	0	0	0	8.485611	0.142620	4.924657	0.007739	0.005434	0.000518	-1.019043	-0.517090	-0.245361	-0.417801	-0.439501	0.233800	-0.760012	1.347712	-59.702373	121.628794	-0.264563	0.429556	0.863416	-0.840578	-0.541560	0.011866	0.472689	-0.722630	0.504352	0	0	0
13782	0	0	0	0	0	8.510740	0.155062	4.945145	0.007856	0.003408	-0.001210	-1.024902	-0.507813	-0.250488	-0.417801	-0.439498	0.233767	-0.760024	1.352544	-59.699864	121.626747	-0.264567	0.429598	0.863394	-0.840558	-0.541590	0.011909	0.472722	-0.722582	0.504389	0	0	0
13783	0	0	0	0	0	8.497282	0.150324	4.965319	0.010260	0.005149	-0.000448	-1.013184	-0.512451	-0.243652	-0.417797	-0.439494	0.233722	-0.760043	1.358256	-59.696465	121.625281	-0.264583	0.429648	0.863364	-0.840525	-0.541640	0.011960	0.472772	-0.722515	0.504439	0	0	0
13784	0	0	0	0	0	8.497054	0.150770	4.965696	0.008528	0.004068	0.000941	-1.013916	-0.503906	-0.245605	-0.417788	-0.439487	0.233689	-0.760062	1.361349	-59.693606	121.625694	-0.264609	0.429683	0.863339	-0.840496	-0.541685	0.011989	0.472809	-0.722461	0.504482	0	0	0
13785	0	0	0	0	0	8.504423	0.134613	4.936776	0.008941	0.006305	0.000897	-1.015625	-0.504639	-0.246338	-0.417782	-0.439474	0.233649	-0.760085	1.364972	-59.689596	121.625899	-0.264642	0.429734	0.863304	-0.840465	-0.541733	0.012022	0.472846	-0.722395	0.504541	0	0	0
13786	0	0	0	0	0	8.497326	0.114729	4.987572	0.006950	0.006801	0.000092	-1.021729	-0.512695	-0.244873	-0.417783	-0.439455	0.233615	-0.760106	1.367928	-59.685161	121.625423	-0.264673	0.429793	0.863265	-0.840445	-0.541762	0.012050	0.472863	-0.722338	0.504607	0	0	0
13787	0	0	0	0	0	8.523434	0.125431	4.948588	0.009495	0.008993	0.004774	-1.019531	-0.503418	-0.240479	-0.417764	-0.439428	0.233576	-0.760144	1.367905	-59.679674	121.630249	-0.264753	0.429841	0.863217	-0.840401	-0.541832	0.012051	0.472898	-0.722257	0.504690	0	0	0
13788	0	0	0	0	0	8.490063	0.130290	4.958483	0.008011	0.007221	-0.003448	-1.014160	-0.510254	-0.242432	-0.417777	-0.439414	0.233529	-0.760160	1.374925	-59.674950	121.625769	-0.264757	0.429922	0.863175	-0.840386	-0.541854	0.012115	0.472923	-0.722192	0.504760	0	0	0
13789	0	0	0	0	0	8.540417	0.154781	4.999279	0.005219	0.005720	0.001480	-1.018555	-0.512451	-0.247803	-0.417772	-0.439396	0.233505	-0.760180	1.375773	-59.671389	121.627204	-0.264795	0.429961	0.863144	-0.840365	-0.541885	0.012124	0.472937	-0.722146	0.504813	0	0	0
13790	0	0	0	0	0	8.509122	0.121311	4.970203	0.008682	0.007882	-0.001299	-1.020996	-0.508057	-0.243652	-0.417776	-0.439378	0.233458	-0.760202	1.381055	-59.666316	121.625183	-0.264820	0.430036	0.863099	-0.840341	-0.541921	0.012172	0.472966	-0.722074	0.504888	0	0	0
13791	0	0	0	0	0	8.502362	0.136533	4.940273	0.005477	0.004145	0.003673	-1.017822	-0.511475	-0.240479	-0.417763	-0.439363	0.233442	-0.760223	1.379980	-59.663597	121.628624	-0.264868	0.430055	0.863075	-0.840318	-0.541957	0.012164	0.472981	-0.722036	0.504930	0	0	0
13792	0	0	0	0	0	8.488921	0.131324	4.960410	0.004806	0.003484	0.001523	-1.017334	-0.512451	-0.244629	-0.417760	-0.439350	0.233426	-0.760237	1.380383	-59.661082	121.629683	-0.264895	0.430082	0.863053	-0.840305	-0.541977	0.012168	0.472988	-0.722004	0.504967	0	0	0
13793	0	0	0	0	0	8.488778	0.131523	4.960650	0.006125	0.002328	0.000178	-1.022705	-0.513916	-0.246094	-0.417755	-0.439349	0.233402	-0.760248	1.383335	-59.659423	121.629280	-0.264906	0.430105	0.863038	-0.840285	-0.542008	0.012195	0.473019	-0.721967	0.504992	0	0	0
13794	0	0	0	0	0	8.488656	0.131900	4.960848	0.006656	0.002538	-0.001592	-1.020020	-0.509521	-0.248291	-0.417759	-0.439347	0.233374	-0.760255	1.387869	-59.657407	121.626781	-0.264903	0.430143	0.863020	-0.840271	-0.542028	0.012235	0.473045	-0.721930	0.505021	0	0	0
13795	0	0	0	0	0	8.500520	0.139095	5.001149	0.005749	0.005931	-0.000292	-1.020996	-0.499512	-0.244873	-0.417764	-0.439331	0.233344	-0.760271	1.390797	-59.653583	121.625656	-0.264924	0.430197	0.862987	-0.840258	-0.542048	0.012263	0.473056	-0.721883	0.505078	0	0	0
13796	0	0	0	0	0	8.526799	0.150123	4.961900	0.005726	0.003452	-0.005938	-1.019043	-0.511719	-0.243652	-0.417787	-0.439328	0.233308	-0.760271	1.399026	-59.650982	121.618257	-0.264889	0.430264	0.862964	-0.840260	-0.542043	0.012336	0.473071	-0.721846	0.505115	0	0	0
13797	0	0	0	0	0	8.507730	0.123827	4.972523	0.006397	0.004113	-0.003788	-1.019043	-0.501709	-0.237305	-0.417799	-0.439325	0.233273	-0.760278	1.405548	-59.648220	121.613611	-0.264876	0.430321	0.862939	-0.840251	-0.542056	0.012395	0.473095	-0.721802	0.505156	0	0	0
13798	0	0	0	0	0	8.494248	0.119023	4.992712	0.001356	0.004684	-0.001859	-1.021240	-0.512695	-0.239014	-0.417817	-0.439304	0.233260	-0.760283	1.407251	-59.644970	121.610871	-0.264881	0.430376	0.862911	-0.840263	-0.542037	0.012411	0.473071	-0.721784	0.505204	0	0	0
13799	0	0	0	0	0	8.493906	0.119377	4.993284	0.004702	0.008873	-0.002913	-1.023193	-0.509033	-0.243652	-0.417830	-0.439280	0.233219	-0.760302	1.412016	-59.639650	121.607967	-0.264902	0.430457	0.862864	-0.840252	-0.542054	0.012455	0.473080	-0.721723	0.505283	0	0	0
13800	0	0	0	0	0	8.498926	0.141524	5.003789	-0.000974	0.014622	-0.003649	-1.017822	-0.506348	-0.249023	-0.417872	-0.439219	0.233190	-0.760323	1.413894	-59.630683	121.603478	-0.264939	0.430593	0.862785	-0.840280	-0.542010	0.012475	0.473009	-0.721675	0.505418	0	0	0
13801	0	0	0	0	0	8.502432	0.165058	5.074574	-0.003459	0.020748	-0.003201	-1.019775	-0.512207	-0.246826	-0.417925	-0.439130	0.233159	-0.760356	1.413847	-59.618350	121.599693	-0.265007	0.430769	0.862676	-0.840317	-0.541951	0.012479	0.472904	-0.721614	0.505604	0	0	0
13802	0	0	0	0	0	8.458989	0.159717	4.925695	-0.003377	0.012880	-0.004412	-1.020264	-0.515625	-0.243896	-0.417973	-0.439071	0.233141	-0.760368	1.415132	-59.610369	121.594296	-0.265030	0.430896	0.862605	-0.840359	-0.541887	0.012493	0.472818	-0.721587	0.505723	0	0	0
13803	0	0	0	0	0	8.461384	0.085268	4.908642	0.005883	0.007266	-0.008178	-1.016846	-0.510254	-0.242432	-0.418007	-0.439060	0.233090	-0.760372	1.425978	-59.605718	121.584426	-0.264992	0.431001	0.862564	-0.840363	-0.541878	0.012591	0.472831	-0.721531	0.505791	0	0	0
13804	0	0	0	0	0	8.456335	0.127362	5.067879	-0.000186	0.013257	-0.003227	-1.014648	-0.508545	-0.243896	-0.418045	-0.439005	0.233062	-0.760392	1.427920	-59.597537	121.580386	-0.265026	0.431125	0.862492	-0.840386	-0.541841	0.012611	0.472771	-0.721484	0.505914	0	0	0
13805	0	0	0	0	0	8.465275	0.144486	4.898715	-0.005970	0.001483	-0.002420	-1.019531	-0.510254	-0.239990	-0.418075	-0.438985	0.233080	-0.760381	1.426372	-59.596314	121.577078	-0.265011	0.431156	0.862481	-0.840430	-0.541773	0.012598	0.472701	-0.721517	0.505932	0	0	0
13806	0	0	0	0	0	8.459911	0.122987	4.888786	0.004043	-0.011337	-0.005242	-1.012207	-0.509766	-0.241211	-0.418082	-0.439034	0.233083	-0.760347	1.433303	-59.602192	121.570063	-0.264912	0.431113	0.862533	-0.840439	-0.541759	0.012657	0.472741	-0.721553	0.505842	0	0	0
13807	0	0	0	0	0	8.440249	0.062739	5.038130	-0.006252	-0.022332	-0.004279	-1.025635	-0.515869	-0.244873	-0.418091	-0.439107	0.233147	-0.760281	1.434063	-59.614651	121.564257	-0.264770	0.430980	0.862643	-0.840486	-0.541685	0.012659	0.472737	-0.721688	0.505655	0	0	0
13808	0	0	0	0	0	8.465084	0.148036	5.014380	-0.017300	-0.026118	-0.004257	-1.018066	-0.508301	-0.244629	-0.418124	-0.439167	0.233264	-0.760193	1.428169	-59.629010	121.557935	-0.264609	0.430825	0.862770	-0.840593	-0.541521	0.012601	0.472637	-0.721904	0.505440	0	0	0
13809	0	0	0	0	0	8.479728	0.152798	4.992239	-0.013731	-0.029343	-0.002605	-1.017578	-0.513916	-0.245361	-0.418136	-0.439248	0.233376	-0.760105	1.423074	-59.645427	121.553580	-0.264447	0.430634	0.862915	-0.840674	-0.541396	0.012550	0.472583	-0.722111	0.505194	0	0	0
13810	0	0	0	0	0	8.453367	0.143751	5.089400	-0.002941	-0.023977	-0.004827	-1.019531	-0.510010	-0.243408	-0.418142	-0.439331	0.233433	-0.760036	1.425916	-59.658551	121.546670	-0.264292	0.430498	0.863030	-0.840714	-0.541333	0.012570	0.472598	-0.722240	0.504996	0	0	0
13811	0	0	0	0	0	8.495071	0.158722	4.968840	0.010438	-0.007218	-0.009038	-1.013428	-0.504639	-0.249512	-0.418152	-0.439385	0.233393	-0.760011	1.440496	-59.662177	121.535450	-0.264179	0.430503	0.863062	-0.840700	-0.541353	0.012698	0.472688	-0.722222	0.504938	0	0	0
13812	0	0	0	0	0	8.508723	0.165482	4.948277	0.018260	-0.009645	-0.009739	-1.019287	-0.511230	-0.251709	-0.418147	-0.439463	0.233328	-0.759989	1.459951	-59.667020	121.523366	-0.264050	0.430497	0.863105	-0.840653	-0.541422	0.012867	0.472843	-0.722174	0.504861	0	0	0
13813	0	0	0	0	0	8.528102	0.194111	4.936990	0.014126	-0.012469	-0.009112	-1.019775	-0.505371	-0.242920	-0.418150	-0.439541	0.233289	-0.759954	1.476557	-59.673464	121.511157	-0.263908	0.430470	0.863162	-0.840630	-0.541453	0.013011	0.472962	-0.722166	0.504760	0	0	0
13814	0	0	0	0	0	8.563446	0.117667	4.968550	0.014126	-0.012468	-0.009114	-1.011963	-0.506592	-0.242432	-0.418149	-0.439621	0.233247	-0.759922	1.493113	-59.679929	121.499689	-0.263771	0.430440	0.863219	-0.840601	-0.541495	0.013154	0.473091	-0.722153	0.504659	0	0	0
13815	0	0	0	0	0	8.536637	0.145371	4.986269	0.011346	-0.010608	-0.010344	-1.016113	-0.503174	-0.246826	-0.418158	-0.439691	0.233209	-0.759888	1.509330	-59.685486	121.487065	-0.263632	0.430427	0.863268	-0.840586	-0.541515	0.013295	0.473195	-0.722146	0.504571	0	0	0
13816	0	0	0	0	0	8.491028	0.181399	4.933946	0.017622	-0.004464	-0.012411	-1.021484	-0.516846	-0.243408	-0.418170	-0.439751	0.233130	-0.759870	1.530922	-59.687313	121.472085	-0.263505	0.430472	0.863284	-0.840549	-0.541568	0.013484	0.473331	-0.722079	0.504539	0	0	0
13817	0	0	0	0	0	8.509754	0.175178	5.004036	0.018705	-0.001564	-0.010307	-1.025146	-0.504639	-0.246826	-0.418175	-0.439801	0.233045	-0.759864	1.551178	-59.687632	121.459495	-0.263408	0.430526	0.863287	-0.840501	-0.541638	0.013663	0.473471	-0.721994	0.504529	0	0	0
13818	0	0	0	0	0	8.453479	0.130898	4.954314	0.014604	0.001450	-0.010191	-1.020264	-0.513672	-0.243652	-0.418193	-0.439830	0.232971	-0.759861	1.568710	-59.686101	121.447215	-0.263328	0.430602	0.863273	-0.840472	-0.541679	0.013818	0.473567	-0.721918	0.504548	0	0	0
13819	0	0	0	0	0	8.464676	0.175964	4.973227	0.014454	-0.002361	-0.007951	-1.013672	-0.507568	-0.249023	-0.418196	-0.439872	0.232909	-0.759854	1.584087	-59.686929	121.437507	-0.263248	0.430636	0.863280	-0.840436	-0.541730	0.013953	0.473674	-0.721859	0.504532	0	0	0
13820	0	0	0	0	0	8.465699	0.140558	4.993961	0.013924	-0.002570	-0.006181	-1.025635	-0.502441	-0.240967	-0.418196	-0.439910	0.232854	-0.759849	1.597409	-59.687761	121.429653	-0.263183	0.430661	0.863288	-0.840401	-0.541783	0.014070	0.473774	-0.721805	0.504516	0	0	0
13821	0	0	0	0	0	8.463718	0.180304	5.032595	0.014193	-0.000786	-0.010149	-1.016846	-0.507324	-0.236328	-0.418211	-0.439947	0.232786	-0.759840	1.614581	-59.687632	121.417483	-0.263092	0.430719	0.863287	-0.840374	-0.541821	0.014221	0.473872	-0.721742	0.504514	0	0	0
13822	0	0	0	0	0	8.464088	0.216447	4.951549	0.008732	-0.005815	-0.002006	-1.015625	-0.511475	-0.241943	-0.418201	-0.439982	0.232767	-0.759831	1.620930	-59.690388	121.414261	-0.263046	0.430698	0.863311	-0.840351	-0.541854	0.014276	0.473937	-0.721729	0.504471	0	0	0
13823	0	0	0	0	0	8.457657	0.197207	5.001312	0.014304	-0.006170	-0.005713	-1.013184	-0.502930	-0.249023	-0.418189	-0.440038	0.232716	-0.759821	1.634394	-59.693540	121.407288	-0.262969	0.430690	0.863339	-0.840305	-0.541922	0.014393	0.474061	-0.721683	0.504420	0	0	0
13824	0	0	0	0	0	8.438284	0.207816	4.990033	0.004458	-0.009095	-0.005295	-1.019775	-0.512207	-0.245361	-0.418198	-0.440080	0.232713	-0.759793	1.641611	-59.698120	121.400224	-0.262880	0.430663	0.863379	-0.840312	-0.541911	0.014454	0.474099	-0.721708	0.504349	0	0	0
13825	0	0	0	0	0	8.462116	0.258906	5.047943	-0.001547	-0.013457	-0.007191	-1.016113	-0.506592	-0.240479	-0.418225	-0.440128	0.232739	-0.759742	1.647382	-59.705195	121.390414	-0.262751	0.430617	0.863441	-0.840356	-0.541841	0.014502	0.474093	-0.721788	0.504241	0	0	0
13826	0	0	0	0	0	8.435438	0.285510	5.065447	-0.009661	-0.015300	-0.008165	-1.020752	-0.502930	-0.242188	-0.418269	-0.440167	0.232795	-0.759678	1.649502	-59.713281	121.379883	-0.262608	0.430561	0.863512	-0.840437	-0.541715	0.014517	0.474028	-0.721915	0.504118	0	0	0
13827	0	0	0	0	0	8.448372	0.292614	5.103998	-0.015927	-0.018088	-0.012259	-1.016113	-0.499512	-0.239990	-0.418335	-0.440211	0.232872	-0.759592	1.652052	-59.723092	121.365064	-0.262420	0.430503	0.863599	-0.840555	-0.541532	0.014535	0.473924	-0.722088	0.503970	0	0	0
13828	0	0	0	0	0	8.449311	0.292777	5.102435	-0.021521	-0.020212	-0.014203	-1.015869	-0.509521	-0.239502	-0.418422	-0.440251	0.232971	-0.759491	1.653449	-59.733891	121.347505	-0.262203	0.430444	0.863694	-0.840708	-0.541294	0.014543	0.473772	-0.722301	0.503807	0	0	0
13829	0	0	0	0	0	8.403206	0.328598	5.108869	-0.029635	-0.022052	-0.015181	-1.017090	-0.502197	-0.249512	-0.418525	-0.440285	0.233101	-0.759374	1.651211	-59.745940	121.329250	-0.261972	0.430373	0.863800	-0.840897	-0.541001	0.014518	0.473564	-0.722563	0.503626	0	0	0
13830	0	0	0	0	0	8.397953	0.343238	5.076305	-0.031274	-0.030996	-0.015011	-1.018066	-0.503174	-0.249023	-0.418624	-0.440347	0.233258	-0.759236	1.648133	-59.762903	121.310408	-0.261697	0.430240	0.863949	-0.841098	-0.540689	0.014484	0.473359	-0.722875	0.503371	0	0	0
13831	0	0	0	0	0	8.385238	0.374602	5.072796	-0.033671	-0.029376	-0.021941	-1.010254	-0.509277	-0.239258	-0.418762	-0.440403	0.233409	-0.759081	1.650129	-59.778775	121.283175	-0.261368	0.430160	0.864088	-0.841336	-0.540318	0.014494	0.473117	-0.723201	0.503131	0	0	0
13832	0	0	0	0	0	8.334120	0.388627	5.068855	-0.039819	-0.037543	-0.021613	-1.011963	-0.511230	-0.247803	-0.418897	-0.440479	0.233597	-0.758905	1.648857	-59.799378	121.256584	-0.261008	0.430016	0.864269	-0.841595	-0.539916	0.014474	0.472857	-0.723587	0.502821	0	0	0
13833	0	0	0	0	0	8.289027	0.424241	5.073733	-0.045319	-0.047521	-0.024794	-1.014404	-0.506104	-0.237793	-0.419046	-0.440586	0.233820	-0.758691	1.648234	-59.825698	121.225522	-0.260569	0.429818	0.864500	-0.841889	-0.539457	0.014457	0.472575	-0.724046	0.502424	0	0	0
13834	0	0	0	0	0	8.282886	0.477268	5.078168	-0.047216	-0.054879	-0.026841	-1.016357	-0.509766	-0.237793	-0.419197	-0.440719	0.234061	-0.758457	1.648415	-59.856144	121.192363	-0.260082	0.429575	0.864767	-0.842196	-0.538979	0.014446	0.472297	-0.724546	0.501965	0	0	0
13835	0	0	0	0	0	8.231130	0.529518	5.111026	-0.043424	-0.067971	-0.028179	-1.017578	-0.507568	-0.241211	-0.419325	-0.440914	0.234310	-0.758196	1.652737	-59.894291	121.157705	-0.259524	0.429240	0.865101	-0.842481	-0.538532	0.014467	0.472095	-0.725077	0.501388	0	0	0
13836	0	0	0	0	0	8.202766	0.567506	4.973735	-0.067452	-0.091219	-0.035337	-1.017334	-0.509521	-0.237793	-0.419510	-0.441151	0.234685	-0.757839	1.650855	-59.945408	121.113558	-0.258794	0.428779	0.865549	-0.842904	-0.537870	0.014428	0.471739	-0.725841	0.500617	0	0	0
13837	0	0	0	0	0	8.251056	0.572011	5.116066	-0.084390	-0.107199	-0.038505	-1.017090	-0.507080	-0.241211	-0.419722	-0.441420	0.235149	-0.757421	1.643110	-60.005787	121.065463	-0.257963	0.428214	0.866076	-0.843411	-0.537077	0.014334	0.471288	-0.726761	0.499707	0	0	0
13838	0	0	0	0	0	8.268780	0.612840	5.066168	-0.106682	-0.129321	-0.047128	-1.016602	-0.510254	-0.245850	-0.419993	-0.441733	0.235726	-0.756909	1.631717	-60.078538	121.006405	-0.256955	0.427537	0.866710	-0.844049	-0.536078	0.014204	0.470697	-0.727896	0.498610	0	0	0
13839	0	0	0	0	0	8.307242	0.644010	5.025039	-0.113148	-0.149967	-0.053820	-1.013428	-0.510986	-0.243164	-0.420282	-0.442118	0.236357	-0.756327	1.624104	-60.163006	120.938423	-0.255791	0.426745	0.867444	-0.844736	-0.534997	0.014101	0.470098	-0.729155	0.497334	0	0	0
13840	0	0	0	0	0	8.302740	0.600789	5.053764	-0.118246	-0.154246	-0.063352	-1.013428	-0.516113	-0.247314	-0.420609	-0.442519	0.236994	-0.755710	1.623331	-60.249777	120.859590	-0.254529	0.425968	0.868197	-0.845467	-0.533843	0.014057	0.469469	-0.730454	0.496021	0	0	0
13841	0	0	0	0	0	8.334625	0.648876	5.040430	-0.121970	-0.166417	-0.061966	-1.015137	-0.509033	-0.240967	-0.420932	-0.442955	0.237676	-0.755061	1.620011	-60.343405	120.780501	-0.253214	0.425100	0.869007	-0.846218	-0.532653	0.013988	0.468825	-0.731827	0.494603	0	0	0
13842	0	0	0	0	0	8.398774	0.559310	5.008974	-0.123728	-0.175686	-0.065958	-1.009766	-0.513184	-0.235596	-0.421255	-0.443428	0.238372	-0.754383	1.619844	-60.442416	120.697505	-0.251831	0.424174	0.869860	-0.846978	-0.531445	0.013944	0.468198	-0.733241	0.493101	0	0	0
13843	0	0	0	0	0	8.394454	0.553021	5.014589	-0.125432	-0.182504	-0.064290	-1.015625	-0.519287	-0.239014	-0.421570	-0.443920	0.239093	-0.753690	1.617851	-60.545353	120.615401	-0.250427	0.423189	0.870745	-0.847742	-0.530227	0.013883	0.467568	-0.734691	0.491538	0	0	0
13844	0	0	0	0	0	8.408916	0.573648	5.009494	-0.130042	-0.185451	-0.062086	-1.023193	-0.506836	-0.238037	-0.421880	-0.444411	0.239842	-0.752989	1.610998	-60.650022	120.536094	-0.249032	0.422165	0.871642	-0.848518	-0.528987	0.013780	0.466904	-0.736173	0.489949	0	0	0
13845	0	0	0	0	0	8.456353	0.590190	4.994269	-0.126596	-0.188988	-0.064613	-1.015381	-0.509766	-0.242188	-0.422189	-0.444924	0.240580	-0.752276	1.609304	-60.756638	120.452937	-0.247597	0.421127	0.872553	-0.849286	-0.527755	0.013720	0.466271	-0.737650	0.488327	0	0	0
13846	0	0	0	0	0	8.459801	0.567852	5.029266	-0.135246	-0.186514	-0.056544	-1.016846	-0.511719	-0.230225	-0.422488	-0.445400	0.241362	-0.751576	1.594378	-60.862014	120.379626	-0.246246	0.420058	0.873450	-0.850069	-0.526497	0.013548	0.465559	-0.739156	0.486726	0	0	0
13847	0	0	0	0	0	8.441592	0.590834	4.974009	-0.138024	-0.190368	-0.057506	-1.013184	-0.514404	-0.234863	-0.422794	-0.445884	0.242162	-0.750860	1.579335	-60.969515	120.304250	-0.244866	0.418966	0.874362	-0.850870	-0.525206	0.013375	0.464823	-0.740693	0.485091	0	0	0
13848	0	0	0	0	0	8.463591	0.594942	4.998687	-0.143425	-0.186131	-0.056143	-1.013428	-0.510498	-0.238037	-0.423108	-0.446339	0.242974	-0.750149	1.559752	-61.074698	120.231057	-0.243522	0.417891	0.875251	-0.851687	-0.523886	0.013165	0.464033	-0.742234	0.483490	0	0	0
13849	0	0	0	0	0	8.434166	0.574603	4.984185	-0.149622	-0.186350	-0.054759	-1.011230	-0.508789	-0.235596	-0.423437	-0.446777	0.243815	-0.749430	1.535669	-61.179854	120.158158	-0.242182	0.416811	0.876137	-0.852535	-0.522510	0.012919	0.463175	-0.743809	0.481889	0	0	0
13850	0	0	0	0	0	8.430597	0.565758	4.989259	-0.149510	-0.189649	-0.048850	-1.020264	-0.512207	-0.231445	-0.423732	-0.447222	0.244674	-0.748718	1.505484	-61.287193	120.093230	-0.240886	0.415664	0.877039	-0.853358	-0.521172	0.012622	0.462334	-0.745388	0.480254	0	0	0
13851	0	0	0	0	0	8.432820	0.578271	5.003996	-0.149490	-0.189536	-0.049062	-1.014893	-0.509277	-0.237061	-0.424032	-0.447665	0.245533	-0.748002	1.475777	-61.394326	120.027143	-0.239586	0.414521	0.877936	-0.854187	-0.519820	0.012331	0.461480	-0.746967	0.478620	0	0	0
13852	0	0	0	0	0	8.384346	0.567092	5.039199	-0.149455	-0.195232	-0.048887	-1.021484	-0.516113	-0.230713	-0.424319	-0.448130	0.246402	-0.747274	1.446121	-61.504894	119.961783	-0.238266	0.413326	0.878858	-0.855006	-0.518479	0.012040	0.460646	-0.748560	0.476932	0	0	0
13853	0	0	0	0	0	8.361360	0.567208	5.033849	-0.152923	-0.201125	-0.044179	-1.018555	-0.511230	-0.224854	-0.424595	-0.448599	0.247309	-0.746536	1.409932	-61.618688	119.900714	-0.236955	0.412065	0.879804	-0.855837	-0.517114	0.011696	0.459778	-0.750197	0.475193	0	0	0
13854	0	0	0	0	0	8.378170	0.547488	4.987621	-0.148170	-0.207181	-0.040309	-1.017578	-0.520508	-0.236084	-0.424831	-0.449100	0.248217	-0.745799	1.372502	-61.736257	119.845162	-0.235656	0.410728	0.880777	-0.856626	-0.515814	0.011342	0.458976	-0.751823	0.473395	0	0	0
13855	0	0	0	0	0	8.349107	0.562912	5.011281	-0.144509	-0.216083	-0.038636	-1.003906	-0.513184	-0.229492	-0.425047	-0.449636	0.249135	-0.745047	1.336115	-61.858744	119.790145	-0.234326	0.409319	0.881787	-0.857400	-0.514534	0.010998	0.458211	-0.753467	0.471519	0	0	0
13856	0	0	0	0	0	8.351934	0.574699	4.964094	-0.143972	-0.221518	-0.040303	-1.012207	-0.512939	-0.223389	-0.425254	-0.450197	0.250057	-0.744280	1.301663	-61.984559	119.734071	-0.232964	0.407866	0.882821	-0.858166	-0.513261	0.010670	0.457470	-0.755121	0.469588	0	0	0
13857	0	0	0	0	0	8.348335	0.602164	4.946449	-0.140793	-0.230646	-0.036900	-1.017822	-0.517578	-0.215088	-0.425436	-0.450791	0.250995	-0.743501	1.266278	-62.115393	119.680388	-0.231583	0.406332	0.883891	-0.858917	-0.512011	0.010335	0.456761	-0.756796	0.467578	0	0	0
13858	0	0	0	0	0	8.353212	0.613725	4.957750	-0.138809	-0.240626	-0.033920	-1.017334	-0.513184	-0.219727	-0.425582	-0.451424	0.251952	-0.742709	1.228559	-62.252266	119.631488	-0.230192	0.404693	0.885006	-0.859642	-0.510800	0.009982	0.456101	-0.758490	0.465472	0	0	0
13859	0	0	0	0	0	8.344836	0.619531	4.928669	-0.135033	-0.251474	-0.034154	-1.014160	-0.515137	-0.224121	-0.425706	-0.452107	0.252914	-0.741895	1.194224	-62.395355	119.581632	-0.228748	0.402969	0.886166	-0.860347	-0.509618	0.009657	0.455497	-0.760201	0.463267	0	0	0
13860	0	0	0	0	0	8.381553	0.627810	4.867600	-0.134331	-0.260318	-0.029829	-1.023438	-0.516846	-0.222656	-0.425800	-0.452816	0.253905	-0.741070	1.155211	-62.543585	119.537211	-0.227304	0.401151	0.887362	-0.861039	-0.508453	0.009296	0.454911	-0.761940	0.460980	0	0	0
13861	0	0	0	0	0	8.364141	0.590136	4.876969	-0.125354	-0.265501	-0.028511	-1.011963	-0.512207	-0.224854	-0.425870	-0.453557	0.254877	-0.740242	1.120509	-62.694461	119.492812	-0.225842	0.399291	0.888573	-0.861696	-0.507345	0.008971	0.454395	-0.763654	0.458648	0	0	0
13862	0	0	0	0	0	8.424370	0.551711	4.842825	-0.117121	-0.280899	-0.026980	-1.026855	-0.504883	-0.207764	-0.425886	-0.454373	0.255853	-0.739395	1.088791	-62.854536	119.451398	-0.224332	0.397291	0.889851	-0.862302	-0.506320	0.008670	0.453994	-0.765376	0.456169	0	0	0
13863	0	0	0	0	0	8.399456	0.567153	4.860897	-0.111074	-0.291840	-0.022633	-1.021240	-0.519287	-0.215576	-0.425862	-0.455233	0.256840	-0.738537	1.055950	-63.020691	119.414688	-0.222809	0.395185	0.891170	-0.862874	-0.505350	0.008361	0.453657	-0.767105	0.453592	0	0	0
13864	0	0	0	0	0	8.428453	0.532547	4.835399	-0.103643	-0.305847	-0.021566	-1.018311	-0.504395	-0.206299	-0.425793	-0.456161	0.257830	-0.737659	1.026535	-63.195136	119.379476	-0.221234	0.392956	0.892548	-0.863405	-0.504447	0.008079	0.453417	-0.768843	0.450881	0	0	0
13865	0	0	0	0	0	8.440733	0.530146	4.749881	-0.093543	-0.317772	-0.015800	-1.019531	-0.510498	-0.219238	-0.425668	-0.457144	0.258821	-0.736775	0.996978	-63.376245	119.350625	-0.219652	0.390606	0.893969	-0.863880	-0.503637	0.007797	0.453281	-0.770569	0.448062	0	0	0
13866	0	0	0	0	0	8.450160	0.505714	4.712863	-0.085287	-0.333101	-0.014486	-1.029785	-0.510254	-0.216553	-0.425494	-0.458200	0.259816	-0.735869	0.970642	-63.566388	119.323837	-0.218015	0.388120	0.895451	-0.864312	-0.502900	0.007541	0.453249	-0.772304	0.445097	0	0	0
13867	0	0	0	0	0	8.498414	0.499330	4.672771	-0.077221	-0.348303	-0.007500	-1.028564	-0.513916	-0.197998	-0.425267	-0.459311	0.260834	-0.734947	0.941046	-63.764711	119.304260	-0.216364	0.385489	0.896986	-0.864705	-0.502228	0.007260	0.453290	-0.774058	0.441999	0	0	0
13868	0	0	0	0	0	8.514893	0.496633	4.642965	-0.064877	-0.360785	-0.006908	-1.027344	-0.508057	-0.197754	-0.424979	-0.460499	0.261829	-0.734016	0.918133	-63.970795	119.286777	-0.214667	0.382739	0.898570	-0.865027	-0.501676	0.007032	0.453483	-0.775778	0.438773	0	0	0
13869	0	0	0	0	0	8.505277	0.482447	4.593268	-0.056781	-0.375946	-0.000052	-1.023926	-0.514648	-0.194824	-0.424626	-0.461750	0.262839	-0.733073	0.892394	-64.185555	119.277980	-0.212960	0.379831	0.900209	-0.865295	-0.501217	0.006782	0.453776	-0.777502	0.435405	0	0	0
13870	0	0	0	0	0	8.613610	0.485008	4.555770	-0.045196	-0.379418	-0.004062	-1.023193	-0.508057	-0.188721	-0.424255	-0.463041	0.263806	-0.732125	0.877681	-64.402345	119.263975	-0.211200	0.376909	0.901850	-0.865522	-0.500828	0.006618	0.454166	-0.779173	0.431998	0	0	0
13871	0	0	0	0	0	8.634283	0.445816	4.541881	-0.034569	-0.390995	-0.000429	-1.022461	-0.512451	-0.191895	-0.423831	-0.464392	0.264763	-0.731169	0.865586	-64.625660	119.254070	-0.209416	0.373876	0.903527	-0.865692	-0.500536	0.006474	0.454668	-0.780820	0.428482	0	0	0
13872	0	0	0	0	0	8.652131	0.444372	4.507932	-0.025185	-0.397649	0.002539	-1.028320	-0.512695	-0.191895	-0.423362	-0.465780	0.265709	-0.730214	0.854712	-64.852954	119.248550	-0.207627	0.370766	0.905220	-0.865814	-0.500326	0.006339	0.455256	-0.782436	0.424896	0	0	0
13873	0	0	0	0	0	8.711571	0.423588	4.490093	-0.016601	-0.399141	0.003092	-1.020508	-0.507080	-0.180664	-0.422873	-0.467187	0.266626	-0.729264	0.848741	-65.080766	119.242706	-0.205829	0.367644	0.906903	-0.865900	-0.500178	0.006241	0.455908	-0.784002	0.421294	0	0	0
13874	0	0	0	0	0	8.737816	0.370066	4.443785	-0.007628	-0.398435	0.003691	-1.032227	-0.500000	-0.171631	-0.422355	-0.468610	0.267509	-0.728326	0.846509	-65.308520	119.238766	-0.204041	0.364509	0.908570	-0.865940	-0.500110	0.006171	0.456634	-0.785508	0.417686	0	0	0
13875	0	0	0	0	0	8.736804	0.305357	4.379203	0.004250	-0.401531	0.003454	-1.028564	-0.504395	-0.174561	-0.421803	-0.470069	0.268352	-0.727396	0.851807	-65.537946	119.234498	-0.202236	0.361347	0.910236	-0.865923	-0.500139	0.006156	0.457469	-0.786949	0.414045	0	0	0
13876	0	0	0	0	0	8.759023	0.289968	4.313457	0.011870	-0.399633	0.011222	-1.022217	-0.500732	-0.169189	-0.421206	-0.471524	0.269183	-0.726492	0.851347	-65.766451	119.240891	-0.200501	0.358154	0.911880	-0.865859	-0.500251	0.006099	0.458353	-0.788337	0.410412	0	0	0
13877	0	0	0	0	0	8.760923	0.187914	4.267890	0.020112	-0.401471	0.007736	-1.030518	-0.499023	-0.166748	-0.420600	-0.473005	0.269977	-0.725586	0.860487	-65.995770	119.242118	-0.198724	0.354962	0.913515	-0.865763	-0.500417	0.006109	0.459307	-0.789674	0.406758	0	0	0
13878	0	0	0	0	0	8.750743	0.176296	4.214924	0.031446	-0.402773	0.016791	-1.033447	-0.499023	-0.170654	-0.419930	-0.474501	0.270754	-0.724707	0.864070	-66.226122	119.256332	-0.197016	0.351706	0.915144	-0.865598	-0.500702	0.006079	0.460353	-0.790949	0.403082	0	0	0
13879	0	0	0	0	0	8.779713	0.086167	4.186663	0.048220	-0.408210	0.018111	-1.040527	-0.498047	-0.159668	-0.419207	-0.476047	0.271483	-0.723838	0.875836	-66.459342	119.272162	-0.195290	0.348399	0.916777	-0.865353	-0.501126	0.006105	0.461547	-0.792143	0.399353	0	0	0
13880	0	0	0	0	0	8.807173	0.070393	4.179246	0.059236	-0.413624	0.025138	-1.032959	-0.505371	-0.157471	-0.418422	-0.477625	0.272200	-0.722983	0.884399	-66.695986	119.298253	-0.193594	0.345005	0.918419	-0.865043	-0.501660	0.006106	0.462841	-0.793290	0.395563	0	0	0
13881	0	0	0	0	0	8.849618	0.045592	4.119380	0.070267	-0.419024	0.032112	-1.031494	-0.499512	-0.158691	-0.417577	-0.479235	0.272901	-0.722141	0.890562	-66.935631	119.334127	-0.191926	0.341532	0.920065	-0.864667	-0.502309	0.006089	0.464237	-0.794381	0.391718	0	0	0
13882	0	0	0	0	0	8.948465	-0.007730	4.021992	0.081341	-0.424513	0.033291	-1.037842	-0.494629	-0.146973	-0.416691	-0.480884	0.273578	-0.721300	0.900576	-67.178588	119.372301	-0.190239	0.338001	0.921718	-0.864238	-0.503047	0.006096	0.465728	-0.795424	0.387812	0	0	0
13883	0	0	0	0	0	9.042199	-0.016161	4.075176	0.094439	-0.428550	0.036958	-1.038574	-0.492188	-0.136230	-0.415754	-0.482567	0.274220	-0.720473	0.913684	-67.423744	119.415567	-0.188555	0.334419	0.923369	-0.863738	-0.503904	0.006122	0.467337	-0.796395	0.383864	0	0	0
13884	0	0	0	0	0	9.101871	-0.035232	4.050962	0.101025	-0.433260	0.038489	-1.035400	-0.485107	-0.136230	-0.414786	-0.484277	0.274855	-0.719641	0.927366	-67.671766	119.461838	-0.186857	0.330783	0.925023	-0.863206	-0.504815	0.006149	0.468999	-0.797336	0.379862	0	0	0
13885	0	0	0	0	0	9.158281	-0.091120	3.986220	0.113242	-0.426359	0.045398	-1.033936	-0.492188	-0.139893	-0.413771	-0.485976	0.275442	-0.718855	0.938690	-67.915790	119.518584	-0.185242	0.327167	0.926632	-0.862600	-0.505850	0.006159	0.470752	-0.798172	0.375918	0	0	0
13886	0	0	0	0	0	9.109909	-0.142506	3.985502	0.128740	-0.419123	0.053313	-1.033447	-0.489990	-0.131348	-0.412698	-0.487666	0.275981	-0.718120	0.946044	-68.155860	119.588641	-0.183723	0.323561	0.928199	-0.861907	-0.507029	0.006143	0.472612	-0.798893	0.372032	0	0	0
13887	0	0	0	0	0	9.064651	-0.209066	3.955232	0.146703	-0.414085	0.058177	-1.032227	-0.495361	-0.129883	-0.411569	-0.489368	0.276451	-0.717429	0.956829	-68.392960	119.666381	-0.182259	0.319971	0.929731	-0.861117	-0.508370	0.006149	0.474615	-0.799486	0.368187	0	0	0
13888	0	0	0	0	0	8.972926	-0.292894	3.871782	0.161063	-0.411443	0.067630	-1.042725	-0.489258	-0.116211	-0.410373	-0.491073	0.276891	-0.716780	0.960269	-68.628775	119.760316	-0.180883	0.316347	0.931239	-0.860241	-0.509851	0.006107	0.476725	-0.799985	0.364358	0	0	0
13889	0	0	0	0	0	8.845891	-0.283566	3.855408	0.158693	-0.412686	0.071957	-1.033936	-0.484375	-0.112793	-0.409163	-0.492770	0.277346	-0.716130	0.955875	-68.865209	119.861459	-0.179526	0.312692	0.932735	-0.859364	-0.511330	0.006015	0.478816	-0.800479	0.360513	0	0	0
13890	0	0	0	0	0	8.773375	-0.504801	3.690313	0.186142	-0.404910	0.083304	-1.031494	-0.484619	-0.106445	-0.407854	-0.494477	0.277718	-0.715556	0.947932	-69.097427	119.982682	-0.178297	0.309034	0.934188	-0.858334	-0.513057	0.005902	0.481116	-0.800794	0.356731	0	0	0
13891	0	0	0	0	0	8.629504	-0.516560	3.608691	0.209888	-0.407399	0.085966	-1.041016	-0.480957	-0.106201	-0.406470	-0.496235	0.278011	-0.715012	0.949138	-69.330954	120.108879	-0.177065	0.305345	0.935635	-0.857180	-0.514983	0.005847	0.483622	-0.800972	0.352921	0	0	0
13892	0	0	0	0	0	8.587033	-0.614779	3.522629	0.221582	-0.408409	0.100120	-1.041992	-0.479248	-0.098633	-0.405004	-0.497998	0.278302	-0.714506	0.932962	-69.565326	120.260206	-0.175941	0.301568	0.937071	-0.855942	-0.517040	0.005685	0.486217	-0.801078	0.349093	0	0	0
13893	0	0	0	0	0	8.617294	-0.737238	3.435838	0.242994	-0.412392	0.107602	-1.045166	-0.480225	-0.096436	-0.403449	-0.499805	0.278538	-0.714031	0.916503	-69.801888	120.425058	-0.174847	0.297721	0.938504	-0.854580	-0.519291	0.005523	0.489001	-0.801061	0.345223	0	0	0
13894	0	0	0	0	0	8.613744	-0.845955	3.475754	0.260429	-0.415200	0.119481	-1.037598	-0.479004	-0.091797	-0.401802	-0.501637	0.278749	-0.713592	0.888338	-70.040290	120.612386	-0.173830	0.293785	0.939933	-0.853108	-0.521708	0.005292	0.491925	-0.800944	0.341318	0	0	0
13895	0	0	0	0	0	8.688197	-0.930618	3.391778	0.267730	-0.422959	0.132189	-1.036377	-0.477539	-0.084961	-0.400079	-0.503492	0.278976	-0.713166	0.842479	-70.283056	120.823033	-0.172866	0.289721	0.941371	-0.851569	-0.524219	0.004961	0.494922	-0.800785	0.337337	0	0	0
13896	0	0	0	0	0	8.943196	-1.101121	3.226591	0.283442	-0.424853	0.154702	-1.043945	-0.464600	-0.083984	-0.398230	-0.505349	0.279209	-0.712796	0.765165	-70.527160	121.075958	-0.172072	0.285517	0.942800	-0.849909	-0.526911	0.004452	0.498043	-0.800527	0.333330	0	0	0
13897	0	0	0	0	0	9.150964	-1.147733	3.126863	0.298643	-0.442309	0.169581	-1.042236	-0.461426	-0.073730	-0.396262	-0.507274	0.279455	-0.712429	0.669068	-70.781095	121.357946	-0.171299	0.281096	0.944268	-0.848137	-0.529763	0.003844	0.501319	-0.800210	0.329156	0	0	0
13898	0	0	0	0	0	9.445291	-1.241074	3.130114	0.305067	-0.471225	0.189572	-1.038818	-0.467529	-0.073486	-0.394163	-0.509283	0.279787	-0.712030	0.537837	-71.051680	121.680244	-0.170533	0.276330	0.945812	-0.846292	-0.532710	0.003048	0.504686	-0.799913	0.324701	0	0	0
13899	0	0	0	0	0	9.858113	-1.152109	3.114053	0.308508	-0.496483	0.204756	-1.048584	-0.458496	-0.065430	-0.391962	-0.511363	0.280189	-0.711595	0.377235	-71.336394	122.035391	-0.169748	0.271280	0.947414	-0.844393	-0.535719	0.002107	0.508119	-0.799632	0.320004	0	0	0
13900	0	0	0	0	0	10.169048	-1.115737	3.172835	0.323303	-0.512194	0.217082	-1.037354	-0.454102	-0.046875	-0.389654	-0.513505	0.280602	-0.711158	0.195234	-71.629944	122.421165	-0.168966	0.266030	0.949041	-0.842391	-0.538865	0.001074	0.511691	-0.799282	0.315151	0	0	0
13901	0	0	0	0	0	10.451419	-0.984847	3.292639	0.322105	-0.502895	0.226534	-1.038574	-0.450928	-0.050537	-0.387324	-0.515593	0.281019	-0.710755	-0.012544	-71.917623	122.832947	-0.168288	0.260802	0.950611	-0.840368	-0.542017	-0.000068	0.515229	-0.798874	0.310384	0	0	0
13902	0	0	0	0	0	10.581072	-0.872855	3.238889	0.320744	-0.471286	0.230009	-1.044678	-0.452393	-0.036377	-0.385026	-0.517556	0.281389	-0.710430	-0.237649	-72.186831	123.261229	-0.167781	0.255799	0.952059	-0.838337	-0.545150	-0.001269	0.518691	-0.798360	0.305912	0	0	0
13903	0	0	0	0	0	10.581403	-0.763499	3.244624	0.329308	-0.418122	0.233943	-1.040527	-0.439941	-0.041504	-0.382763	-0.519337	0.281631	-0.710257	-0.473333	-72.424907	123.705370	-0.167562	0.251197	0.953322	-0.836244	-0.548352	-0.002494	0.522129	-0.797628	0.301945	0	0	0
13904	0	0	0	0	0	10.493002	-0.749419	3.307598	0.352009	-0.357793	0.222692	-1.048340	-0.429688	-0.041260	-0.380564	-0.520959	0.281649	-0.710245	-0.683683	-72.628081	124.135833	-0.167546	0.247132	0.954387	-0.834041	-0.551691	-0.003563	0.525646	-0.796595	0.298552	0	0	0
13905	0	0	0	0	0	10.311151	-0.588198	3.453326	0.353003	-0.300835	0.209798	-1.039551	-0.440186	-0.034424	-0.378485	-0.522395	0.281516	-0.710353	-0.874730	-72.798148	124.546431	-0.167706	0.243590	0.955269	-0.831841	-0.554996	-0.004515	0.529071	-0.795389	0.295704	0	0	0
13906	0	0	0	0	0	10.046506	-0.562927	3.464920	0.357799	-0.235852	0.197789	-1.046143	-0.438477	-0.036865	-0.376525	-0.523623	0.281213	-0.710611	-1.044688	-72.930838	124.937307	-0.168096	0.240626	0.955951	-0.829624	-0.558297	-0.005352	0.532416	-0.793980	0.293477	0	0	0
13907	0	0	0	0	0	9.732164	-0.461833	3.481105	0.327906	-0.175270	0.186719	-1.045898	-0.432617	-0.029541	-0.374766	-0.524592	0.280869	-0.710961	-1.212242	-73.028484	125.307694	-0.168706	0.238205	0.956450	-0.827572	-0.561325	-0.006175	0.535408	-0.792573	0.291831	0	0	0
13908	0	0	0	0	0	9.470310	-0.606128	3.287134	0.326408	-0.127982	0.164302	-1.037109	-0.431396	-0.028564	-0.373156	-0.525420	0.280385	-0.711388	-1.339741	-73.099174	125.634968	-0.169377	0.236278	0.956809	-0.825557	-0.564278	-0.006797	0.538300	-0.791052	0.290637	0	0	0
13909	0	0	0	0	0	9.174021	-0.519851	3.105397	0.335203	-0.097966	0.154087	-1.045898	-0.431641	-0.026611	-0.371600	-0.526170	0.279783	-0.711885	-1.442713	-73.152488	125.941937	-0.170117	0.234646	0.957079	-0.823500	-0.567270	-0.007297	0.541210	-0.789396	0.289734	0	0	0
13910	0	0	0	0	0	9.027576	-0.598699	3.002747	0.320298	-0.077989	0.145844	-1.044189	-0.424805	-0.024414	-0.370139	-0.526831	0.279176	-0.712395	-1.539329	-73.194460	126.233100	-0.170893	0.233213	0.957292	-0.821528	-0.570116	-0.007767	0.543955	-0.787769	0.289020	0	0	0
13911	0	0	0	0	0	8.905273	-0.559964	3.013440	0.292317	-0.061060	0.138336	-1.047363	-0.424805	-0.012451	-0.368801	-0.527388	0.278616	-0.712896	-1.637246	-73.226574	126.508974	-0.171695	0.231956	0.957453	-0.819711	-0.572718	-0.008245	0.546438	-0.786251	0.288470	0	0	0
13912	0	0	0	0	0	8.803397	-0.472300	2.935446	0.250150	-0.064706	0.129958	-1.041748	-0.420654	-0.015625	-0.367598	-0.527892	0.278191	-0.713310	-1.744815	-73.260914	126.769493	-0.172404	0.230714	0.957626	-0.818133	-0.574963	-0.008769	0.548576	-0.784977	0.287880	0	0	0
13913	0	0	0	0	0	8.791777	-0.479645	2.872152	0.212999	-0.074497	0.117480	-1.048340	-0.417969	-0.021973	-0.366524	-0.528378	0.277882	-0.713624	-1.850820	-73.300800	127.006246	-0.172955	0.229467	0.957827	-0.816773	-0.576884	-0.009281	0.550425	-0.783932	0.287197	0	0	0
13914	0	0	0	0	0	8.759651	-0.388562	2.950127	0.160003	-0.083707	0.099520	-1.044189	-0.414551	-0.014404	-0.365640	-0.528824	0.277733	-0.713805	-1.954747	-73.346321	127.208936	-0.173305	0.228247	0.958055	-0.815734	-0.578344	-0.009775	0.551854	-0.783212	0.286419	0	0	0
13915	0	0	0	0	0	8.860785	-0.376856	3.114390	0.111945	-0.085993	0.080779	-1.043701	-0.410400	-0.016357	-0.364947	-0.529216	0.277708	-0.713879	-2.050853	-73.393276	127.374813	-0.173489	0.227121	0.958289	-0.814990	-0.579385	-0.010228	0.552895	-0.782770	0.285618	0	0	0
13916	0	0	0	0	0	8.944096	-0.367437	3.139373	0.067084	-0.080706	0.058933	-1.042480	-0.412598	-0.018555	-0.364457	-0.529538	0.277777	-0.713863	-2.131418	-73.437736	127.497480	-0.173522	0.226159	0.958511	-0.814531	-0.580022	-0.010602	0.553560	-0.782577	0.284860	0	0	0
13917	0	0	0	0	0	9.018413	-0.397002	3.128576	0.032751	-0.061026	0.039172	-1.036865	-0.409668	-0.007324	-0.364156	-0.529753	0.277878	-0.713817	-2.192216	-73.471152	127.579107	-0.173503	0.225468	0.958677	-0.814296	-0.580347	-0.010883	0.553912	-0.782535	0.284290	0	0	0
13918	0	0	0	0	0	9.113355	-0.435747	3.125784	0.015532	-0.032108	0.015713	-1.047363	-0.403809	-0.013672	-0.364025	-0.529868	0.277928	-0.713780	-2.216057	-73.488671	127.611759	-0.173452	0.225137	0.958764	-0.814198	-0.580483	-0.010990	0.554072	-0.782530	0.283992	0	0	0
13919	0	0	0	0	0	9.181795	-0.426429	3.097412	-0.017044	-0.013517	-0.016561	-1.036621	-0.415283	-0.016602	-0.364121	-0.529900	0.277974	-0.713689	-2.194482	-73.496089	127.577691	-0.173243	0.225142	0.958800	-0.814335	-0.580293	-0.010878	0.553936	-0.782670	0.283872	0	0	0
13920	0	0	0	0	0	9.279191	-0.439260	3.024168	-0.044497	0.001148	-0.043815	-1.032715	-0.404053	-0.017334	-0.364407	-0.529869	0.278020	-0.713548	-2.135248	-73.495862	127.487823	-0.172892	0.225416	0.958799	-0.814673	-0.579824	-0.010585	0.553549	-0.782938	0.283887	0	0	0
13921	0	0	0	0	0	9.326690	-0.474753	3.087742	-0.082540	0.014499	-0.069792	-1.042969	-0.407715	-0.021484	-0.364906	-0.529756	0.278107	-0.713343	-2.046359	-73.488324	127.344400	-0.172404	0.225949	0.958762	-0.815264	-0.579000	-0.010149	0.552830	-0.783394	0.284029	0	0	0
13922	0	0	0	0	0	9.249622	-0.536782	3.049733	-0.111743	0.039290	-0.094091	-1.031006	-0.402100	-0.018066	-0.365603	-0.529536	0.278190	-0.713118	-1.926155	-73.467175	127.150738	-0.171853	0.226812	0.958657	-0.816058	-0.577890	-0.009565	0.551829	-0.783964	0.284404	0	0	0
13923	0	0	0	0	0	9.202395	-0.533005	3.115743	-0.138759	0.065607	-0.116115	-1.033203	-0.412354	-0.027588	-0.366486	-0.529202	0.278261	-0.712884	-1.777552	-73.431050	126.911373	-0.171266	0.228011	0.958477	-0.817037	-0.576518	-0.008846	0.550562	-0.784626	0.285032	0	0	0
13924	0	0	0	0	0	9.205353	-0.544554	3.173440	-0.162025	0.094443	-0.137398	-1.038330	-0.411621	-0.020264	-0.367546	-0.528752	0.278307	-0.712654	-1.601038	-73.378761	126.628820	-0.170662	0.229555	0.958217	-0.818177	-0.574910	-0.007992	0.549054	-0.785355	0.285932	0	0	0
13925	0	0	0	0	0	9.134993	-0.546444	3.208419	-0.182233	0.119863	-0.154219	-1.041016	-0.406982	-0.037598	-0.368754	-0.528197	0.278332	-0.712432	-1.403962	-73.311709	126.312718	-0.170057	0.231396	0.957881	-0.819453	-0.573103	-0.007036	0.547336	-0.786135	0.287079	0	0	0
13926	0	0	0	0	0	9.056656	-0.628356	3.333109	-0.196231	0.143667	-0.177058	-1.037598	-0.409424	-0.029785	-0.370113	-0.527562	0.278304	-0.712209	-1.172863	-73.231171	125.952506	-0.169389	0.233551	0.957477	-0.820841	-0.571126	-0.005905	0.545461	-0.786936	0.288450	0	0	0
13927	0	0	0	0	0	8.989352	-0.630029	3.452759	-0.215088	0.171975	-0.191935	-1.030762	-0.405273	-0.029053	-0.371614	-0.526810	0.278249	-0.712006	-0.926232	-73.133934	125.564685	-0.168749	0.236013	0.956986	-0.822351	-0.568962	-0.004690	0.543381	-0.787769	0.290098	0	0	0
13928	0	0	0	0	0	8.896334	-0.714505	3.522627	-0.233569	0.196852	-0.206733	-1.031494	-0.409424	-0.038818	-0.373248	-0.525955	0.278175	-0.711812	-0.665718	-73.022274	125.150998	-0.168114	0.238750	0.956418	-0.823980	-0.566609	-0.003393	0.541105	-0.788640	0.291980	0	0	0
13929	0	0	0	0	0	8.805847	-0.723668	3.609732	-0.256551	0.216949	-0.220744	-1.030762	-0.415771	-0.029541	-0.375021	-0.525002	0.278106	-0.711611	-0.396286	-72.898394	124.714008	-0.167465	0.241725	0.955785	-0.825750	-0.564033	-0.002034	0.538602	-0.789580	0.294060	0	0	0
13930	0	0	0	0	0	8.719315	-0.769833	3.718925	-0.279686	0.235250	-0.229268	-1.027832	-0.416504	-0.043457	-0.376907	-0.523951	0.278063	-0.711405	-0.129500	-72.763677	124.265554	-0.166833	0.244884	0.955091	-0.827650	-0.561244	-0.000670	0.535875	-0.790593	0.296313	0	0	0
13931	0	0	0	0	0	8.662024	-0.822552	3.812142	-0.306916	0.245273	-0.236866	-1.028809	-0.411133	-0.051270	-0.378904	-0.522819	0.278076	-0.711172	0.130095	-72.622365	123.807991	-0.166182	0.248166	0.954357	-0.829699	-0.558211	0.000678	0.532900	-0.791716	0.298668	0	0	0
13932	0	0	0	0	0	8.643041	-0.876752	3.866296	-0.330224	0.244768	-0.247139	-1.022217	-0.421631	-0.048828	-0.380996	-0.521658	0.278145	-0.710880	0.389205	-72.480947	123.336549	-0.165429	0.251492	0.953617	-0.831878	-0.554955	0.002045	0.529729	-0.792954	0.301016	0	0	0
13933	0	0	0	0	0	8.659256	-0.973541	3.924048	-0.361285	0.241165	-0.248182	-1.025146	-0.415527	-0.063721	-0.383166	-0.520448	0.278326	-0.710530	0.626667	-72.340705	122.868795	-0.164637	0.254794	0.952877	-0.834209	-0.551438	0.003318	0.526298	-0.794353	0.303338	0	0	0
13934	0	0	0	0	0	8.666443	-1.059233	4.033101	-0.374569	0.238107	-0.254237	-1.019287	-0.421143	-0.063477	-0.385384	-0.519229	0.278543	-0.710137	0.861910	-72.201859	122.395003	-0.163761	0.258095	0.952139	-0.836606	-0.547786	0.004598	0.522756	-0.795812	0.305630	0	0	0
13935	0	0	0	0	0	8.680696	-1.106951	4.179117	-0.382632	0.231003	-0.262712	-1.026123	-0.424316	-0.067627	-0.387641	-0.518027	0.278778	-0.709694	1.102198	-72.066105	121.910678	-0.162765	0.261385	0.951412	-0.839042	-0.544034	0.005923	0.519149	-0.797311	0.307863	0	0	0
13936	0	0	0	0	0	8.731791	-1.167936	4.175019	-0.391848	0.230686	-0.269788	-1.017334	-0.417480	-0.074219	-0.389944	-0.516816	0.279027	-0.709217	1.344336	-71.930119	121.418497	-0.161691	0.264699	0.950679	-0.841521	-0.540175	0.007277	0.515460	-0.798840	0.310091	0	0	0
13937	0	0	0	0	0	8.800308	-1.171924	4.297846	-0.388400	0.225732	-0.277285	-1.018799	-0.426514	-0.083008	-0.392255	-0.515633	0.279251	-0.708715	1.596028	-71.795880	120.917918	-0.160516	0.268012	0.949950	-0.843977	-0.536309	0.008701	0.511798	-0.800339	0.312282	0	0	0
13938	0	0	0	0	0	8.882770	-1.207307	4.418158	-0.388894	0.214386	-0.281976	-1.009033	-0.433105	-0.085449	-0.394565	-0.514496	0.279486	-0.708167	1.850943	-71.667696	120.413314	-0.159225	0.271247	0.949248	-0.846425	-0.532411	0.010159	0.508146	-0.801850	0.314364	0	0	0
13939	0	0	0	0	0	8.859340	-1.210101	4.476198	-0.384900	0.202291	-0.287357	-1.011230	-0.427002	-0.086914	-0.396865	-0.513410	0.279714	-0.707579	2.112545	-71.545265	119.903630	-0.157816	0.274411	0.948574	-0.848844	-0.528515	0.011669	0.504538	-0.803349	0.316340	0	0	0
13940	0	0	0	0	0	8.857219	-1.233069	4.427793	-0.357746	0.183180	-0.297713	-1.005127	-0.429932	-0.093262	-0.399102	-0.512459	0.279857	-0.706953	2.403997	-71.433121	119.378606	-0.156206	0.277463	0.947953	-0.851124	-0.524795	0.013356	0.501187	-0.804739	0.318131	0	0	0
13941	0	0	0	0	0	8.804289	-1.240440	4.387684	-0.334731	0.168903	-0.297795	-1.003906	-0.434570	-0.100342	-0.401259	-0.511599	0.279944	-0.706321	2.704542	-71.327903	118.857450	-0.154515	0.280396	0.947366	-0.853273	-0.521246	0.015107	0.498046	-0.806028	0.319795	0	0	0
13942	0	0	0	0	0	8.874475	-1.250526	4.394751	-0.265918	0.153674	-0.296480	-1.003174	-0.432373	-0.097412	-0.403210	-0.510929	0.279821	-0.705743	3.039464	-71.230900	118.341433	-0.152745	0.283188	0.946823	-0.855063	-0.518243	0.017061	0.495516	-0.806987	0.321302	0	0	0
13943	0	0	0	0	0	8.940066	-1.210170	4.493214	-0.217146	0.137991	-0.296705	-1.005127	-0.436768	-0.113525	-0.405015	-0.510408	0.279556	-0.705191	3.399253	-71.141450	117.828225	-0.150892	0.285851	0.946319	-0.856602	-0.515622	0.019166	0.493422	-0.807727	0.322664	0	0	0
13944	0	0	0	0	0	9.086798	-1.243859	4.577231	-0.192074	0.138353	-0.292108	-0.992188	-0.438965	-0.111084	-0.406738	-0.509931	0.279212	-0.704681	3.762157	-71.051323	117.326790	-0.149068	0.288483	0.945810	-0.857999	-0.513209	0.021307	0.491545	-0.808328	0.324021	0	0	0
13945	0	0	0	0	0	9.222676	-1.266543	4.714288	-0.157405	0.133941	-0.282798	-0.987793	-0.450684	-0.104492	-0.408333	-0.509522	0.278778	-0.704226	4.125171	-70.962623	116.845783	-0.147302	0.291030	0.945306	-0.859205	-0.511093	0.023464	0.489968	-0.808755	0.325340	0	0	0
13946	0	0	0	0	0	9.312937	-1.253695	4.870222	-0.120728	0.136646	-0.270930	-0.987549	-0.440186	-0.120361	-0.409795	-0.509164	0.278239	-0.703849	4.486064	-70.872334	116.389191	-0.145640	0.293529	0.944791	-0.860206	-0.509302	0.025630	0.488707	-0.808982	0.326670	0	0	0
13947	0	0	0	0	0	9.314046	-1.196959	4.921574	-0.092278	0.145112	-0.257501	-0.988281	-0.445313	-0.117188	-0.411149	-0.508810	0.277616	-0.703561	4.835341	-70.776450	115.961664	-0.144138	0.296029	0.944241	-0.861044	-0.507772	0.027754	0.487675	-0.809033	0.328083	0	0	0
13948	0	0	0	0	0	9.226499	-1.230360	4.858510	-0.062607	0.156366	-0.241740	-0.990723	-0.446289	-0.123779	-0.412385	-0.508459	0.276905	-0.703372	5.171263	-70.674553	115.566272	-0.142816	0.298531	0.943654	-0.861709	-0.506525	0.029828	0.486889	-0.808896	0.329587	0	0	0
13949	0	0	0	0	0	9.247298	-1.186553	4.726112	-0.020324	0.155434	-0.220336	-0.983643	-0.447021	-0.119629	-0.413438	-0.508163	0.276101	-0.703284	5.492067	-70.573091	115.212065	-0.141679	0.300919	0.943067	-0.862137	-0.505675	0.031833	0.486464	-0.808542	0.331077	0	0	0
13950	0	0	0	0	0	9.277981	-1.073674	4.754241	0.015935	0.156041	-0.208231	-0.987549	-0.447266	-0.125488	-0.414355	-0.507927	0.275198	-0.703269	5.811532	-70.471800	114.881368	-0.140641	0.303244	0.942477	-0.862366	-0.505152	0.033847	0.486359	-0.808000	0.332553	0	0	0
13951	0	0	0	0	0	9.381952	-0.854104	4.870616	0.042820	0.152025	-0.198769	-0.978027	-0.447510	-0.124023	-0.415165	-0.507742	0.274234	-0.703301	6.127498	-70.372236	114.570214	-0.139673	0.305492	0.941895	-0.862452	-0.504868	0.035855	0.486486	-0.807331	0.333989	0	0	0
13952	0	0	0	0	0	9.621527	-0.725409	5.044456	0.071533	0.139735	-0.188710	-0.979736	-0.445801	-0.129639	-0.415848	-0.507649	0.273218	-0.703359	6.444068	-70.280242	114.276019	-0.138724	0.307584	0.941354	-0.862379	-0.504844	0.037870	0.486885	-0.806551	0.335288	0	0	0
13953	0	0	0	0	0	9.710740	-0.665078	5.162833	0.093332	0.126435	-0.178695	-0.972900	-0.440186	-0.137451	-0.416424	-0.507630	0.272179	-0.703436	6.755751	-70.195394	113.999778	-0.137807	0.309522	0.940854	-0.862187	-0.505020	0.039857	0.487486	-0.805699	0.336461	0	0	0
13954	0	0	0	0	0	9.859660	-0.656954	5.098848	0.121202	0.117440	-0.166903	-0.969482	-0.454590	-0.135010	-0.416873	-0.507688	0.271090	-0.703548	7.065297	-70.116510	113.742991	-0.136940	0.311322	0.940386	-0.861838	-0.505455	0.041833	0.488347	-0.804732	0.337526	0	0	0
13955	0	0	0	0	0	9.980867	-0.602164	5.009047	0.165326	0.118089	-0.148495	-0.967529	-0.450195	-0.143555	-0.417147	-0.507805	0.269891	-0.703762	7.367633	-70.037548	113.520257	-0.136245	0.313040	0.939917	-0.861248	-0.506295	0.043780	0.489580	-0.803537	0.338586	0	0	0
13956	0	0	0	0	0	10.183968	-0.492530	4.995479	0.202964	0.098824	-0.131862	-0.966064	-0.442871	-0.136475	-0.417238	-0.508051	0.268641	-0.704009	7.668859	-69.970945	113.321928	-0.135593	0.314513	0.939519	-0.860445	-0.507489	0.045705	0.491170	-0.802208	0.339433	0	0	0
13957	0	0	0	0	0	10.407040	-0.434451	5.027419	0.243608	0.064483	-0.108466	-0.959961	-0.445068	-0.137939	-0.417099	-0.508464	0.267379	-0.704274	7.961427	-69.924716	113.157129	-0.134986	0.315598	0.939242	-0.859409	-0.509073	0.047543	0.493148	-0.800776	0.339946	0	0	0
13958	0	0	0	0	0	10.505495	-0.348316	5.146685	0.298275	0.018952	-0.092454	-0.965088	-0.445068	-0.145020	-0.416701	-0.509134	0.266059	-0.704525	8.270992	-69.905902	113.007955	-0.134285	0.316233	0.939130	-0.858072	-0.511145	0.049423	0.495661	-0.799204	0.339989	0	0	0
13959	0	0	0	0	0	10.371996	-0.366647	5.079717	0.357074	-0.021545	-0.069603	-0.965332	-0.444580	-0.139893	-0.416161	-0.509978	0.264776	-0.704717	8.586314	-69.910852	112.865143	-0.133464	0.316492	0.939159	-0.856612	-0.513406	0.051282	0.498400	-0.797651	0.339632	0	0	0
13960	0	0	0	0	0	10.108348	-0.321315	4.454041	0.417279	-0.049301	-0.042798	-0.962646	-0.452393	-0.132080	-0.415192	-0.511068	0.263304	-0.705050	8.902876	-69.934454	112.781122	-0.132850	0.316330	0.939301	-0.854595	-0.516573	0.053097	0.502014	-0.795668	0.338961	0	0	0
13961	0	0	0	0	0	10.036390	-0.218156	3.731823	0.473928	-0.069876	-0.021190	-0.961426	-0.444336	-0.132568	-0.414116	-0.512257	0.261832	-0.705368	9.222399	-69.970643	112.705070	-0.132201	0.315959	0.939517	-0.852460	-0.519903	0.054892	0.505801	-0.793644	0.338074	0	0	0
13962	0	0	0	0	0	10.089769	0.202344	3.196802	0.499496	-0.108787	-0.006457	-0.961426	-0.445557	-0.127930	-0.412726	-0.513674	0.260283	-0.705726	9.545945	-70.030943	112.663787	-0.131593	0.315142	0.939877	-0.849945	-0.523819	0.056636	0.510174	-0.791391	0.336784	0	0	0
13963	0	0	0	0	0	10.218676	0.713712	3.062631	0.508446	-0.136694	-0.008241	-0.955811	-0.446533	-0.133789	-0.411417	-0.515150	0.258853	-0.705941	9.884333	-70.105922	112.589971	-0.130714	0.314175	0.940323	-0.847567	-0.527463	0.058413	0.514338	-0.789352	0.335231	0	0	0
