// General information: 
//  MT Manager version: 2022.2.0 
//  XDA version: 2022.2.0 build 7381 rev 124627 built on 2023-07-19
// Device information: 
//  DeviceId: 10B426F5
//  ProductCode: MTW2-3A7G6
//  Firmware Version: 4.14.0
//  Hardware Version: 3.0.0
// Device settings: 
//  Filter Profile: human(46.1)
//  Option Flags: Orientation Smoother Disabled, Position/Velocity Smoother Disabled, Continuous Zero Rotation Update Disabled, AHS Disabled, ICC Disabled
// Coordinate system: ENU
PacketCounter	SampleTimeFine	Year	Month	Day	Second	Acc_X	Acc_Y	Acc_Z	Gyr_X	Gyr_Y	Gyr_Z	Mag_X	Mag_Y	Mag_Z	Quat_q0	Quat_q1	Quat_q2	Quat_q3	Roll	Pitch	Yaw	Mat[1][1]	Mat[2][1]	Mat[3][1]	Mat[1][2]	Mat[2][2]	Mat[3][2]	Mat[1][3]	Mat[2][3]	Mat[3][3]	Vel_E	Vel_N	Vel_U
13511	0	0	0	0	0	9.733428	-0.586196	-1.162116	-0.000967	-0.001414	-0.007923	-0.615723	0.651855	0.598389	0.230021	-0.715317	-0.219005	-0.622454	-154.680577	-82.417130	11.789517	0.129176	0.026962	0.991255	0.599671	-0.798254	-0.056435	0.789752	0.601717	-0.119284	0	0	0
13512	0	0	0	0	0	9.733460	-0.585537	-1.162182	-0.000029	0.000118	-0.005513	-0.609131	0.648926	0.603027	0.230003	-0.715307	-0.218989	-0.622477	-154.680529	-82.419838	11.786476	0.129132	0.026945	0.991261	0.599632	-0.798285	-0.056415	0.789789	0.601677	-0.119241	0	0	0
13513	0	0	0	0	0	9.713977	-0.576234	-1.150537	0.007930	-0.003971	-0.006929	-0.620361	0.647705	0.604248	0.230009	-0.715298	-0.219009	-0.622478	-154.687334	-82.420790	11.795543	0.129111	0.026962	0.991263	0.599666	-0.798261	-0.056393	0.789767	0.601708	-0.119233	0	0	0
13514	0	0	0	0	0	9.713990	-0.575532	-1.150773	0.012418	-0.002112	-0.009931	-0.616455	0.650635	0.603027	0.230020	-0.715276	-0.219050	-0.622485	-154.701467	-82.423424	11.814002	0.129058	0.026995	0.991270	0.599731	-0.798216	-0.056345	0.789726	0.601766	-0.119206	0	0	0
13515	0	0	0	0	0	9.746535	-0.564137	-1.155745	0.015632	-0.007600	-0.010035	-0.611816	0.647461	0.601074	0.230038	-0.715265	-0.219110	-0.622470	-154.723929	-82.423445	11.843217	0.129044	0.027060	0.991270	0.599828	-0.798146	-0.056298	0.789654	0.601856	-0.119228	0	0	0
13516	0	0	0	0	0	9.713944	-0.574172	-1.151839	0.012080	-0.007926	-0.004623	-0.613281	0.651123	0.601318	0.230058	-0.715268	-0.219138	-0.622450	-154.728285	-82.421768	11.851618	0.129068	0.027085	0.991266	0.599883	-0.798104	-0.056301	0.789608	0.601911	-0.119258	0	0	0
13517	0	0	0	0	0	9.733705	-0.566464	-1.125144	0.015147	-0.006801	-0.007901	-0.610840	0.646729	0.601318	0.230082	-0.715259	-0.219185	-0.622435	-154.740280	-82.421477	11.869731	0.129065	0.027127	0.991265	0.599970	-0.798040	-0.056278	0.789543	0.601993	-0.119274	0	0	0
13518	0	0	0	0	0	9.713852	-0.573215	-1.153091	0.017563	-0.007783	-0.006388	-0.611572	0.653320	0.599121	0.230115	-0.715252	-0.219236	-0.622412	-154.748097	-82.420305	11.884793	0.129078	0.027165	0.991262	0.600071	-0.797965	-0.056271	0.789464	0.602091	-0.119300	0	0	0
13519	0	0	0	0	0	9.746349	-0.562412	-1.158150	0.009379	-0.003354	-0.001145	-0.621338	0.646729	0.610107	0.230144	-0.715247	-0.219238	-0.622407	-154.730354	-82.420110	11.869706	0.129088	0.027132	0.991262	0.600105	-0.797937	-0.056309	0.789436	0.602130	-0.119286	0	0	0
13520	0	0	0	0	0	9.726832	-0.553501	-1.146591	0.011025	-0.002963	-0.004697	-0.610840	0.649414	0.612305	0.230165	-0.715235	-0.219257	-0.622407	-154.726474	-82.421022	11.869188	0.129073	0.027127	0.991264	0.600152	-0.797901	-0.056310	0.789403	0.602178	-0.119268	0	0	0
13521	0	0	0	0	0	9.732766	-0.537720	-1.198976	0.006763	-0.005163	-0.005517	-0.614258	0.653076	0.614502	0.230154	-0.715238	-0.219255	-0.622407	-154.732971	-82.420809	11.874679	0.129074	0.027141	0.991264	0.600139	-0.797912	-0.056298	0.789413	0.602163	-0.119278	0	0	0
13522	0	0	0	0	0	9.752578	-0.529978	-1.171880	0.005709	-0.000200	-0.005589	-0.621338	0.647949	0.603027	0.230157	-0.715223	-0.219258	-0.622423	-154.730535	-82.423371	11.872544	0.129031	0.027127	0.991269	0.600145	-0.797908	-0.056284	0.789415	0.602168	-0.119235	0	0	0
13523	0	0	0	0	0	9.700548	-0.531379	-1.155638	0.006024	-0.003905	-0.005070	-0.610107	0.655273	0.596924	0.230153	-0.715221	-0.219258	-0.622426	-154.732738	-82.423847	11.874520	0.129022	0.027129	0.991270	0.600143	-0.797911	-0.056276	0.789418	0.602165	-0.119230	0	0	0
13524	0	0	0	0	0	9.739526	-0.548116	-1.179736	0.003891	-0.006515	-0.011579	-0.618896	0.651367	0.601074	0.230123	-0.715220	-0.219283	-0.622429	-154.766291	-82.424600	11.907641	0.128994	0.027201	0.991272	0.600143	-0.797916	-0.056201	0.789423	0.602154	-0.119251	0	0	0
13525	0	0	0	0	0	9.713214	-0.526514	-1.188720	0.010401	-0.008201	-0.006589	-0.613281	0.653564	0.608154	0.230141	-0.715219	-0.219322	-0.622410	-154.777561	-82.423391	11.923740	0.129007	0.027242	0.991269	0.600211	-0.797866	-0.056186	0.789370	0.602219	-0.119281	0	0	0
13526	0	0	0	0	0	9.765700	-0.567623	-1.172892	0.001339	-0.008554	-0.004923	-0.622314	0.655029	0.601563	0.230120	-0.715235	-0.219317	-0.622401	-154.790377	-82.421460	11.934466	0.129034	0.027273	0.991265	0.600181	-0.797889	-0.056174	0.789387	0.602187	-0.119324	0	0	0
13527	0	0	0	0	0	9.739904	-0.589869	-1.148748	0.011762	-0.004219	-0.005148	-0.618896	0.654053	0.597900	0.230147	-0.715224	-0.219346	-0.622394	-154.788841	-82.421894	11.937596	0.129026	0.027278	0.991266	0.600247	-0.797840	-0.056174	0.789339	0.602252	-0.119315	0	0	0
13528	0	0	0	0	0	9.746116	-0.558251	-1.162114	0.013016	-0.006391	-0.002219	-0.611328	0.656250	0.611572	0.230179	-0.715223	-0.219366	-0.622377	-154.780462	-82.420425	11.933691	0.129052	0.027275	0.991263	0.600306	-0.797793	-0.056202	0.789289	0.602314	-0.119330	0	0	0
13529	0	0	0	0	0	9.726588	-0.549307	-1.150671	0.008863	-0.002438	-0.004526	-0.617676	0.656494	0.609863	0.230198	-0.715211	-0.219379	-0.622379	-154.774413	-82.421493	11.930365	0.129036	0.027264	0.991265	0.600344	-0.797764	-0.056207	0.789263	0.602353	-0.119308	0	0	0
13530	0	0	0	0	0	9.726576	-0.548955	-1.150938	0.011761	-0.004219	-0.005150	-0.614746	0.657715	0.599365	0.230219	-0.715202	-0.219403	-0.622373	-154.774185	-82.421865	11.933958	0.129028	0.027270	0.991266	0.600398	-0.797724	-0.056205	0.789224	0.602406	-0.119302	0	0	0
13531	0	0	0	0	0	9.719747	-0.536567	-1.171565	0.009918	-0.007401	-0.004455	-0.621094	0.641357	0.598389	0.230239	-0.715203	-0.219427	-0.622356	-154.776068	-82.420379	11.939734	0.129050	0.027289	0.991263	0.600451	-0.797683	-0.056212	0.789180	0.602459	-0.119327	0	0	0
13532	0	0	0	0	0	9.745965	-0.556990	-1.163982	0.004918	-0.008345	-0.004825	-0.616943	0.651367	0.596680	0.230232	-0.715214	-0.219433	-0.622343	-154.786063	-82.418533	11.949684	0.129077	0.027318	0.991258	0.600450	-0.797685	-0.056205	0.789176	0.602456	-0.119365	0	0	0
13533	0	0	0	0	0	9.706250	-0.571341	-1.219241	0.005117	-0.005553	-0.001968	-0.617920	0.652100	0.609375	0.230244	-0.715215	-0.219436	-0.622337	-154.779490	-82.417922	11.944390	0.129090	0.027308	0.991257	0.600466	-0.797671	-0.056223	0.789162	0.602474	-0.119368	0	0	0
13534	0	0	0	0	0	9.726034	-0.563934	-1.192329	0.003638	-0.003038	-0.001072	-0.614258	0.645996	0.605469	0.230250	-0.715216	-0.219418	-0.622340	-154.765868	-82.417910	11.929776	0.129097	0.027275	0.991257	0.600450	-0.797681	-0.056251	0.789173	0.602462	-0.119355	0	0	0
13535	0	0	0	0	0	9.706505	-0.555010	-1.180886	0.004859	-0.005097	-0.003657	-0.615967	0.652588	0.606934	0.230244	-0.715221	-0.219410	-0.622339	-154.765502	-82.417397	11.928235	0.129106	0.027273	0.991256	0.600433	-0.797694	-0.056256	0.789184	0.602446	-0.119363	0	0	0
13536	0	0	0	0	0	9.732767	-0.575729	-1.172834	0.000258	-0.000457	0.001689	-0.618652	0.652344	0.605713	0.230249	-0.715220	-0.219370	-0.622352	-154.738331	-82.418047	11.897997	0.129109	0.027203	0.991257	0.600387	-0.797725	-0.056308	0.789218	0.602408	-0.119326	0	0	0
13537	0	0	0	0	0	9.739300	-0.528375	-1.146960	0.005374	-0.006010	-0.000279	-0.614502	0.650879	0.601807	0.230261	-0.715229	-0.219358	-0.622342	-154.725424	-82.416302	11.885158	0.129145	0.027180	0.991253	0.600385	-0.797724	-0.056347	0.789215	0.602410	-0.119341	0	0	0
13538	0	0	0	0	0	9.719413	-0.535762	-1.174698	0.003895	-0.003495	0.000617	-0.610840	0.649658	0.600830	0.230272	-0.715233	-0.219336	-0.622341	-154.705928	-82.415638	11.864766	0.129166	0.027137	0.991252	0.600369	-0.797733	-0.056393	0.789223	0.602400	-0.119332	0	0	0
13539	0	0	0	0	0	9.738844	-0.544684	-1.186934	0.007052	-0.005732	0.001682	-0.619141	0.645508	0.611572	0.230298	-0.715240	-0.219323	-0.622328	-154.683302	-82.413543	11.843265	0.129212	0.027096	0.991247	0.600379	-0.797720	-0.056455	0.789208	0.602418	-0.119342	0	0	0
13540	0	0	0	0	0	9.739120	-0.528578	-1.148394	0.007756	-0.006878	-0.004282	-0.615234	0.652832	0.603271	0.230304	-0.715245	-0.219334	-0.622316	-154.686875	-82.412325	11.848376	0.129230	0.027111	0.991244	0.600400	-0.797705	-0.056457	0.789189	0.602439	-0.119365	0	0	0
13541	0	0	0	0	0	9.745524	-0.556321	-1.167992	-0.000142	-0.006042	-0.004025	-0.610596	0.647217	0.599121	0.230279	-0.715257	-0.219315	-0.622318	-154.692690	-82.411478	11.850376	0.129243	0.027119	0.991242	0.600347	-0.797745	-0.056451	0.789227	0.602385	-0.119384	0	0	0
13542	0	0	0	0	0	9.712402	-0.523313	-1.196735	0.002159	-0.000523	-0.000176	-0.615479	0.653076	0.614746	0.230285	-0.715253	-0.219287	-0.622331	-154.671821	-82.412546	11.827595	0.129236	0.027064	0.991244	0.600318	-0.797764	-0.056487	0.789251	0.602362	-0.119347	0	0	0
13543	0	0	0	0	0	9.731869	-0.531788	-1.208866	0.001759	-0.006109	-0.005891	-0.618896	0.654297	0.605469	0.230260	-0.715263	-0.219277	-0.622331	-154.683171	-82.411926	11.835999	0.129243	0.027085	0.991243	0.600278	-0.797795	-0.056468	0.789280	0.602319	-0.119368	0	0	0
13544	0	0	0	0	0	9.764942	-0.563950	-1.180945	-0.004976	-0.004082	-0.007051	-0.622314	0.654297	0.605469	0.230216	-0.715270	-0.219256	-0.622347	-154.699665	-82.412835	11.846786	0.129222	0.027106	0.991245	0.600202	-0.797856	-0.056427	0.789341	0.602239	-0.119370	0	0	0
13545	0	0	0	0	0	9.725582	-0.562037	-1.196906	-0.004202	-0.005452	-0.001984	-0.612793	0.652588	0.602783	0.230194	-0.715283	-0.219226	-0.622351	-154.697730	-82.411985	11.840510	0.129239	0.027095	0.991243	0.600140	-0.797901	-0.056437	0.789385	0.602179	-0.119381	0	0	0
13546	0	0	0	0	0	9.719660	-0.577165	-1.145316	-0.001362	-0.003983	-0.001441	-0.613037	0.657471	0.603027	0.230180	-0.715292	-0.219196	-0.622356	-154.690156	-82.411571	11.829106	0.129252	0.027071	0.991242	0.600086	-0.797941	-0.056456	0.789425	0.602127	-0.119380	0	0	0
13547	0	0	0	0	0	9.725479	-0.561624	-1.197934	-0.001304	-0.007232	-0.002609	-0.610840	0.655273	0.609131	0.230164	-0.715309	-0.219176	-0.622350	-154.690900	-82.409662	11.826910	0.129285	0.027072	0.991238	0.600043	-0.797972	-0.056468	0.789452	0.602086	-0.119411	0	0	0
13548	0	0	0	0	0	9.758909	-0.578183	-1.130755	0.007640	-0.000379	-0.001947	-0.611084	0.652588	0.610352	0.230184	-0.715296	-0.219172	-0.622359	-154.673510	-82.411239	11.810807	0.129266	0.027031	0.991241	0.600060	-0.797958	-0.056493	0.789442	0.602107	-0.119369	0	0	0
13549	0	0	0	0	0	9.713119	-0.548423	-1.127359	0.007439	-0.003172	-0.004805	-0.614990	0.648926	0.610840	0.230186	-0.715293	-0.219170	-0.622362	-154.671222	-82.411637	11.808501	0.129260	0.027024	0.991242	0.600059	-0.797958	-0.056495	0.789443	0.602107	-0.119360	0	0	0
13550	0	0	0	0	0	9.732250	-0.572847	-1.178522	0.003121	-0.002125	-0.004451	-0.617188	0.651367	0.604004	0.230180	-0.715288	-0.219162	-0.622373	-154.669365	-82.412922	11.805456	0.129240	0.027012	0.991245	0.600044	-0.797970	-0.056489	0.789458	0.602091	-0.119338	0	0	0
13551	0	0	0	0	0	9.738480	-0.541021	-1.191588	0.007862	-0.000724	-0.005774	-0.612061	0.647949	0.599609	0.230185	-0.715273	-0.219168	-0.622386	-154.667230	-82.415211	11.804187	0.129202	0.027002	0.991251	0.600058	-0.797961	-0.056477	0.789454	0.602105	-0.119300	0	0	0
13552	0	0	0	0	0	9.705953	-0.551287	-1.187155	0.008436	-0.004885	-0.003565	-0.613525	0.644531	0.600342	0.230198	-0.715271	-0.219177	-0.622380	-154.663959	-82.414850	11.802787	0.129209	0.027000	0.991250	0.600083	-0.797941	-0.056486	0.789434	0.602131	-0.119303	0	0	0
13553	0	0	0	0	0	9.745233	-0.552458	-1.172244	0.002276	-0.007021	-0.002514	-0.604980	0.651367	0.604736	0.230191	-0.715284	-0.219165	-0.622373	-154.663510	-82.413236	11.800714	0.129237	0.027001	0.991246	0.600059	-0.797958	-0.056499	0.789447	0.602108	-0.119328	0	0	0
13554	0	0	0	0	0	9.732167	-0.571591	-1.179817	-0.000939	-0.001536	-0.002409	-0.616455	0.650146	0.602783	0.230177	-0.715283	-0.219136	-0.622388	-154.654951	-82.414325	11.788560	0.129224	0.026969	0.991249	0.600009	-0.797995	-0.056509	0.789488	0.602060	-0.119302	0	0	0
13555	0	0	0	0	0	9.712647	-0.562611	-1.168365	-0.002043	-0.005975	-0.002160	-0.615479	0.649170	0.601807	0.230155	-0.715300	-0.219104	-0.622388	-154.652916	-82.412873	11.781912	0.129252	0.026960	0.991245	0.599943	-0.798044	-0.056524	0.789533	0.601996	-0.119323	0	0	0
13556	0	0	0	0	0	9.712916	-0.546363	-1.130108	-0.006467	-0.011083	-0.000317	-0.621582	0.644775	0.602783	0.230118	-0.715339	-0.219062	-0.622373	-154.656971	-82.408506	11.779288	0.129327	0.026969	0.991235	0.599846	-0.798115	-0.056548	0.789594	0.601902	-0.119395	0	0	0
13557	0	0	0	0	0	9.752148	-0.547641	-1.115631	-0.002465	-0.008423	-0.001192	-0.616455	0.640625	0.598633	0.230098	-0.715360	-0.219036	-0.622365	-154.657428	-82.406039	11.775830	0.129371	0.026970	0.991229	0.599789	-0.798156	-0.056565	0.789630	0.601846	-0.119434	0	0	0
13558	0	0	0	0	0	9.712375	-0.562047	-1.170899	-0.000143	-0.006042	-0.004027	-0.614746	0.649414	0.603760	0.230077	-0.715371	-0.219021	-0.622365	-154.662997	-82.405192	11.778389	0.129384	0.026979	0.991228	0.599747	-0.798188	-0.056560	0.789660	0.601804	-0.119453	0	0	0
13559	0	0	0	0	0	9.751634	-0.563016	-1.156342	-0.004087	-0.011951	-0.004322	-0.611572	0.655273	0.606445	0.230036	-0.715404	-0.219002	-0.622350	-154.682953	-82.401590	11.793252	0.129438	0.027025	0.991219	0.599676	-0.798243	-0.056545	0.789706	0.601729	-0.119529	0	0	0
13560	0	0	0	0	0	9.698547	-0.537214	-1.212929	0.000116	-0.006498	-0.002338	-0.614746	0.651123	0.601074	0.230021	-0.715418	-0.218983	-0.622346	-154.682653	-82.400093	11.790040	0.129465	0.027023	0.991216	0.599634	-0.798274	-0.056556	0.789733	0.601688	-0.119552	0	0	0
13561	0	0	0	0	0	9.712146	-0.561062	-1.173264	-0.000623	-0.005241	-0.001890	-0.616943	0.654541	0.608643	0.230010	-0.715429	-0.218959	-0.622345	-154.677045	-82.399068	11.781521	0.129486	0.027007	0.991213	0.599591	-0.798304	-0.056576	0.789762	0.601649	-0.119563	0	0	0
13562	0	0	0	0	0	9.744614	-0.550160	-1.178457	0.001277	-0.005307	-0.003756	-0.616455	0.648682	0.603271	0.229997	-0.715436	-0.218947	-0.622346	-154.679396	-82.398535	11.781656	0.129495	0.027010	0.991212	0.599560	-0.798328	-0.056575	0.789784	0.601617	-0.119573	0	0	0
13563	0	0	0	0	0	9.718517	-0.588662	-1.193179	0.000058	-0.003249	-0.001169	-0.617920	0.655518	0.609619	0.229991	-0.715441	-0.218920	-0.622353	-154.667971	-82.398480	11.767386	0.129503	0.026978	0.991212	0.599519	-0.798357	-0.056599	0.789814	0.601580	-0.119563	0	0	0
13564	0	0	0	0	0	9.738348	-0.581137	-1.166259	0.006276	-0.004361	-0.003392	-0.614502	0.643555	0.605713	0.229997	-0.715440	-0.218920	-0.622351	-154.664305	-82.398347	11.764340	0.129506	0.026971	0.991212	0.599527	-0.798350	-0.056608	0.789807	0.601589	-0.119561	0	0	0
13565	0	0	0	0	0	9.718437	-0.588365	-1.193980	0.003215	-0.005485	-0.000107	-0.605469	0.654053	0.595947	0.229998	-0.715451	-0.218897	-0.622346	-154.651679	-82.396809	11.749865	0.129539	0.026944	0.991208	0.599498	-0.798370	-0.056645	0.789824	0.601565	-0.119573	0	0	0
13566	0	0	0	0	0	9.751284	-0.561636	-1.159956	0.003637	-0.003037	-0.001076	-0.613037	0.654297	0.608398	0.230004	-0.715452	-0.218880	-0.622349	-154.638112	-82.396794	11.735303	0.129546	0.026911	0.991208	0.599482	-0.798379	-0.056674	0.789835	0.601553	-0.119560	0	0	0
13567	0	0	0	0	0	9.712527	-0.603501	-1.142809	0.000854	-0.007756	-0.002788	-0.620117	0.649170	0.599854	0.229994	-0.715468	-0.218867	-0.622338	-154.638920	-82.394553	11.734161	0.129585	0.026916	0.991203	0.599453	-0.798400	-0.056689	0.789851	0.601525	-0.119596	0	0	0
13568	0	0	0	0	0	9.738498	-0.564546	-1.129381	0.000432	-0.010203	-0.001819	-0.613037	0.644531	0.608398	0.229978	-0.715494	-0.218850	-0.622320	-154.643244	-82.391010	11.735797	0.129644	0.026932	0.991195	0.599412	-0.798429	-0.056706	0.789872	0.601486	-0.119655	0	0	0
13569	0	0	0	0	0	9.738019	-0.580536	-1.169302	0.003954	-0.006742	-0.000557	-0.608643	0.646484	0.601074	0.229982	-0.715506	-0.218836	-0.622311	-154.634470	-82.389124	11.726167	0.129680	0.026917	0.991190	0.599397	-0.798438	-0.056738	0.789877	0.601475	-0.119676	0	0	0
13570	0	0	0	0	0	9.711609	-0.559836	-1.178287	0.004952	-0.008456	0.000682	-0.615479	0.657227	0.608398	0.229991	-0.715524	-0.218823	-0.622291	-154.623309	-82.385872	11.714793	0.129741	0.026903	0.991183	0.599389	-0.798441	-0.056786	0.789873	0.601472	-0.119716	0	0	0
13571	0	0	0	0	0	9.711491	-0.559803	-1.179276	0.005488	-0.012506	-0.002626	-0.606934	0.651611	0.602295	0.229989	-0.715551	-0.218826	-0.622260	-154.630721	-82.381214	11.722430	0.129816	0.026937	0.991172	0.599389	-0.798440	-0.056805	0.789861	0.601472	-0.119796	0	0	0
13572	0	0	0	0	0	9.717205	-0.544241	-1.232063	0.011014	-0.002958	-0.004720	-0.613037	0.654785	0.608398	0.230010	-0.715539	-0.218845	-0.622259	-154.626914	-82.382133	11.721981	0.129801	0.026932	0.991174	0.599436	-0.798404	-0.056806	0.789828	0.601519	-0.119778	0	0	0
13573	0	0	0	0	0	9.717557	-0.528020	-1.193410	0.011850	-0.007575	-0.000823	-0.616943	0.652100	0.605469	0.230041	-0.715546	-0.218854	-0.622236	-154.614238	-82.379453	11.712815	0.129851	0.026921	0.991168	0.599481	-0.798368	-0.056852	0.789786	0.601568	-0.119807	0	0	0
13574	0	0	0	0	0	9.737399	-0.520465	-1.166548	0.012174	-0.001768	-0.006140	-0.611328	0.650391	0.608643	0.230063	-0.715528	-0.218880	-0.622240	-154.613072	-82.381337	11.715700	0.129817	0.026921	0.991172	0.599539	-0.798325	-0.056841	0.789747	0.601625	-0.119776	0	0	0
13575	0	0	0	0	0	9.731228	-0.551599	-1.153591	0.011215	-0.000165	-0.001863	-0.615234	0.660156	0.604248	0.230095	-0.715511	-0.218883	-0.622247	-154.592338	-82.382914	11.697856	0.129799	0.026875	0.991176	0.599577	-0.798293	-0.056872	0.789721	0.601669	-0.119731	0	0	0
13576	0	0	0	0	0	9.756887	-0.528883	-1.178444	0.011954	-0.001422	-0.002313	-0.614502	0.654541	0.608398	0.230128	-0.715496	-0.218894	-0.622248	-154.575846	-82.384036	11.685152	0.129786	0.026842	0.991179	0.599629	-0.798253	-0.056898	0.789684	0.601724	-0.119697	0	0	0
13577	0	0	0	0	0	9.717522	-0.527407	-1.193963	0.010534	-0.002157	-0.002584	-0.619873	0.656982	0.606689	0.230160	-0.715483	-0.218906	-0.622247	-154.560612	-82.384750	11.673660	0.129779	0.026814	0.991180	0.599679	-0.798213	-0.056925	0.789647	0.601778	-0.119671	0	0	0
13578	0	0	0	0	0	9.724360	-0.539261	-1.174013	0.006955	-0.002369	-0.002675	-0.609863	0.646973	0.608887	0.230174	-0.715476	-0.218904	-0.622250	-154.550122	-82.385471	11.664122	0.129771	0.026790	0.991182	0.599692	-0.798203	-0.056941	0.789639	0.601793	-0.119649	0	0	0
13579	0	0	0	0	0	9.711297	-0.558531	-1.181472	-0.004682	-0.004652	0.000159	-0.607178	0.654785	0.608887	0.230149	-0.715494	-0.218855	-0.622256	-154.539024	-82.384222	11.646760	0.129801	0.026755	0.991179	0.599602	-0.798268	-0.056974	0.789702	0.601708	-0.119658	0	0	0
13580	0	0	0	0	0	9.750587	-0.559823	-1.166668	-0.003204	-0.007167	-0.000739	-0.603271	0.650391	0.597168	0.230127	-0.715516	-0.218820	-0.622251	-154.535705	-82.381983	11.638584	0.129842	0.026744	0.991174	0.599531	-0.798319	-0.056997	0.789749	0.601640	-0.119690	0	0	0
13581	0	0	0	0	0	9.704675	-0.530336	-1.163990	-0.004786	-0.010805	0.001649	-0.618408	0.648438	0.603271	0.230102	-0.715556	-0.218770	-0.622232	-154.528455	-82.376889	11.625006	0.129935	0.026731	0.991162	0.599437	-0.798386	-0.057050	0.789805	0.601552	-0.119762	0	0	0
13582	0	0	0	0	0	9.737060	-0.519706	-1.169712	-0.011522	-0.008782	0.000497	-0.616943	0.650146	0.602783	0.230052	-0.715594	-0.218706	-0.622229	-154.528108	-82.373510	11.615018	0.129997	0.026720	0.991154	0.599299	-0.798488	-0.057076	0.789899	0.601418	-0.119814	0	0	0
13583	0	0	0	0	0	9.737243	-0.578953	-1.176524	0.002751	-0.007823	-0.004656	-0.614014	0.652588	0.606934	0.230042	-0.715603	-0.218710	-0.622221	-154.537504	-82.372179	11.623914	0.130015	0.026745	0.991151	0.599293	-0.798493	-0.057067	0.789902	0.601409	-0.119844	0	0	0
13584	0	0	0	0	0	9.697825	-0.577175	-1.192560	-0.002305	-0.005521	-0.003848	-0.610596	0.655029	0.600586	0.230015	-0.715616	-0.218687	-0.622225	-154.542661	-82.371558	11.624809	0.130025	0.026749	0.991150	0.599233	-0.798538	-0.057060	0.789945	0.601349	-0.119859	0	0	0
13585	0	0	0	0	0	9.743577	-0.606414	-1.196707	-0.006102	-0.005387	-0.000111	-0.611328	0.656250	0.602783	0.229991	-0.715635	-0.218641	-0.622228	-154.533574	-82.370029	11.609743	0.130058	0.026720	0.991146	0.599147	-0.798601	-0.057091	0.790005	0.601268	-0.119874	0	0	0
13586	0	0	0	0	0	9.744215	-0.649673	-1.164133	-0.000625	-0.005242	-0.001889	-0.610596	0.661133	0.602295	0.229976	-0.715646	-0.218616	-0.622228	-154.529691	-82.369069	11.602488	0.130078	0.026707	0.991144	0.599099	-0.798636	-0.057106	0.790038	0.601221	-0.119885	0	0	0
13587	0	0	0	0	0	9.717863	-0.628652	-1.172684	0.002376	-0.000869	-0.004007	-0.617920	0.648926	0.609131	0.229982	-0.715636	-0.218609	-0.622241	-154.521088	-82.370769	11.593733	0.130053	0.026681	0.991148	0.599097	-0.798637	-0.057111	0.790044	0.601221	-0.119850	0	0	0
13588	0	0	0	0	0	9.704567	-0.588176	-1.173930	0.006694	-0.001913	-0.004367	-0.618652	0.651123	0.602295	0.229989	-0.715626	-0.218612	-0.622248	-154.516450	-82.372141	11.589948	0.130032	0.026668	0.991151	0.599109	-0.798628	-0.057111	0.790038	0.601234	-0.119824	0	0	0
13589	0	0	0	0	0	9.749951	-0.633521	-1.216750	0.008374	-0.001633	-0.002408	-0.609375	0.651367	0.604980	0.230011	-0.715614	-0.218615	-0.622254	-154.502767	-82.373388	11.578385	0.130016	0.026637	0.991154	0.599138	-0.798605	-0.057130	0.790019	0.601266	-0.119791	0	0	0
13590	0	0	0	0	0	9.724050	-0.596420	-1.185939	0.015011	-0.000297	-0.005606	-0.610840	0.647949	0.608154	0.230046	-0.715588	-0.218646	-0.622259	-154.495168	-82.375902	11.576420	0.129974	0.026624	0.991160	0.599218	-0.798545	-0.057127	0.789965	0.601346	-0.119744	0	0	0
13591	0	0	0	0	0	9.737103	-0.576622	-1.178825	0.010011	-0.001245	-0.005966	-0.619873	0.655762	0.604980	0.230056	-0.715573	-0.218657	-0.622268	-154.492892	-82.377792	11.575878	0.129943	0.026616	0.991164	0.599244	-0.798527	-0.057118	0.789951	0.601371	-0.119712	0	0	0
13592	0	0	0	0	0	9.750111	-0.556897	-1.172036	0.017065	-0.006971	-0.004298	-0.605713	0.657227	0.604492	0.230096	-0.715567	-0.218697	-0.622246	-154.491363	-82.376531	11.581224	0.129962	0.026633	0.991161	0.599338	-0.798455	-0.057131	0.789876	0.601465	-0.119731	0	0	0
13593	0	0	0	0	0	9.717579	-0.567048	-1.167810	0.010546	-0.005298	-0.009275	-0.618652	0.655273	0.601563	0.230104	-0.715557	-0.218737	-0.622241	-154.507620	-82.377263	11.601546	0.129940	0.026676	0.991163	0.599398	-0.798413	-0.057091	0.789834	0.601519	-0.119735	0	0	0
13594	0	0	0	0	0	9.731301	-0.590196	-1.128173	0.010602	-0.008547	-0.010445	-0.615479	0.647217	0.599609	0.230100	-0.715557	-0.218781	-0.622228	-154.536447	-82.376702	11.633785	0.129934	0.026752	0.991162	0.599449	-0.798378	-0.057035	0.789796	0.601562	-0.119773	0	0	0
13595	0	0	0	0	0	9.743878	-0.586128	-1.160745	0.014123	-0.005084	-0.009188	-0.613525	0.652100	0.600342	0.230124	-0.715538	-0.218837	-0.622221	-154.551056	-82.377939	11.655226	0.129903	0.026796	0.991165	0.599548	-0.798307	-0.056995	0.789726	0.601654	-0.119768	0	0	0
13596	0	0	0	0	0	9.743455	-0.601579	-1.200140	0.014804	-0.003091	-0.008470	-0.609619	0.652344	0.604248	0.230146	-0.715518	-0.218881	-0.622220	-154.559806	-82.379712	11.669637	0.129866	0.026822	0.991169	0.599630	-0.798248	-0.056964	0.789670	0.601732	-0.119749	0	0	0
13597	0	0	0	0	0	9.743902	-0.584799	-1.161214	0.014065	-0.001834	-0.008021	-0.619141	0.655273	0.604980	0.230173	-0.715494	-0.218921	-0.622223	-154.563398	-82.381991	11.678858	0.129823	0.026835	0.991174	0.599711	-0.798189	-0.056940	0.789616	0.601810	-0.119717	0	0	0
13598	0	0	0	0	0	9.704529	-0.583119	-1.176762	0.017005	-0.003719	-0.003134	-0.602783	0.654785	0.605713	0.230219	-0.715480	-0.218953	-0.622212	-154.551408	-82.382126	11.673616	0.129824	0.026823	0.991174	0.599803	-0.798117	-0.056964	0.789545	0.601905	-0.119703	0	0	0
13599	0	0	0	0	0	9.716782	-0.520163	-1.203130	0.015324	-0.004000	-0.005094	-0.614014	0.646729	0.614990	0.230255	-0.715466	-0.218986	-0.622202	-154.546686	-82.382384	11.674776	0.129819	0.026825	0.991175	0.599885	-0.798056	-0.056972	0.789484	0.601986	-0.119694	0	0	0
13600	0	0	0	0	0	9.697303	-0.511145	-1.191448	0.011688	-0.000964	-0.004014	-0.607666	0.657227	0.600098	0.230282	-0.715448	-0.219002	-0.622207	-154.536070	-82.384161	11.667847	0.129792	0.026803	0.991179	0.599936	-0.798016	-0.056980	0.789450	0.602040	-0.119656	0	0	0
13601	0	0	0	0	0	9.724108	-0.515316	-1.144088	0.003533	0.000319	-0.005430	-0.612305	0.649902	0.606445	0.230273	-0.715437	-0.218989	-0.622228	-154.532455	-82.386682	11.662226	0.129752	0.026781	0.991185	0.599910	-0.798037	-0.056969	0.789476	0.602014	-0.119613	0	0	0
13602	0	0	0	0	0	9.678579	-0.544882	-1.146809	-0.002247	-0.008776	-0.005012	-0.616211	0.644287	0.597168	0.230239	-0.715458	-0.218974	-0.622222	-154.548073	-82.384663	11.673709	0.129781	0.026814	0.991180	0.599853	-0.798081	-0.056952	0.789515	0.601953	-0.119660	0	0	0
13603	0	0	0	0	0	9.750361	-0.534944	-1.137202	-0.006506	-0.010984	-0.005818	-0.614014	0.652100	0.606934	0.230185	-0.715489	-0.218951	-0.622214	-154.573239	-82.381866	11.692369	0.129819	0.026866	0.991174	0.599763	-0.798150	-0.056920	0.789576	0.601859	-0.119729	0	0	0
13604	0	0	0	0	0	9.724267	-0.573120	-1.152194	-0.006144	-0.005286	-0.005622	-0.608154	0.651123	0.610352	0.230139	-0.715503	-0.218923	-0.622225	-154.587016	-82.381802	11.699743	0.129817	0.026883	0.991173	0.599676	-0.798218	-0.056892	0.789643	0.601768	-0.119743	0	0	0
13605	0	0	0	0	0	9.743667	-0.581437	-1.164863	-0.000986	-0.010941	-0.002084	-0.609375	0.652588	0.609131	0.230110	-0.715536	-0.218895	-0.622207	-154.593942	-82.377660	11.701945	0.129886	0.026903	0.991164	0.599607	-0.798269	-0.056908	0.789684	0.601701	-0.119815	0	0	0
13606	0	0	0	0	0	9.743241	-0.521660	-1.159881	-0.004883	-0.007451	-0.002693	-0.617676	0.645996	0.605957	0.230075	-0.715559	-0.218862	-0.622206	-154.599642	-82.375755	11.701898	0.129918	0.026909	0.991159	0.599526	-0.798329	-0.056910	0.789740	0.601620	-0.119850	0	0	0
13607	0	0	0	0	0	9.736615	-0.568795	-1.186638	-0.005145	-0.006997	-0.004382	-0.617188	0.641846	0.605957	0.230030	-0.715581	-0.218828	-0.622210	-154.611186	-82.374417	11.706665	0.129939	0.026925	0.991156	0.599432	-0.798401	-0.056896	0.789808	0.601524	-0.119883	0	0	0
13608	0	0	0	0	0	9.750345	-0.592337	-1.147115	-0.004883	-0.007451	-0.002693	-0.610596	0.656250	0.607910	0.229995	-0.715603	-0.218795	-0.622208	-154.616884	-82.372512	11.706616	0.129971	0.026931	0.991152	0.599351	-0.798462	-0.056898	0.789864	0.601443	-0.119918	0	0	0
13609	0	0	0	0	0	9.743852	-0.563800	-1.128700	-0.001886	-0.003078	-0.004816	-0.613037	0.644775	0.601807	0.229966	-0.715608	-0.218770	-0.622223	-154.621005	-82.373361	11.706020	0.129957	0.026927	0.991154	0.599287	-0.798511	-0.056883	0.789916	0.601378	-0.119909	0	0	0
13610	0	0	0	0	0	9.723498	-0.586832	-1.195213	-0.002886	-0.001367	-0.006056	-0.616943	0.655762	0.602295	0.229934	-0.715605	-0.218748	-0.622245	-154.627401	-82.375431	11.707829	0.129921	0.026924	0.991159	0.599226	-0.798559	-0.056854	0.789968	0.601314	-0.119883	0	0	0
13611	0	0	0	0	0	9.723136	-0.526692	-1.189754	-0.001090	-0.007585	-0.006436	-0.618408	0.651367	0.607178	0.229907	-0.715617	-0.218746	-0.622243	-154.644795	-82.374563	11.722637	0.129929	0.026960	0.991157	0.599192	-0.798587	-0.056824	0.789992	0.601276	-0.119914	0	0	0
13612	0	0	0	0	0	9.723437	-0.585377	-1.196420	-0.000876	-0.007934	-0.010266	-0.621094	0.650391	0.602783	0.229862	-0.715628	-0.218753	-0.622244	-154.678358	-82.374265	11.753018	0.129919	0.027030	0.991156	0.599152	-0.798621	-0.056756	0.790024	0.601227	-0.119952	0	0	0
13613	0	0	0	0	0	9.723435	-0.584507	-1.196860	0.002587	-0.001218	-0.007841	-0.618164	0.648193	0.607178	0.229850	-0.715613	-0.218760	-0.622263	-154.688120	-82.377148	11.762294	0.129866	0.027041	0.991163	0.599149	-0.798626	-0.056715	0.790035	0.601220	-0.119916	0	0	0
13614	0	0	0	0	0	9.710892	-0.586991	-1.165086	0.004064	-0.003732	-0.008741	-0.612549	0.650146	0.617920	0.229832	-0.715607	-0.218773	-0.622272	-154.705278	-82.378651	11.778979	0.129833	0.027074	0.991166	0.599147	-0.798631	-0.056668	0.790042	0.601211	-0.119910	0	0	0
13615	0	0	0	0	0	9.737737	-0.590683	-1.118032	0.010958	-0.002847	-0.010258	-0.609375	0.649902	0.604248	0.229826	-0.715593	-0.218800	-0.622280	-154.723386	-82.380809	11.798886	0.129787	0.027111	0.991171	0.599177	-0.798613	-0.056614	0.790027	0.601234	-0.119894	0	0	0
13616	0	0	0	0	0	9.685349	-0.608071	-1.140773	0.008643	-0.005228	-0.007416	-0.607178	0.661133	0.610107	0.229828	-0.715588	-0.218824	-0.622278	-154.735535	-82.381211	11.813164	0.129773	0.027142	0.991172	0.599209	-0.798591	-0.056585	0.790005	0.601262	-0.119900	0	0	0
13617	0	0	0	0	0	9.744200	-0.617334	-1.137788	0.006961	-0.005510	-0.009375	-0.617676	0.658691	0.604492	0.229816	-0.715586	-0.218844	-0.622277	-154.754594	-82.381563	11.832971	0.129758	0.027186	0.991173	0.599222	-0.798583	-0.056543	0.789997	0.601270	-0.119913	0	0	0
13618	0	0	0	0	0	9.756785	-0.613264	-1.169983	0.005163	0.000708	-0.008995	-0.615479	0.648438	0.604004	0.229807	-0.715565	-0.218856	-0.622301	-154.764017	-82.385426	11.842487	0.129688	0.027194	0.991182	0.599229	-0.798582	-0.056495	0.790004	0.601271	-0.119862	0	0	0
13619	0	0	0	0	0	9.710956	-0.583066	-1.166527	0.008380	-0.004773	-0.009107	-0.613281	0.645996	0.612793	0.229809	-0.715554	-0.218890	-0.622301	-154.780842	-82.386613	11.862369	0.129659	0.027234	0.991185	0.599275	-0.798550	-0.056451	0.789974	0.601311	-0.119860	0	0	0
13620	0	0	0	0	0	9.723933	-0.563083	-1.159940	0.003431	-0.005831	-0.003942	-0.611328	0.652344	0.606201	0.229802	-0.715560	-0.218885	-0.622297	-154.783617	-82.385852	11.864176	0.129671	0.027241	0.991183	0.599261	-0.798561	-0.056451	0.789982	0.601297	-0.119874	0	0	0
13621	0	0	0	0	0	9.697069	-0.557892	-1.207785	0.003120	-0.005273	-0.011152	-0.621338	0.648926	0.608887	0.229764	-0.715561	-0.218896	-0.622306	-154.813427	-82.386932	11.891668	0.129639	0.027300	0.991185	0.599234	-0.798586	-0.056380	0.790008	0.601261	-0.119887	0	0	0
13622	0	0	0	0	0	9.755938	-0.566984	-1.204712	0.011218	-0.003300	-0.008573	-0.609375	0.644287	0.607910	0.229773	-0.715546	-0.218929	-0.622309	-154.825086	-82.388612	11.906940	0.129604	0.027328	0.991189	0.599288	-0.798548	-0.056343	0.789973	0.601310	-0.119872	0	0	0
13623	0	0	0	0	0	9.691054	-0.512078	-1.150383	0.005006	-0.002193	-0.006336	-0.617676	0.651123	0.607666	0.229762	-0.715539	-0.218928	-0.622322	-154.830224	-82.390323	11.910966	0.129573	0.027331	0.991193	0.599275	-0.798560	-0.056320	0.789988	0.601295	-0.119850	0	0	0
13624	0	0	0	0	0	9.723939	-0.560120	-1.161320	0.005958	-0.003800	-0.010617	-0.615479	0.657959	0.610107	0.229746	-0.715529	-0.218953	-0.622330	-154.853759	-82.392241	11.935179	0.129529	0.027379	0.991198	0.599290	-0.798553	-0.056257	0.789984	0.601301	-0.119843	0	0	0
13625	0	0	0	0	0	9.723933	-0.559030	-1.161895	-0.002559	-0.008222	-0.012225	-0.619141	0.641357	0.604248	0.229690	-0.715540	-0.218962	-0.622334	-154.895572	-82.392209	11.972953	0.129511	0.027465	0.991198	0.599240	-0.798597	-0.056170	0.790024	0.601240	-0.119885	0	0	0
13626	0	0	0	0	0	9.757250	-0.590485	-1.134223	0.003857	-0.006530	-0.011604	-0.615479	0.648438	0.605225	0.229660	-0.715540	-0.218987	-0.622337	-154.929135	-82.392946	12.006068	0.129483	0.027537	0.991199	0.599239	-0.798602	-0.056094	0.790030	0.601229	-0.119906	0	0	0
13627	0	0	0	0	0	9.782349	-0.583010	-1.198590	0.004479	-0.001286	-0.009718	-0.617432	0.643311	0.604004	0.229642	-0.715524	-0.219001	-0.622357	-154.946142	-82.396181	12.022715	0.129420	0.027563	0.991207	0.599240	-0.798606	-0.056035	0.790039	0.601223	-0.119872	0	0	0
13628	0	0	0	0	0	9.757271	-0.588471	-1.135093	0.009651	-0.010083	-0.012872	-0.618652	0.653320	0.612549	0.229625	-0.715527	-0.219053	-0.622342	-154.987787	-82.395378	12.067332	0.129412	0.027666	0.991205	0.599287	-0.798577	-0.055953	0.790005	0.601257	-0.119926	0	0	0
13629	0	0	0	0	0	9.718292	-0.570057	-1.112130	0.009855	-0.007285	-0.010014	-0.620605	0.649658	0.598145	0.229617	-0.715524	-0.219090	-0.622335	-155.013492	-82.395430	12.095570	0.129398	0.027730	0.991205	0.599326	-0.798551	-0.055899	0.789978	0.601288	-0.119950	0	0	0
13630	0	0	0	0	0	9.696984	-0.549579	-1.212274	0.014170	-0.008324	-0.010381	-0.614014	0.652100	0.610596	0.229626	-0.715519	-0.219145	-0.622318	-155.039660	-82.394932	12.127186	0.129391	0.027803	0.991204	0.599405	-0.798495	-0.055848	0.789919	0.601359	-0.119983	0	0	0
13631	0	0	0	0	0	9.723832	-0.553105	-1.165573	0.008851	-0.005576	-0.011255	-0.610840	0.647461	0.601074	0.229620	-0.715508	-0.219187	-0.622318	-155.066579	-82.396241	12.157237	0.129354	0.027866	0.991207	0.599454	-0.798463	-0.055782	0.789887	0.601399	-0.119989	0	0	0
13632	0	0	0	0	0	9.710857	-0.571593	-1.173011	0.009531	-0.003581	-0.010538	-0.619873	0.646729	0.601074	0.229617	-0.715493	-0.219223	-0.622324	-155.087442	-82.398240	12.180819	0.129309	0.027912	0.991211	0.599497	-0.798435	-0.055724	0.789862	0.601434	-0.119978	0	0	0
13633	0	0	0	0	0	9.716921	-0.539213	-1.186319	0.002793	-0.001572	-0.011678	-0.616699	0.645020	0.606934	0.229593	-0.715476	-0.219243	-0.622346	-155.112463	-82.401785	12.205441	0.129237	0.027955	0.991220	0.599499	-0.798439	-0.055646	0.789873	0.601426	-0.119946	0	0	0
13634	0	0	0	0	0	9.749412	-0.527450	-1.191314	0.003056	-0.002025	-0.009988	-0.613037	0.646240	0.604736	0.229570	-0.715464	-0.219255	-0.622363	-155.132111	-82.404459	12.224055	0.129182	0.027987	0.991226	0.599490	-0.798450	-0.055585	0.789889	0.601410	-0.119924	0	0	0
13635	0	0	0	0	0	9.723458	-0.565539	-1.205755	0.007220	-0.005962	-0.007693	-0.612061	0.655029	0.600342	0.229560	-0.715464	-0.219272	-0.622361	-155.147798	-82.404575	12.240416	0.129172	0.028023	0.991226	0.599502	-0.798443	-0.055551	0.789881	0.601417	-0.119937	0	0	0
13636	0	0	0	0	0	9.743325	-0.557449	-1.179362	0.006388	-0.010856	-0.005748	-0.614014	0.647705	0.604004	0.229553	-0.715480	-0.219289	-0.622339	-155.164958	-82.401635	12.258444	0.129213	0.028075	0.991219	0.599513	-0.798436	-0.055537	0.789866	0.601425	-0.120000	0	0	0
13637	0	0	0	0	0	9.730753	-0.560243	-1.147992	0.007424	-0.003163	-0.004834	-0.612061	0.651367	0.607178	0.229565	-0.715471	-0.219301	-0.622341	-155.162504	-82.402501	12.258026	0.129199	0.028071	0.991221	0.599542	-0.798414	-0.055536	0.789846	0.601454	-0.119984	0	0	0
13638	0	0	0	0	0	9.723810	-0.547680	-1.168311	0.004474	-0.001287	-0.009723	-0.616943	0.645264	0.610840	0.229549	-0.715456	-0.219315	-0.622359	-155.178993	-82.405493	12.274271	0.129140	0.028096	0.991228	0.599544	-0.798416	-0.055479	0.789854	0.601450	-0.119953	0	0	0
13639	0	0	0	0	0	9.716834	-0.535104	-1.188890	0.004910	-0.008343	-0.004847	-0.615967	0.655518	0.600830	0.229536	-0.715470	-0.219314	-0.622348	-155.188954	-82.403527	12.283102	0.129169	0.028124	0.991224	0.599528	-0.798429	-0.055473	0.789862	0.601432	-0.119993	0	0	0
13640	0	0	0	0	0	9.737142	-0.511003	-1.123541	0.005913	-0.010052	-0.003607	-0.621582	0.653809	0.606689	0.229534	-0.715488	-0.219321	-0.622326	-155.196574	-82.400489	12.291232	0.129217	0.028153	0.991217	0.599533	-0.798425	-0.055479	0.789850	0.601436	-0.120048	0	0	0
13641	0	0	0	0	0	9.711124	-0.549444	-1.138444	-0.001090	-0.007592	-0.006436	-0.620605	0.647217	0.608643	0.229510	-0.715498	-0.219322	-0.622323	-155.213325	-82.399609	12.306055	0.129224	0.028190	0.991215	0.599508	-0.798445	-0.055450	0.789868	0.601407	-0.120078	0	0	0
13642	0	0	0	0	0	9.749582	-0.582344	-1.201838	0.008372	-0.004771	-0.009120	-0.610352	0.652588	0.605225	0.229506	-0.715490	-0.219350	-0.622324	-155.231511	-82.400642	12.326266	0.129197	0.028231	0.991217	0.599540	-0.798425	-0.055405	0.789848	0.601432	-0.120080	0	0	0
13643	0	0	0	0	0	9.729135	-0.529703	-1.223561	0.011474	-0.003747	-0.006896	-0.612793	0.653809	0.598877	0.229520	-0.715478	-0.219377	-0.622323	-155.236936	-82.401661	12.335159	0.129175	0.028248	0.991219	0.599590	-0.798388	-0.055386	0.789813	0.601480	-0.120069	0	0	0
13644	0	0	0	0	0	9.749066	-0.521527	-1.196744	0.011948	-0.004551	-0.009039	-0.613281	0.647949	0.605957	0.229529	-0.715465	-0.219416	-0.622321	-155.252370	-82.402788	12.354660	0.129146	0.028288	0.991222	0.599650	-0.798346	-0.055345	0.789773	0.601534	-0.120066	0	0	0
13645	0	0	0	0	0	9.696147	-0.479856	-1.213661	0.014160	-0.005169	-0.003701	-0.616455	0.648682	0.601807	0.229566	-0.715456	-0.219446	-0.622307	-155.245397	-82.402332	12.353432	0.129155	0.028286	0.991221	0.599729	-0.798286	-0.055363	0.789712	0.601614	-0.120067	0	0	0
13646	0	0	0	0	0	9.704092	-0.534525	-1.160529	-0.008891	-0.000628	-0.007644	-0.611572	0.654053	0.601074	0.229509	-0.715456	-0.219410	-0.622340	-155.260279	-82.405165	12.360330	0.129103	0.028292	0.991227	0.599623	-0.798369	-0.055311	0.789801	0.601503	-0.120037	0	0	0
13647	0	0	0	0	0	9.743512	-0.535083	-1.145488	-0.001624	-0.003538	-0.003126	-0.616699	0.645752	0.596191	0.229495	-0.715460	-0.219390	-0.622349	-155.257091	-82.405490	12.354176	0.129101	0.028276	0.991228	0.599581	-0.798400	-0.055316	0.789833	0.601463	-0.120028	0	0	0
13648	0	0	0	0	0	9.723997	-0.525989	-1.134134	-0.005141	-0.007010	-0.004376	-0.619385	0.647949	0.606445	0.229455	-0.715479	-0.219361	-0.622351	-155.268548	-82.404218	12.359788	0.129120	0.028294	0.991225	0.599500	-0.798462	-0.055301	0.789891	0.601380	-0.120059	0	0	0
13649	0	0	0	0	0	9.716493	-0.529806	-1.194041	-0.008718	-0.007231	-0.004458	-0.621094	0.651123	0.602783	0.229406	-0.715500	-0.219328	-0.622357	-155.282566	-82.403171	12.366820	0.129134	0.028314	0.991223	0.599404	-0.798536	-0.055279	0.789962	0.601281	-0.120089	0	0	0
13650	0	0	0	0	0	9.742865	-0.549814	-1.186723	-0.006500	-0.011000	-0.005812	-0.616699	0.654297	0.611084	0.229352	-0.715532	-0.219306	-0.622348	-155.307561	-82.400166	12.385303	0.129176	0.028366	0.991216	0.599314	-0.798605	-0.055249	0.790023	0.601186	-0.120161	0	0	0
13651	0	0	0	0	0	9.750220	-0.544860	-1.128691	-0.002185	-0.012035	-0.006183	-0.620605	0.647461	0.609131	0.229315	-0.715559	-0.219302	-0.622331	-155.332636	-82.396819	12.406976	0.129221	0.028428	0.991208	0.599267	-0.798642	-0.055220	0.790051	0.601134	-0.120237	0	0	0
13652	0	0	0	0	0	9.722749	-0.556216	-1.215770	-0.009517	-0.002724	-0.002838	-0.611572	0.654541	0.607910	0.229269	-0.715572	-0.219250	-0.622352	-155.332904	-82.397410	12.398769	0.129216	0.028407	0.991210	0.599150	-0.798731	-0.055215	0.790141	0.601018	-0.120228	0	0	0
13653	0	0	0	0	0	9.749650	-0.560142	-1.168984	-0.007300	-0.006492	-0.004193	-0.624756	0.650391	0.607178	0.229221	-0.715594	-0.219212	-0.622358	-155.343405	-82.396316	12.401911	0.129232	0.028418	0.991207	0.599048	-0.798808	-0.055201	0.790216	0.600914	-0.120256	0	0	0
13654	0	0	0	0	0	9.723115	-0.539105	-1.178048	-0.003399	-0.009974	-0.003590	-0.620850	0.646973	0.606934	0.229186	-0.715621	-0.219189	-0.622347	-155.356084	-82.393312	12.409763	0.129279	0.028447	0.991200	0.598979	-0.798860	-0.055196	0.790260	0.600844	-0.120315	0	0	0
13655	0	0	0	0	0	9.716518	-0.510591	-1.160038	-0.006296	-0.008201	-0.002954	-0.620605	0.646484	0.610596	0.229147	-0.715644	-0.219158	-0.622346	-155.365179	-82.391410	12.412956	0.129310	0.028461	0.991196	0.598897	-0.798922	-0.055191	0.790318	0.600760	-0.120354	0	0	0
13656	0	0	0	0	0	9.735418	-0.535105	-1.211858	-0.007715	-0.008940	-0.003221	-0.616455	0.646973	0.607910	0.229099	-0.715674	-0.219120	-0.622343	-155.377027	-82.388857	12.417474	0.129351	0.028481	0.991190	0.598794	-0.799000	-0.055184	0.790389	0.600656	-0.120405	0	0	0
13657	0	0	0	0	0	9.729389	-0.566094	-1.199405	-0.005202	-0.003759	-0.003209	-0.618408	0.650635	0.604736	0.229062	-0.715685	-0.219081	-0.622358	-155.378700	-82.389087	12.412586	0.129349	0.028469	0.991190	0.598703	-0.799068	-0.055179	0.790458	0.600566	-0.120403	0	0	0
13658	0	0	0	0	0	9.736860	-0.561386	-1.140542	-0.000472	-0.002346	-0.004552	-0.618652	0.652588	0.609863	0.229043	-0.715685	-0.219063	-0.622372	-155.379806	-82.390286	12.410455	0.129330	0.028460	0.991193	0.598659	-0.799102	-0.055168	0.790494	0.600521	-0.120386	0	0	0
13659	0	0	0	0	0	9.736837	-0.560765	-1.141047	0.002958	-0.008174	-0.008503	-0.620361	0.654053	0.608398	0.229021	-0.715692	-0.219079	-0.622365	-155.404056	-82.389500	12.434227	0.129332	0.028516	0.991191	0.598655	-0.799108	-0.055123	0.790497	0.600511	-0.120421	0	0	0
13660	0	0	0	0	0	9.743293	-0.588214	-1.160751	0.006800	-0.008405	-0.006732	-0.614502	0.651367	0.611816	0.229014	-0.715700	-0.219098	-0.622352	-155.420309	-82.388062	12.451580	0.129347	0.028561	0.991188	0.598672	-0.799097	-0.055099	0.790482	0.600523	-0.120460	0	0	0
13661	0	0	0	0	0	9.709784	-0.555432	-1.189541	0.006474	-0.001551	-0.000557	-0.615723	0.655029	0.599609	0.229034	-0.715693	-0.219085	-0.622357	-155.399700	-82.388676	12.431545	0.129347	0.028513	0.991189	0.598677	-0.799090	-0.055138	0.790478	0.600534	-0.120430	0	0	0
13662	0	0	0	0	0	9.723207	-0.519487	-1.143867	0.006061	-0.007149	-0.006280	-0.617920	0.650635	0.605713	0.229028	-0.715698	-0.219099	-0.622349	-155.412374	-82.387785	12.444861	0.129355	0.028547	0.991187	0.598687	-0.799084	-0.055118	0.790469	0.600541	-0.120456	0	0	0
13663	0	0	0	0	0	9.729649	-0.547275	-1.163499	-0.006769	-0.007398	-0.000811	-0.614990	0.648926	0.608887	0.229002	-0.715721	-0.219061	-0.622346	-155.409863	-82.385640	12.437000	0.129395	0.028537	0.991182	0.598610	-0.799141	-0.055138	0.790521	0.600466	-0.120488	0	0	0
13664	0	0	0	0	0	9.721993	-0.475629	-1.178724	-0.006710	-0.010649	-0.001982	-0.625977	0.649170	0.610352	0.228959	-0.715756	-0.219024	-0.622334	-155.419337	-82.381900	12.439705	0.129457	0.028557	0.991174	0.598514	-0.799212	-0.055145	0.790584	0.600370	-0.120556	0	0	0
13665	0	0	0	0	0	9.722416	-0.534940	-1.185689	-0.005705	-0.012358	-0.000744	-0.620361	0.651611	0.612305	0.228922	-0.715796	-0.218987	-0.622315	-155.426715	-82.377124	12.440864	0.129537	0.028577	0.991163	0.598423	-0.799279	-0.055164	0.790639	0.600281	-0.120638	0	0	0
13666	0	0	0	0	0	9.754713	-0.523938	-1.191746	-0.006711	-0.010649	-0.001982	-0.615234	0.651123	0.602539	0.228879	-0.715831	-0.218950	-0.622303	-155.436181	-82.373384	12.443560	0.129599	0.028598	0.991154	0.598327	-0.799350	-0.055171	0.790702	0.600184	-0.120706	0	0	0
13667	0	0	0	0	0	9.722183	-0.534297	-1.187889	-0.005086	-0.010261	-0.005551	-0.614258	0.652832	0.606445	0.228835	-0.715857	-0.218933	-0.622295	-155.457130	-82.370788	12.459332	0.129635	0.028643	0.991148	0.598255	-0.799406	-0.055146	0.790750	0.600108	-0.120767	0	0	0
13668	0	0	0	0	0	9.722099	-0.534138	-1.188644	-0.008454	-0.004536	0.003928	-0.617676	0.655518	0.603027	0.228812	-0.715882	-0.218862	-0.622300	-155.433731	-82.368827	12.427861	0.129684	0.028579	0.991143	0.598137	-0.799490	-0.055209	0.790831	0.600000	-0.120775	0	0	0
13669	0	0	0	0	0	9.709094	-0.553371	-1.196113	-0.004998	-0.004110	-0.007043	-0.617920	0.654297	0.611328	0.228776	-0.715886	-0.218847	-0.622314	-155.448403	-82.369782	12.438180	0.129663	0.028599	0.991146	0.598080	-0.799535	-0.055171	0.790878	0.599938	-0.120774	0	0	0
13670	0	0	0	0	0	9.741999	-0.526004	-1.162442	0.003222	-0.005476	-0.000120	-0.614746	0.649170	0.609863	0.228780	-0.715896	-0.218828	-0.622308	-155.435733	-82.368295	12.424284	0.129695	0.028573	0.991142	0.598059	-0.799548	-0.055209	0.790888	0.599922	-0.120785	0	0	0
13671	0	0	0	0	0	9.748452	-0.553915	-1.181870	0.006739	-0.005152	-0.005566	-0.622070	0.644775	0.604980	0.228780	-0.715895	-0.218837	-0.622305	-155.440974	-82.368200	12.430341	0.129693	0.028587	0.991142	0.598071	-0.799540	-0.055198	0.790879	0.599933	-0.120792	0	0	0
13672	0	0	0	0	0	9.695446	-0.512320	-1.198779	-0.000149	-0.006049	-0.004034	-0.619629	0.645020	0.608887	0.228760	-0.715907	-0.218822	-0.622305	-155.446476	-82.367346	12.432831	0.129707	0.028596	0.991140	0.598029	-0.799571	-0.055193	0.790909	0.599890	-0.120811	0	0	0
13673	0	0	0	0	0	9.721857	-0.532507	-1.191357	-0.005559	-0.009458	-0.003408	-0.616455	0.649170	0.613525	0.228718	-0.715933	-0.218794	-0.622300	-155.459466	-82.364888	12.439914	0.129744	0.028621	0.991134	0.597947	-0.799634	-0.055183	0.790965	0.599805	-0.120862	0	0	0
13674	0	0	0	0	0	9.741748	-0.524592	-1.165182	0.000176	-0.009753	-0.003516	-0.614502	0.650635	0.613281	0.228697	-0.715956	-0.218782	-0.622285	-155.469337	-82.361981	12.446999	0.129790	0.028648	0.991128	0.597907	-0.799664	-0.055183	0.790988	0.599764	-0.120917	0	0	0
13675	0	0	0	0	0	9.735709	-0.555700	-1.153085	-0.000976	-0.010944	-0.002092	-0.614990	0.649658	0.604980	0.228668	-0.715988	-0.218757	-0.622268	-155.476317	-82.357929	12.449435	0.129857	0.028668	0.991118	0.597840	-0.799713	-0.055198	0.791027	0.599698	-0.120988	0	0	0
13676	0	0	0	0	0	9.753968	-0.520770	-1.199211	-0.004140	-0.008719	-0.003143	-0.615479	0.647949	0.613037	0.228634	-0.716013	-0.218729	-0.622261	-155.485367	-82.355471	12.453198	0.129897	0.028686	0.991112	0.597766	-0.799768	-0.055196	0.791077	0.599623	-0.121035	0	0	0
13677	0	0	0	0	0	9.747365	-0.492234	-1.181319	-0.001924	-0.012487	-0.004503	-0.614258	0.650391	0.609619	0.228597	-0.716047	-0.218716	-0.622241	-155.504647	-82.351350	12.468306	0.129959	0.028736	0.991103	0.597706	-0.799813	-0.055185	0.791112	0.599560	-0.121118	0	0	0
13678	0	0	0	0	0	9.714277	-0.518939	-1.216629	-0.010022	-0.011325	-0.000373	-0.623047	0.648926	0.604004	0.228547	-0.716089	-0.218663	-0.622229	-155.510912	-82.346875	12.465858	0.130036	0.028747	0.991092	0.597582	-0.799906	-0.055204	0.791193	0.599437	-0.121195	0	0	0
13679	0	0	0	0	0	9.727708	-0.558636	-1.216418	-0.008724	-0.007233	-0.004460	-0.611816	0.649170	0.605713	0.228498	-0.716111	-0.218629	-0.622234	-155.524515	-82.345713	12.472397	0.130052	0.028766	0.991090	0.597484	-0.799980	-0.055183	0.791264	0.599337	-0.121226	0	0	0
13680	0	0	0	0	0	9.701128	-0.537697	-1.225434	-0.001716	-0.009688	-0.001641	-0.617432	0.650146	0.613525	0.228476	-0.716138	-0.218605	-0.622220	-155.528041	-82.342393	12.471988	0.130108	0.028778	0.991082	0.597426	-0.800022	-0.055200	0.791299	0.599280	-0.121282	0	0	0
13681	0	0	0	0	0	9.734553	-0.570023	-1.198135	0.000442	-0.010205	-0.001829	-0.620850	0.654785	0.610107	0.228459	-0.716164	-0.218586	-0.622202	-155.531290	-82.338785	12.472347	0.130169	0.028792	0.991074	0.597383	-0.800053	-0.055219	0.791321	0.599238	-0.121342	0	0	0
13682	0	0	0	0	0	9.722083	-0.572960	-1.166732	-0.001896	-0.003084	-0.004820	-0.621338	0.653809	0.608398	0.228433	-0.716167	-0.218565	-0.622215	-155.535593	-82.339664	12.472617	0.130154	0.028789	0.991076	0.597328	-0.800095	-0.055203	0.791365	0.599182	-0.121332	0	0	0
13683	0	0	0	0	0	9.759869	-0.546344	-1.224063	0.004723	-0.001733	-0.008045	-0.607178	0.659668	0.613525	0.228431	-0.716151	-0.218583	-0.622229	-155.545203	-82.342215	12.483452	0.130106	0.028804	0.991082	0.597349	-0.800082	-0.055165	0.791357	0.599199	-0.121301	0	0	0
13684	0	0	0	0	0	9.720942	-0.528713	-1.200477	0.006800	-0.005252	-0.000046	-0.629150	0.645264	0.611328	0.228449	-0.716156	-0.218574	-0.622219	-155.529833	-82.340830	12.468899	0.130136	0.028776	0.991078	0.597357	-0.800073	-0.055207	0.791346	0.599212	-0.121308	0	0	0
13685	0	0	0	0	0	9.708487	-0.531791	-1.168910	0.008893	-0.005667	-0.005760	-0.622070	0.653564	0.613770	0.228456	-0.716154	-0.218593	-0.622213	-155.535561	-82.340560	12.476926	0.130137	0.028796	0.991078	0.597390	-0.800049	-0.055197	0.791322	0.599243	-0.121318	0	0	0
13686	0	0	0	0	0	9.734959	-0.551900	-1.161216	0.004577	-0.004634	-0.005384	-0.617676	0.647949	0.609619	0.228450	-0.716153	-0.218596	-0.622214	-155.541075	-82.340764	12.482161	0.130131	0.028807	0.991078	0.597387	-0.800052	-0.055184	0.791325	0.599238	-0.121320	0	0	0
13687	0	0	0	0	0	9.708433	-0.530731	-1.169839	-0.000687	-0.005144	-0.007419	-0.610596	0.649902	0.608398	0.228420	-0.716158	-0.218592	-0.622222	-155.558255	-82.341280	12.496302	0.130115	0.028837	0.991079	0.597348	-0.800084	-0.055144	0.791357	0.599194	-0.121329	0	0	0
13688	0	0	0	0	0	9.727270	-0.555051	-1.221548	-0.001983	-0.009236	-0.003332	-0.619141	0.649658	0.607666	0.228391	-0.716182	-0.218572	-0.622212	-155.567679	-82.338596	12.501689	0.130158	0.028859	0.991073	0.597290	-0.800127	-0.055143	0.791393	0.599135	-0.121380	0	0	0
13689	0	0	0	0	0	9.713628	-0.514734	-1.223579	-0.008189	-0.008140	-0.001077	-0.611328	0.655029	0.607666	0.228351	-0.716211	-0.218525	-0.622209	-155.569086	-82.335957	12.495635	0.130205	0.028855	0.991067	0.597184	-0.800206	-0.055159	0.791466	0.599031	-0.121423	0	0	0
13690	0	0	0	0	0	9.733525	-0.506978	-1.197511	-0.011441	-0.012067	-0.000638	-0.620117	0.641846	0.615723	0.228294	-0.716258	-0.218469	-0.622196	-155.578462	-82.331158	12.495506	0.130286	0.028873	0.991056	0.597048	-0.800306	-0.055173	0.791555	0.598896	-0.121508	0	0	0
13691	0	0	0	0	0	9.708046	-0.529463	-1.173619	-0.010290	-0.010875	-0.002063	-0.615967	0.647461	0.616943	0.228235	-0.716299	-0.218417	-0.622188	-155.590447	-82.327263	12.498114	0.130351	0.028894	0.991047	0.596915	-0.800405	-0.055176	0.791645	0.598763	-0.121580	0	0	0
13692	0	0	0	0	0	9.766294	-0.555309	-1.210337	-0.002245	-0.005635	0.001675	-0.618896	0.649902	0.612305	0.228226	-0.716317	-0.218375	-0.622186	-155.574286	-82.325272	12.477534	0.130395	0.028854	0.991042	0.596849	-0.800451	-0.055224	0.791687	0.598703	-0.121596	0	0	0
13693	0	0	0	0	0	9.707303	-0.545595	-1.214089	-0.003932	-0.005922	-0.000281	-0.617188	0.650391	0.612061	0.228199	-0.716338	-0.218329	-0.622187	-155.567425	-82.323527	12.464514	0.130431	0.028831	0.991038	0.596760	-0.800515	-0.055251	0.791748	0.598619	-0.121617	0	0	0
13694	0	0	0	0	0	9.739677	-0.534474	-1.219451	-0.008372	-0.001536	-0.004255	-0.620361	0.644287	0.608398	0.228153	-0.716345	-0.218285	-0.622213	-155.570533	-82.325079	12.459834	0.130407	0.028815	0.991042	0.596653	-0.800596	-0.055234	0.791833	0.598511	-0.121596	0	0	0
13695	0	0	0	0	0	9.701943	-0.559987	-1.162636	-0.001160	-0.004340	-0.005276	-0.616211	0.652344	0.615967	0.228127	-0.716349	-0.218270	-0.622222	-155.578517	-82.325571	12.464353	0.130396	0.028823	0.991043	0.596607	-0.800632	-0.055213	0.791870	0.598462	-0.121596	0	0	0
13696	0	0	0	0	0	9.727857	-0.596218	-1.193992	-0.001160	-0.004340	-0.005276	-0.616943	0.653320	0.607422	0.228101	-0.716355	-0.218254	-0.622231	-155.586374	-82.325902	12.468635	0.130389	0.028832	0.991044	0.596558	-0.800670	-0.055194	0.791907	0.598412	-0.121598	0	0	0
13697	0	0	0	0	0	9.708401	-0.586987	-1.182393	-0.000009	-0.003147	-0.006701	-0.614990	0.651611	0.613037	0.228079	-0.716353	-0.218247	-0.622243	-155.595904	-82.327152	12.475615	0.130364	0.028843	0.991047	0.596525	-0.800696	-0.055165	0.791936	0.598376	-0.121587	0	0	0
13698	0	0	0	0	0	9.694812	-0.546438	-1.184030	0.006321	-0.007596	-0.004607	-0.613037	0.651855	0.614502	0.228078	-0.716361	-0.218256	-0.622231	-155.602603	-82.325626	12.483053	0.130386	0.028865	0.991043	0.596535	-0.800689	-0.055162	0.791925	0.598384	-0.121618	0	0	0
13699	0	0	0	0	0	9.701825	-0.557881	-1.164634	0.002475	-0.007367	-0.006374	-0.614502	0.644287	0.606934	0.228057	-0.716373	-0.218255	-0.622226	-155.617034	-82.324426	12.495536	0.130400	0.028898	0.991040	0.596509	-0.800710	-0.055140	0.791943	0.598354	-0.121651	0	0	0
13700	0	0	0	0	0	9.773083	-0.563890	-1.194055	0.001947	-0.003313	-0.003054	-0.614014	0.658203	0.609863	0.228050	-0.716374	-0.218240	-0.622232	-155.612707	-82.324767	12.489320	0.130397	0.028883	0.991041	0.596482	-0.800730	-0.055146	0.791963	0.598329	-0.121641	0	0	0
13701	0	0	0	0	0	9.733579	-0.562514	-1.209546	0.002686	-0.004569	-0.003509	-0.614746	0.649658	0.616455	0.228047	-0.716377	-0.218232	-0.622233	-155.610540	-82.324552	12.486290	0.130402	0.028877	0.991041	0.596470	-0.800739	-0.055152	0.791972	0.598317	-0.121642	0	0	0
13702	0	0	0	0	0	9.746505	-0.542517	-1.203022	-0.000691	-0.005143	-0.007422	-0.619385	0.647461	0.612549	0.228015	-0.716382	-0.218227	-0.622240	-155.627846	-82.324971	12.500378	0.130388	0.028907	0.991042	0.596428	-0.800773	-0.055113	0.792006	0.598271	-0.121652	0	0	0
13703	0	0	0	0	0	9.747702	-0.585286	-1.170108	0.002359	-0.000865	-0.004025	-0.614258	0.646729	0.607666	0.228005	-0.716376	-0.218209	-0.622257	-155.622855	-82.326757	12.492987	0.130362	0.028884	0.991046	0.596395	-0.800797	-0.055111	0.792035	0.598239	-0.121620	0	0	0
13704	0	0	0	0	0	9.694637	-0.543845	-1.186646	0.007002	-0.005600	-0.003888	-0.614990	0.645264	0.618652	0.228011	-0.716378	-0.218215	-0.622251	-155.622872	-82.326102	12.494076	0.130372	0.028889	0.991044	0.596409	-0.800786	-0.055115	0.792022	0.598253	-0.121630	0	0	0
13705	0	0	0	0	0	9.708186	-0.583435	-1.185912	0.005725	-0.003439	-0.006815	-0.618652	0.651367	0.611816	0.228000	-0.716374	-0.218219	-0.622258	-155.631366	-82.327168	12.501899	0.130350	0.028903	0.991047	0.596402	-0.800793	-0.055090	0.792031	0.598243	-0.121621	0	0	0
13706	0	0	0	0	0	9.728209	-0.575237	-1.159228	0.005044	-0.005434	-0.007535	-0.610107	0.657715	0.606201	0.227988	-0.716373	-0.218232	-0.622259	-155.646344	-82.327461	12.516953	0.130338	0.028936	0.991047	0.596406	-0.800793	-0.055056	0.792030	0.598242	-0.121631	0	0	0
13707	0	0	0	0	0	9.720518	-0.579058	-1.218776	0.021041	-0.004248	-0.005277	-0.620605	0.655029	0.605225	0.228048	-0.716351	-0.218289	-0.622241	-155.639323	-82.327788	12.519987	0.130331	0.028941	0.991048	0.596546	-0.800688	-0.055068	0.791926	0.598382	-0.121619	0	0	0
13708	0	0	0	0	0	9.694529	-0.541894	-1.188425	0.011106	-0.009429	-0.007134	-0.616943	0.646973	0.613281	0.228055	-0.716357	-0.218324	-0.622221	-155.656276	-82.325900	12.540538	0.130352	0.028995	0.991044	0.596597	-0.800651	-0.055046	0.791884	0.598429	-0.121665	0	0	0
13709	0	0	0	0	0	9.765760	-0.547883	-1.218008	0.002685	-0.004569	-0.003510	-0.619629	0.649902	0.613770	0.228053	-0.716358	-0.218319	-0.622222	-155.654716	-82.325857	12.538411	0.130354	0.028991	0.991044	0.596589	-0.800657	-0.055049	0.791890	0.598421	-0.121664	0	0	0
13710	0	0	0	0	0	9.726829	-0.530561	-1.194415	0.013216	-0.003544	0.000552	-0.623047	0.646973	0.614746	0.228097	-0.716351	-0.218327	-0.622211	-155.630367	-82.325226	12.518507	0.130375	0.028948	0.991042	0.596646	-0.800610	-0.055106	0.791843	0.598486	-0.121651	0	0	0
13711	0	0	0	0	0	9.727396	-0.514277	-1.155619	0.010989	-0.002927	-0.004786	-0.615967	0.648682	0.613281	0.228116	-0.716339	-0.218344	-0.622212	-155.627439	-82.326308	12.518680	0.130356	0.028944	0.991045	0.596690	-0.800577	-0.055104	0.791813	0.598530	-0.121631	0	0	0
13712	0	0	0	0	0	9.752677	-0.491226	-1.181035	0.006262	-0.004345	-0.003435	-0.623779	0.645996	0.610107	0.228122	-0.716338	-0.218345	-0.622210	-155.623922	-82.326201	12.515776	0.130360	0.028938	0.991044	0.596698	-0.800571	-0.055112	0.791807	0.598539	-0.121629	0	0	0
13713	0	0	0	0	0	9.719681	-0.518039	-1.215248	0.007353	0.000099	-0.003687	-0.619141	0.656250	0.601563	0.228136	-0.716321	-0.218345	-0.622225	-155.613307	-82.328632	12.506285	0.130324	0.028907	0.991050	0.596715	-0.800558	-0.055117	0.791800	0.598557	-0.121581	0	0	0
13714	0	0	0	0	0	9.714446	-0.532920	-1.162981	0.003038	0.001129	-0.003307	-0.623291	0.645508	0.611328	0.228137	-0.716307	-0.218330	-0.622246	-155.601524	-82.331351	12.493177	0.130284	0.028867	0.991056	0.596697	-0.800571	-0.055123	0.791820	0.598542	-0.121527	0	0	0
13715	0	0	0	0	0	9.707978	-0.504379	-1.143975	-0.000070	0.000100	-0.005528	-0.620117	0.647705	0.606201	0.228129	-0.716292	-0.218323	-0.622269	-155.601134	-82.334409	12.491426	0.130233	0.028852	0.991063	0.596681	-0.800585	-0.055102	0.791841	0.598524	-0.121478	0	0	0
13716	0	0	0	0	0	9.748083	-0.564493	-1.135107	-0.004141	-0.008723	-0.003142	-0.620605	0.651855	0.609863	0.228094	-0.716317	-0.218295	-0.622262	-155.610137	-82.331948	12.495141	0.130273	0.028869	0.991058	0.596606	-0.800641	-0.055101	0.791890	0.598449	-0.121526	0	0	0
13717	0	0	0	0	0	9.720872	-0.559903	-1.183052	0.002274	-0.007017	-0.002539	-0.618164	0.648438	0.620605	0.228092	-0.716326	-0.218290	-0.622254	-155.609619	-82.330499	12.494014	0.130298	0.028872	0.991054	0.596596	-0.800647	-0.055112	0.791894	0.598440	-0.121548	0	0	0
13718	0	0	0	0	0	9.765536	-0.545187	-1.221006	-0.004892	-0.010619	-0.009390	-0.621094	0.649414	0.610107	0.228032	-0.716351	-0.218285	-0.622249	-155.646581	-82.328526	12.525505	0.130316	0.028951	0.991050	0.596523	-0.800706	-0.055048	0.791946	0.598358	-0.121614	0	0	0
13719	0	0	0	0	0	9.720147	-0.574867	-1.223707	-0.003050	-0.004280	-0.003395	-0.622559	0.646484	0.611572	0.228002	-0.716362	-0.218253	-0.622259	-155.648482	-82.328443	12.522070	0.130319	0.028944	0.991050	0.596449	-0.800762	-0.055044	0.792001	0.598284	-0.121618	0	0	0
13720	0	0	0	0	0	9.726548	-0.526770	-1.198368	0.002473	-0.007368	-0.006377	-0.617676	0.655029	0.607178	0.227982	-0.716372	-0.218256	-0.622254	-155.663836	-82.327453	12.536017	0.130328	0.028979	0.991047	0.596431	-0.800777	-0.055019	0.792013	0.598261	-0.121648	0	0	0
13721	0	0	0	0	0	9.746533	-0.518693	-1.172029	0.008477	-0.008109	-0.004803	-0.618896	0.645020	0.606201	0.227994	-0.716375	-0.218279	-0.622238	-155.670293	-82.325908	12.545418	0.130350	0.029006	0.991044	0.596471	-0.800747	-0.055016	0.791979	0.598300	-0.121679	0	0	0
13722	0	0	0	0	0	9.725847	-0.541961	-1.238637	0.005451	-0.002988	-0.008511	-0.615967	0.648193	0.611816	0.227983	-0.716366	-0.218293	-0.622248	-155.684533	-82.327708	12.559963	0.130312	0.029033	0.991048	0.596479	-0.800744	-0.054973	0.791979	0.598303	-0.121664	0	0	0
13723	0	0	0	0	0	9.699893	-0.504590	-1.208061	0.004572	-0.004632	-0.005393	-0.616211	0.649414	0.617188	0.227977	-0.716365	-0.218297	-0.622250	-155.689938	-82.328049	12.565213	0.130304	0.029043	0.991049	0.596478	-0.800745	-0.054959	0.791981	0.598300	-0.121664	0	0	0
13724	0	0	0	0	0	9.720607	-0.556134	-1.187002	0.009509	-0.000414	-0.003881	-0.618408	0.652588	0.614014	0.227998	-0.716347	-0.218305	-0.622259	-155.679405	-82.330100	12.557106	0.130273	0.029017	0.991053	0.596513	-0.800719	-0.054967	0.791961	0.598336	-0.121621	0	0	0
13725	0	0	0	0	0	9.721210	-0.539527	-1.148169	0.004572	-0.004632	-0.005394	-0.614990	0.642578	0.607178	0.227989	-0.716349	-0.218304	-0.622261	-155.684638	-82.330173	12.561455	0.130270	0.029027	0.991054	0.596501	-0.800729	-0.054955	0.791970	0.598323	-0.121625	0	0	0
13726	0	0	0	0	0	9.694022	-0.534780	-1.195755	0.004572	-0.004632	-0.005394	-0.619629	0.643799	0.610352	0.227983	-0.716349	-0.218307	-0.622262	-155.690186	-82.330379	12.566721	0.130263	0.029038	0.991054	0.596498	-0.800732	-0.054942	0.791973	0.598319	-0.121627	0	0	0
13727	0	0	0	0	0	9.708235	-0.557994	-1.155913	-0.000014	-0.003152	-0.006703	-0.621094	0.648682	0.611572	0.227956	-0.716347	-0.218297	-0.622277	-155.701326	-82.331833	12.574669	0.130235	0.029050	0.991057	0.596457	-0.800765	-0.054908	0.792009	0.598274	-0.121615	0	0	0
13728	0	0	0	0	0	9.734205	-0.594105	-1.186972	0.007549	-0.000251	-0.007529	-0.614990	0.646484	0.618896	0.227958	-0.716328	-0.218312	-0.622293	-155.705783	-82.334830	12.580555	0.130181	0.029053	0.991064	0.596480	-0.800750	-0.054877	0.792000	0.598294	-0.121572	0	0	0
13729	0	0	0	0	0	9.701167	-0.544809	-1.176242	0.012603	-0.002535	-0.008367	-0.617920	0.646729	0.611816	0.227969	-0.716311	-0.218343	-0.622298	-155.714939	-82.336771	12.593184	0.130142	0.029074	0.991069	0.596532	-0.800713	-0.054844	0.791968	0.598342	-0.121550	0	0	0
13730	0	0	0	0	0	9.726403	-0.521561	-1.201820	0.012053	-0.007882	-0.004732	-0.621094	0.646729	0.617432	0.227988	-0.716313	-0.218370	-0.622279	-155.719328	-82.335124	12.601604	0.130166	0.029099	0.991065	0.596587	-0.800672	-0.054846	0.791922	0.598396	-0.121580	0	0	0
13731	0	0	0	0	0	9.732832	-0.549160	-1.221629	-0.001046	-0.010848	-0.007624	-0.619873	0.645020	0.604004	0.227943	-0.716338	-0.218367	-0.622269	-155.748210	-82.332635	12.626400	0.130195	0.029165	0.991059	0.596532	-0.800716	-0.054803	0.791959	0.598334	-0.121647	0	0	0
13732	0	0	0	0	0	9.745726	-0.529093	-1.215252	0.002355	-0.000867	-0.004029	-0.623291	0.646240	0.615479	0.227937	-0.716330	-0.218354	-0.622285	-155.743155	-82.334486	12.619685	0.130167	0.029143	0.991064	0.596510	-0.800733	-0.054800	0.791980	0.598313	-0.121613	0	0	0
13733	0	0	0	0	0	9.713957	-0.523246	-1.171431	-0.006897	-0.004058	-0.005157	-0.621338	0.648682	0.609375	0.227893	-0.716339	-0.218322	-0.622301	-155.753803	-82.335222	12.623837	0.130153	0.029149	0.991065	0.596422	-0.800800	-0.054772	0.792049	0.598221	-0.121612	0	0	0
13734	0	0	0	0	0	9.726883	-0.503240	-1.164759	-0.001221	-0.001094	-0.004102	-0.624023	0.650391	0.610596	0.227874	-0.716336	-0.218299	-0.622320	-155.751475	-82.336972	12.617806	0.130126	0.029129	0.991069	0.596371	-0.800839	-0.054765	0.792091	0.598171	-0.121582	0	0	0
13735	0	0	0	0	0	9.759950	-0.551384	-1.175898	-0.000424	-0.005600	-0.005732	-0.615967	0.645996	0.614746	0.227853	-0.716340	-0.218294	-0.622324	-155.762667	-82.337036	12.626857	0.130121	0.029149	0.991070	0.596343	-0.800861	-0.054741	0.792114	0.598140	-0.121592	0	0	0
13736	0	0	0	0	0	9.739864	-0.558270	-1.203530	0.001930	-0.006467	-0.009762	-0.618164	0.639648	0.622070	0.227822	-0.716344	-0.218307	-0.622327	-155.789907	-82.337310	12.652482	0.130103	0.029207	0.991070	0.596325	-0.800879	-0.054681	0.792130	0.598114	-0.121613	0	0	0
13737	0	0	0	0	0	9.719780	-0.565206	-1.231097	0.004571	-0.004632	-0.005396	-0.621094	0.647217	0.613281	0.227802	-0.716349	-0.218297	-0.622332	-155.796861	-82.337344	12.656886	0.130100	0.029216	0.991070	0.596290	-0.800906	-0.054666	0.792157	0.598078	-0.121619	0	0	0
13738	0	0	0	0	0	9.732692	-0.545265	-1.224483	0.005251	-0.002635	-0.004677	-0.617920	0.645752	0.619141	0.227803	-0.716343	-0.218297	-0.622339	-155.795762	-82.338424	12.655837	0.130082	0.029210	0.991073	0.596292	-0.800905	-0.054661	0.792158	0.598079	-0.121601	0	0	0
13739	0	0	0	0	0	9.708067	-0.551176	-1.160582	0.004029	-0.003729	-0.008779	-0.623779	0.644775	0.606689	0.227779	-0.716339	-0.218303	-0.622349	-155.813844	-82.339867	12.672401	0.130050	0.029242	0.991076	0.596275	-0.800921	-0.054612	0.792177	0.598056	-0.121596	0	0	0
13740	0	0	0	0	0	9.714611	-0.578679	-1.179593	0.002763	0.001581	-0.005003	-0.622559	0.645752	0.607178	0.227774	-0.716322	-0.218292	-0.622375	-155.808076	-82.343228	12.665202	0.129997	0.029213	0.991084	0.596257	-0.800935	-0.054600	0.792199	0.598038	-0.121537	0	0	0
13741	0	0	0	0	0	9.726963	-0.574881	-1.211610	0.009703	-0.000763	-0.007726	-0.617920	0.650391	0.612305	0.227790	-0.716297	-0.218323	-0.622387	-155.813210	-82.346441	12.674233	0.129938	0.029221	0.991091	0.596315	-0.800894	-0.054567	0.792164	0.598093	-0.121491	0	0	0
13742	0	0	0	0	0	9.734749	-0.569720	-1.152534	0.004437	-0.001282	-0.009753	-0.625732	0.646729	0.622070	0.227773	-0.716281	-0.218337	-0.622406	-155.829962	-82.349420	12.690725	0.129879	0.029247	0.991098	0.596317	-0.800896	-0.054510	0.792173	0.598088	-0.121460	0	0	0
13743	0	0	0	0	0	9.734756	-0.569037	-1.152815	0.006728	-0.005145	-0.005589	-0.619385	0.653320	0.611328	0.227769	-0.716281	-0.218344	-0.622405	-155.836438	-82.349404	12.697431	0.129876	0.029263	0.991098	0.596321	-0.800894	-0.054496	0.792170	0.598090	-0.121467	0	0	0
13744	0	0	0	0	0	9.727618	-0.556598	-1.173204	0.008284	-0.001505	-0.007990	-0.620605	0.645752	0.622070	0.227771	-0.716265	-0.218364	-0.622416	-155.844530	-82.351852	12.707408	0.129829	0.029276	0.991104	0.596351	-0.800874	-0.054462	0.792155	0.598116	-0.121436	0	0	0
13745	0	0	0	0	0	9.741336	-0.595840	-1.171945	0.017730	0.001337	-0.010705	-0.626465	0.654297	0.604980	0.227798	-0.716227	-0.218416	-0.622432	-155.852856	-82.356350	12.722356	0.129746	0.029293	0.991114	0.596449	-0.800805	-0.054413	0.792095	0.598209	-0.121373	0	0	0
13746	0	0	0	0	0	9.728506	-0.614671	-1.178498	0.017941	0.004138	-0.007841	-0.614258	0.652832	0.618652	0.227842	-0.716181	-0.218459	-0.622453	-155.844985	-82.361713	12.721810	0.129656	0.029271	0.991127	0.596555	-0.800727	-0.054391	0.792030	0.598314	-0.121281	0	0	0
13747	0	0	0	0	0	9.766704	-0.571823	-1.196552	0.021906	-0.002587	-0.008427	-0.620117	0.651855	0.612793	0.227896	-0.716150	-0.218529	-0.622445	-155.847651	-82.363752	12.734965	0.129615	0.029293	0.991132	0.596704	-0.800617	-0.054371	0.791925	0.598459	-0.121251	0	0	0
13748	0	0	0	0	0	9.754434	-0.574570	-1.164384	0.023264	0.001407	-0.006992	-0.611572	0.653320	0.612549	0.227958	-0.716108	-0.218589	-0.622450	-155.838193	-82.367488	12.735895	0.129551	0.029281	0.991140	0.596851	-0.800508	-0.054365	0.791824	0.598606	-0.121183	0	0	0
13749	0	0	0	0	0	9.728478	-0.537294	-1.133502	0.022643	-0.003842	-0.008885	-0.621582	0.647461	0.612305	0.228007	-0.716082	-0.218657	-0.622437	-155.844329	-82.368759	12.752090	0.129521	0.029313	0.991143	0.596994	-0.800403	-0.054343	0.791721	0.598745	-0.121169	0	0	0
13750	0	0	0	0	0	9.701293	-0.532257	-1.180940	0.021149	-0.004490	-0.014681	-0.621094	0.652588	0.606934	0.228032	-0.716052	-0.218745	-0.622432	-155.876414	-82.371214	12.793711	0.129459	0.029397	0.991149	0.597134	-0.800304	-0.054258	0.791626	0.598873	-0.121160	0	0	0
13751	0	0	0	0	0	9.699918	-0.488120	-1.214612	0.015491	-0.004301	-0.009028	-0.617188	0.646484	0.609863	0.228058	-0.716032	-0.218799	-0.622426	-155.888795	-82.372620	12.812912	0.129425	0.029435	0.991152	0.597232	-0.800233	-0.054221	0.791557	0.598966	-0.121150	0	0	0
13752	0	0	0	0	0	9.773186	-0.520492	-1.171528	0.019940	-0.002430	-0.012082	-0.619141	0.648193	0.613037	0.228088	-0.716000	-0.218871	-0.622427	-155.907854	-82.375541	12.840691	0.129361	0.029487	0.991159	0.597360	-0.800142	-0.054160	0.791471	0.599085	-0.121122	0	0	0
13753	0	0	0	0	0	9.753758	-0.511116	-1.159690	0.021900	-0.002586	-0.008437	-0.617188	0.646973	0.615479	0.228135	-0.715971	-0.218934	-0.622421	-155.911690	-82.377528	12.853862	0.129321	0.029509	0.991164	0.597493	-0.800045	-0.054138	0.791378	0.599214	-0.121094	0	0	0
13754	0	0	0	0	0	9.722028	-0.505091	-1.115697	0.009697	-0.000766	-0.007735	-0.621582	0.648926	0.606934	0.228144	-0.715951	-0.218957	-0.622433	-155.916740	-82.380301	12.861587	0.129270	0.029516	0.991170	0.597533	-0.800017	-0.054108	0.791355	0.599252	-0.121055	0	0	0
13755	0	0	0	0	0	9.720833	-0.537195	-1.193848	0.011447	-0.003725	-0.006953	-0.614990	0.645020	0.610107	0.228158	-0.715938	-0.218984	-0.622433	-155.922758	-82.381390	12.871121	0.129247	0.029533	0.991173	0.597584	-0.799980	-0.054088	0.791321	0.599300	-0.121044	0	0	0
13756	0	0	0	0	0	9.741503	-0.512343	-1.128094	0.018519	-0.003173	-0.012349	-0.621826	0.650391	0.607910	0.228181	-0.715910	-0.219054	-0.622432	-155.945019	-82.383982	12.901309	0.129188	0.029591	0.991179	0.597701	-0.799897	-0.054022	0.791242	0.599407	-0.121024	0	0	0
13757	0	0	0	0	0	9.765538	-0.521517	-1.231288	0.021565	0.001117	-0.008963	-0.618652	0.651367	0.602295	0.228232	-0.715868	-0.219116	-0.622440	-155.944390	-82.388097	12.910268	0.129114	0.029595	0.991188	0.597838	-0.799796	-0.053995	0.791151	0.599541	-0.120958	0	0	0
13758	0	0	0	0	0	9.746706	-0.495882	-1.180432	0.019801	-0.005325	-0.009421	-0.619629	0.648926	0.610352	0.228267	-0.715848	-0.219182	-0.622427	-155.958243	-82.388878	12.932714	0.129089	0.029643	0.991190	0.597961	-0.799707	-0.053960	0.791062	0.599658	-0.120959	0	0	0
13759	0	0	0	0	0	9.720911	-0.534271	-1.194526	0.005443	-0.002996	-0.008522	-0.625000	0.643311	0.606689	0.228262	-0.715836	-0.219202	-0.622436	-155.971708	-82.390816	12.947396	0.129049	0.029668	0.991194	0.597982	-0.799694	-0.053918	0.791053	0.599674	-0.120941	0	0	0
13760	0	0	0	0	0	9.740953	-0.525877	-1.167918	0.005308	-0.005891	-0.005853	-0.625244	0.648926	0.610107	0.228255	-0.715838	-0.219210	-0.622432	-155.980884	-82.390468	12.956746	0.129050	0.029691	0.991194	0.597985	-0.799693	-0.053901	0.791050	0.599675	-0.120955	0	0	0
13761	0	0	0	0	0	9.734351	-0.497295	-1.149603	0.006998	-0.005596	-0.003899	-0.619385	0.654541	0.608887	0.228264	-0.715837	-0.219221	-0.622427	-155.981423	-82.390169	12.958975	0.129054	0.029697	0.991193	0.598009	-0.799675	-0.053902	0.791032	0.599698	-0.120960	0	0	0
13762	0	0	0	0	0	9.707112	-0.492854	-1.197060	0.006392	-0.001446	-0.006114	-0.616455	0.649414	0.601074	0.228266	-0.715824	-0.219229	-0.622439	-155.983244	-82.392208	12.961531	0.129018	0.029695	0.991198	0.598021	-0.799667	-0.053884	0.791028	0.599709	-0.120930	0	0	0
13763	0	0	0	0	0	9.733715	-0.512861	-1.189200	0.006998	-0.005596	-0.003900	-0.615967	0.647705	0.614258	0.228280	-0.715822	-0.219241	-0.622431	-155.981671	-82.391667	12.962228	0.129027	0.029699	0.991196	0.598052	-0.799643	-0.053891	0.791003	0.599740	-0.120937	0	0	0
13764	0	0	0	0	0	9.727114	-0.484272	-1.170851	0.000995	-0.004867	-0.005466	-0.624512	0.648193	0.605713	0.228260	-0.715827	-0.219233	-0.622435	-155.990016	-82.391764	12.968246	0.129022	0.029712	0.991197	0.598021	-0.799668	-0.053873	0.791027	0.599707	-0.120943	0	0	0
13765	0	0	0	0	0	9.720802	-0.531343	-1.196722	0.002951	0.001217	-0.008852	-0.619141	0.654541	0.609131	0.228244	-0.715806	-0.219237	-0.622464	-155.999764	-82.395915	12.976775	0.128948	0.029715	0.991206	0.598009	-0.799680	-0.053823	0.791048	0.599691	-0.120887	0	0	0
13766	0	0	0	0	0	9.755208	-0.546793	-1.129548	0.006064	-0.003981	0.000395	-0.626709	0.651855	0.617920	0.228262	-0.715809	-0.219223	-0.622460	-155.980684	-82.395109	12.958055	0.128971	0.029676	0.991204	0.598010	-0.799676	-0.053869	0.791044	0.599698	-0.120881	0	0	0
13767	0	0	0	0	0	9.740853	-0.523129	-1.169981	0.007342	0.000104	-0.003707	-0.618164	0.652832	0.603516	0.228277	-0.715792	-0.219224	-0.622473	-155.969302	-82.397428	12.948044	0.128937	0.029644	0.991210	0.598030	-0.799661	-0.053876	0.791034	0.599720	-0.120834	0	0	0
13768	0	0	0	0	0	9.727963	-0.542420	-1.176976	0.001945	-0.003317	-0.003057	-0.625488	0.651855	0.609131	0.228270	-0.715793	-0.219209	-0.622479	-155.964954	-82.397774	12.941806	0.128934	0.029629	0.991210	0.598003	-0.799680	-0.053883	0.791055	0.599694	-0.120824	0	0	0
13769	0	0	0	0	0	9.728512	-0.525843	-1.138574	0.003290	-0.008721	-0.001297	-0.621826	0.647461	0.609619	0.228276	-0.715808	-0.219205	-0.622462	-155.961225	-82.395092	12.938308	0.128981	0.029631	0.991204	0.598003	-0.799678	-0.053910	0.791047	0.599697	-0.120863	0	0	0
13770	0	0	0	0	0	9.740698	-0.522585	-1.171518	0.003290	-0.008721	-0.001297	-0.623047	0.654541	0.611328	0.228273	-0.715826	-0.219194	-0.622445	-155.958658	-82.392199	12.934644	0.129032	0.029634	0.991198	0.597985	-0.799690	-0.053936	0.791053	0.599681	-0.120907	0	0	0
13771	0	0	0	0	0	9.693927	-0.509953	-1.207317	0.004646	-0.004724	0.000134	-0.617676	0.651611	0.615723	0.228287	-0.715831	-0.219180	-0.622440	-155.942292	-82.391185	12.918290	0.129058	0.029601	0.991195	0.597982	-0.799690	-0.053977	0.791051	0.599683	-0.120907	0	0	0
13772	0	0	0	0	0	9.706986	-0.566152	-1.245587	0.004901	-0.008338	-0.004878	-0.618652	0.651855	0.604492	0.228280	-0.715842	-0.219186	-0.622427	-155.952159	-82.389330	12.928102	0.129084	0.029631	0.991191	0.597981	-0.799691	-0.053970	0.791048	0.599680	-0.120946	0	0	0
13773	0	0	0	0	0	9.747069	-0.550345	-1.192124	0.003635	-0.003022	-0.001105	-0.619873	0.654785	0.608887	0.228287	-0.715843	-0.219170	-0.622430	-155.937697	-82.389334	12.912817	0.129092	0.029596	0.991191	0.597967	-0.799699	-0.054000	0.791057	0.599671	-0.120932	0	0	0
13774	0	0	0	0	0	9.726967	-0.558124	-1.219388	0.015095	-0.003581	-0.001363	-0.619629	0.643555	0.605713	0.228332	-0.715832	-0.219190	-0.622419	-155.919645	-82.389146	12.900355	0.129101	0.029569	0.991190	0.598042	-0.799641	-0.054040	0.790998	0.599750	-0.120918	0	0	0
13775	0	0	0	0	0	9.727576	-0.541732	-1.180488	0.012604	0.000632	-0.001691	-0.618896	0.655029	0.613770	0.228375	-0.715808	-0.219201	-0.622426	-155.896300	-82.391366	12.881632	0.129073	0.029518	0.991196	0.598105	-0.799591	-0.054073	0.790955	0.599819	-0.120861	0	0	0
13776	0	0	0	0	0	9.759928	-0.530773	-1.185523	0.016916	-0.000391	-0.002081	-0.628174	0.650879	0.607910	0.228428	-0.715784	-0.219226	-0.622425	-155.874424	-82.393013	12.866364	0.129054	0.029477	0.991199	0.598196	-0.799521	-0.054108	0.790890	0.599914	-0.120814	0	0	0
13777	0	0	0	0	0	9.708766	-0.516691	-1.129350	0.016177	0.000864	-0.001627	-0.614746	0.646484	0.613037	0.228485	-0.715756	-0.219249	-0.622429	-155.848405	-82.395340	12.847156	0.129024	0.029425	0.991205	0.598289	-0.799449	-0.054146	0.790824	0.600013	-0.120753	0	0	0
13778	0	0	0	0	0	9.713856	-0.501698	-1.181649	0.009091	-0.002854	-0.002927	-0.622314	0.647217	0.608154	0.228505	-0.715748	-0.219255	-0.622429	-155.838636	-82.395896	12.839580	0.129019	0.029406	0.991206	0.598319	-0.799425	-0.054163	0.790803	0.600045	-0.120735	0	0	0
13779	0	0	0	0	0	9.746177	-0.490468	-1.187051	0.009557	-0.003662	-0.005076	-0.615967	0.656006	0.606201	0.228515	-0.715740	-0.219267	-0.622429	-155.838512	-82.396523	12.841379	0.129007	0.029408	0.991208	0.598346	-0.799405	-0.054158	0.790784	0.600072	-0.120725	0	0	0
13780	0	0	0	0	0	9.693721	-0.509085	-1.209334	0.011114	-0.006258	-0.000452	-0.619385	0.649170	0.602295	0.228546	-0.715743	-0.219275	-0.622412	-155.823871	-82.394719	12.830057	0.129043	0.029389	0.991203	0.598389	-0.799371	-0.054202	0.790746	0.600119	-0.120740	0	0	0
13781	0	0	0	0	0	9.733170	-0.509889	-1.194929	0.013736	-0.007578	-0.002795	-0.620361	0.643555	0.613037	0.228585	-0.715742	-0.219306	-0.622388	-155.817597	-82.392870	12.829856	0.129075	0.029396	0.991199	0.598471	-0.799307	-0.054228	0.790679	0.600203	-0.120763	0	0	0
13782	0	0	0	0	0	9.740317	-0.521320	-1.175244	0.009283	-0.003216	-0.006770	-0.627441	0.650391	0.604492	0.228593	-0.715730	-0.219327	-0.622391	-155.823394	-82.394139	12.838094	0.129049	0.029409	0.991202	0.598507	-0.799282	-0.054207	0.790655	0.600236	-0.120748	0	0	0
13783	0	0	0	0	0	9.725900	-0.497577	-1.215977	0.013269	-0.006769	-0.000648	-0.615967	0.646240	0.611816	0.228631	-0.715730	-0.219344	-0.622371	-155.809630	-82.392362	12.829100	0.129084	0.029396	0.991198	0.598570	-0.799232	-0.054249	0.790602	0.600304	-0.120763	0	0	0
13784	0	0	0	0	0	9.700693	-0.520310	-1.191149	0.007945	-0.004045	-0.001496	-0.615479	0.655762	0.610352	0.228650	-0.715729	-0.219343	-0.622367	-155.797011	-82.391959	12.817985	0.129096	0.029373	0.991197	0.598588	-0.799216	-0.054278	0.790586	0.600326	-0.120758	0	0	0
13785	0	0	0	0	0	9.746725	-0.549316	-1.195408	0.007540	-0.006490	-0.000517	-0.615234	0.656006	0.607910	0.228665	-0.715738	-0.219336	-0.622353	-155.784312	-82.389873	12.806029	0.129137	0.029354	0.991192	0.598595	-0.799208	-0.054320	0.790574	0.600337	-0.120779	0	0	0
13786	0	0	0	0	0	9.746653	-0.549352	-1.195981	0.005384	-0.005979	-0.000322	-0.621826	0.647949	0.612061	0.228676	-0.715747	-0.219325	-0.622343	-155.771976	-82.388183	12.793721	0.129172	0.029332	0.991188	0.598592	-0.799208	-0.054358	0.790571	0.600339	-0.120794	0	0	0
13787	0	0	0	0	0	9.702013	-0.563335	-1.159147	0.009827	-0.004110	-0.003386	-0.623047	0.656250	0.614014	0.228696	-0.715741	-0.219336	-0.622338	-155.765002	-82.388154	12.789458	0.129175	0.029323	0.991188	0.598629	-0.799179	-0.054373	0.790543	0.600377	-0.120787	0	0	0
13788	0	0	0	0	0	9.747200	-0.532892	-1.157738	0.010586	-0.002194	0.002861	-0.614502	0.649414	0.613037	0.228740	-0.715736	-0.219325	-0.622332	-155.730586	-82.387691	12.757880	0.129199	0.029253	0.991187	0.598662	-0.799149	-0.054449	0.790513	0.600421	-0.120762	0	0	0
13789	0	0	0	0	0	9.733650	-0.569156	-1.203629	0.006467	-0.001534	-0.000588	-0.618652	0.648193	0.606201	0.228757	-0.715730	-0.219310	-0.622337	-155.710303	-82.388247	12.737726	0.129200	0.029206	0.991188	0.598662	-0.799147	-0.054487	0.790513	0.600426	-0.120734	0	0	0
13790	0	0	0	0	0	9.727088	-0.540920	-1.184877	0.011183	-0.000112	-0.001960	-0.621094	0.651123	0.612549	0.228790	-0.715712	-0.219316	-0.622343	-155.690709	-82.390004	12.721447	0.129178	0.029162	0.991192	0.598707	-0.799111	-0.054516	0.790483	0.600476	-0.120688	0	0	0
13791	0	0	0	0	0	9.746538	-0.549478	-1.196857	0.011922	-0.001367	-0.002415	-0.618408	0.649658	0.613037	0.228823	-0.715697	-0.219327	-0.622345	-155.674422	-82.391271	12.708917	0.129163	0.029129	0.991195	0.598758	-0.799071	-0.054541	0.790447	0.600531	-0.120652	0	0	0
13792	0	0	0	0	0	9.739976	-0.521262	-1.178091	0.009300	-0.000046	-0.000071	-0.616943	0.647705	0.606934	0.228856	-0.715683	-0.219321	-0.622352	-155.648396	-82.392616	12.685060	0.129153	0.029070	0.991198	0.598785	-0.799047	-0.054587	0.790427	0.600565	-0.120606	0	0	0
13793	0	0	0	0	0	9.699812	-0.537190	-1.231921	0.012407	0.000996	0.002139	-0.622314	0.645752	0.609619	0.228905	-0.715665	-0.219311	-0.622357	-155.609902	-82.393939	12.649926	0.129148	0.028986	0.991202	0.598828	-0.799011	-0.054658	0.790396	0.600618	-0.120549	0	0	0
13794	0	0	0	0	0	9.714831	-0.544512	-1.152557	0.013146	-0.000259	0.001683	-0.623047	0.651123	0.605713	0.228956	-0.715650	-0.219311	-0.622357	-155.575175	-82.394753	12.619514	0.129150	0.028915	0.991203	0.598883	-0.798964	-0.054725	0.790354	0.600683	-0.120503	0	0	0
13795	0	0	0	0	0	9.766559	-0.542443	-1.170024	0.006395	-0.007680	0.000917	-0.621826	0.659668	0.608398	0.228974	-0.715662	-0.219303	-0.622339	-155.560583	-82.392097	12.605873	0.129202	0.028894	0.991197	0.598892	-0.798954	-0.054775	0.790339	0.600697	-0.120531	0	0	0
13796	0	0	0	0	0	9.701786	-0.564589	-1.160438	0.008824	-0.008637	0.002414	-0.620605	0.648926	0.611328	0.229003	-0.715678	-0.219295	-0.622312	-155.540364	-82.388365	12.587599	0.129274	0.028867	0.991189	0.598913	-0.798934	-0.054844	0.790311	0.600725	-0.120570	0	0	0
13797	0	0	0	0	0	9.746266	-0.550952	-1.198395	0.010918	-0.005894	0.003384	-0.620605	0.657959	0.615723	0.229049	-0.715682	-0.219291	-0.622292	-155.509470	-82.385882	12.560274	0.129330	0.028814	0.991183	0.598955	-0.798896	-0.054927	0.790270	0.600778	-0.120580	0	0	0
13798	0	0	0	0	0	9.740480	-0.582737	-1.185572	0.015229	-0.006917	0.002990	-0.621582	0.647949	0.615723	0.229104	-0.715686	-0.219299	-0.622264	-155.480316	-82.382908	12.536688	0.129392	0.028772	0.991176	0.599026	-0.798838	-0.055010	0.790206	0.600858	-0.120598	0	0	0
13799	0	0	0	0	0	9.746722	-0.535380	-1.160614	0.015228	-0.006917	0.002989	-0.626953	0.652100	0.608887	0.229156	-0.715692	-0.219303	-0.622236	-155.451206	-82.379818	12.512389	0.129456	0.028729	0.991169	0.599086	-0.798787	-0.055093	0.790150	0.600927	-0.120619	0	0	0
13800	0	0	0	0	0	9.693375	-0.495087	-1.177330	0.009846	-0.000937	0.003311	-0.619141	0.652832	0.605957	0.229200	-0.715684	-0.219287	-0.622235	-155.413280	-82.379880	12.476841	0.129473	0.028649	0.991169	0.599113	-0.798761	-0.055173	0.790127	0.600966	-0.120582	0	0	0
13801	0	0	0	0	0	9.732233	-0.512723	-1.201327	0.008155	-0.001236	0.001360	-0.622070	0.648438	0.606689	0.229236	-0.715674	-0.219278	-0.622237	-155.383960	-82.380467	12.449865	0.129476	0.028585	0.991170	0.599142	-0.798736	-0.055230	0.790104	0.601003	-0.120544	0	0	0
13802	0	0	0	0	0	9.737913	-0.481758	-1.214678	0.004797	0.001342	0.004159	-0.622803	0.645020	0.608398	0.229267	-0.715665	-0.219241	-0.622249	-155.341550	-82.381507	12.406874	0.129480	0.028484	0.991173	0.599128	-0.798740	-0.055312	0.790114	0.601002	-0.120487	0	0	0
13803	0	0	0	0	0	9.732214	-0.513531	-1.201133	0.004797	0.001342	0.004159	-0.621338	0.651611	0.610596	0.229297	-0.715655	-0.219205	-0.622262	-155.299658	-82.382781	12.364446	0.129480	0.028384	0.991176	0.599116	-0.798744	-0.055391	0.790124	0.601001	-0.120426	0	0	0
13804	0	0	0	0	0	9.707077	-0.536567	-1.175618	0.006679	0.001275	0.002268	-0.616699	0.651611	0.611572	0.229329	-0.715643	-0.219180	-0.622273	-155.263622	-82.384232	12.328974	0.129473	0.028298	0.991179	0.599120	-0.798737	-0.055456	0.790122	0.601015	-0.120369	0	0	0
13805	0	0	0	0	0	9.726529	-0.545411	-1.187404	0.000679	0.002000	0.000712	-0.619629	0.649902	0.615967	0.229334	-0.715634	-0.219139	-0.622296	-155.235489	-82.386382	12.297641	0.129452	0.028219	0.991184	0.599073	-0.798769	-0.055500	0.790161	0.600976	-0.120308	0	0	0
13806	0	0	0	0	0	9.700740	-0.584642	-1.200918	0.006465	-0.001536	-0.000591	-0.613525	0.649902	0.613037	0.229352	-0.715627	-0.219127	-0.622301	-155.215727	-82.387053	12.278465	0.129450	0.028174	0.991186	0.599079	-0.798762	-0.055536	0.790157	0.600987	-0.120278	0	0	0
13807	0	0	0	0	0	9.722281	-0.620007	-1.140747	0.009499	-0.006638	0.003125	-0.626709	0.645508	0.610107	0.229380	-0.715641	-0.219108	-0.622281	-155.189101	-82.383946	12.252664	0.129515	0.028127	0.991178	0.599083	-0.798753	-0.055615	0.790142	0.601001	-0.120301	0	0	0
13808	0	0	0	0	0	9.727897	-0.589121	-1.154608	0.021357	-0.004753	0.001869	-0.621582	0.652344	0.611084	0.229457	-0.715630	-0.219137	-0.622256	-155.157035	-82.382349	12.229681	0.129553	0.028081	0.991175	0.599204	-0.798657	-0.055694	0.790045	0.601131	-0.120295	0	0	0
13809	0	0	0	0	0	9.726334	-0.546557	-1.188473	0.020618	-0.003497	0.002322	-0.619141	0.647949	0.607666	0.229532	-0.715615	-0.219161	-0.622236	-155.122017	-82.381492	12.203191	0.129581	0.028024	0.991173	0.599316	-0.798567	-0.055773	0.789955	0.601253	-0.120274	0	0	0
13810	0	0	0	0	0	9.739165	-0.527346	-1.182078	0.012796	-0.005961	0.001491	-0.621582	0.651123	0.612549	0.229575	-0.715618	-0.219166	-0.622216	-155.098524	-82.379356	12.183909	0.129626	0.027988	0.991168	0.599369	-0.798523	-0.055838	0.789907	0.601314	-0.120285	0	0	0
13811	0	0	0	0	0	9.732539	-0.499468	-1.163911	-0.003835	-0.006009	0.005291	-0.613770	0.654053	0.605957	0.229568	-0.715643	-0.219105	-0.622211	-155.070097	-82.376331	12.149671	0.129694	0.027922	0.991161	0.599281	-0.798583	-0.055920	0.789963	0.601237	-0.120305	0	0	0
13812	0	0	0	0	0	9.720237	-0.502766	-1.132229	-0.001822	-0.003188	0.000725	-0.621826	0.649414	0.606689	0.229560	-0.715653	-0.219064	-0.622217	-155.052971	-82.375817	12.128363	0.129713	0.027875	0.991160	0.599220	-0.798626	-0.055960	0.790006	0.601181	-0.120296	0	0	0
13813	0	0	0	0	0	9.738969	-0.528259	-1.183284	-0.003489	-0.000309	0.005474	-0.620361	0.654785	0.609375	0.229566	-0.715659	-0.219000	-0.622230	-155.012366	-82.375705	12.082789	0.129737	0.027773	0.991159	0.599144	-0.798677	-0.056046	0.790060	0.601119	-0.120258	0	0	0
13814	0	0	0	0	0	9.699421	-0.527640	-1.198261	-0.000273	0.000444	-0.001693	-0.612305	0.654541	0.609619	0.229560	-0.715653	-0.218969	-0.622251	-154.997167	-82.377661	12.064319	0.129713	0.027724	0.991164	0.599098	-0.798710	-0.056063	0.790098	0.601077	-0.120212	0	0	0
13815	0	0	0	0	0	9.726871	-0.607601	-1.195542	0.000606	-0.004145	0.002221	-0.617188	0.658203	0.604980	0.229564	-0.715665	-0.218930	-0.622249	-154.973451	-82.376163	12.037750	0.129751	0.027669	0.991160	0.599054	-0.798740	-0.056124	0.790126	0.601040	-0.120213	0	0	0
13816	0	0	0	0	0	9.753445	-0.628250	-1.187705	0.009903	-0.004193	0.002141	-0.623535	0.643555	0.614014	0.229601	-0.715665	-0.218922	-0.622238	-154.945946	-82.374779	12.012748	0.129787	0.027617	0.991157	0.599083	-0.798713	-0.056192	0.790098	0.601078	-0.120207	0	0	0
13817	0	0	0	0	0	9.720224	-0.580178	-1.177334	0.026557	-0.000967	0.005036	-0.625732	0.655518	0.610352	0.229710	-0.715640	-0.218952	-0.622217	-154.891755	-82.374440	11.970394	0.129813	0.027523	0.991156	0.599240	-0.798587	-0.056308	0.789975	0.601250	-0.120160	0	0	0
13818	0	0	0	0	0	9.682007	-0.547110	-1.114272	0.024342	0.002801	0.006397	-0.621826	0.648193	0.610352	0.229819	-0.715606	-0.218965	-0.622210	-154.826790	-82.375643	11.915946	0.129819	0.027395	0.991159	0.599378	-0.798475	-0.056435	0.789869	0.601405	-0.120077	0	0	0
13819	0	0	0	0	0	9.694213	-0.545040	-1.146180	0.009188	0.000243	0.009292	-0.615234	0.654297	0.603516	0.229881	-0.715601	-0.218926	-0.622207	-154.764160	-82.374979	11.855247	0.129859	0.027260	0.991158	0.599394	-0.798452	-0.056571	0.789850	0.601441	-0.120025	0	0	0
13820	0	0	0	0	0	9.745248	-0.560213	-1.202373	0.003985	-0.003544	0.006120	-0.625732	0.659424	0.609375	0.229910	-0.715610	-0.218885	-0.622200	-154.723506	-82.372947	11.813558	0.129913	0.027172	0.991153	0.599372	-0.798462	-0.056672	0.789858	0.601432	-0.120017	0	0	0
13821	0	0	0	0	0	9.700491	-0.498599	-1.120954	-0.000655	0.001181	0.005987	-0.619141	0.654053	0.615479	0.229934	-0.715608	-0.218830	-0.622214	-154.676066	-82.373504	11.763458	0.129927	0.027057	0.991154	0.599328	-0.798488	-0.056767	0.789889	0.601402	-0.119961	0	0	0
13822	0	0	0	0	0	9.706939	-0.527620	-1.139953	-0.010896	-0.006544	0.010709	-0.619629	0.650879	0.612549	0.229920	-0.715649	-0.218729	-0.622207	-154.631729	-82.368785	11.709450	0.130033	0.026951	0.991143	0.599182	-0.798589	-0.056895	0.789982	0.601274	-0.119991	0	0	0
13823	0	0	0	0	0	9.726983	-0.520340	-1.113313	-0.010225	0.001675	0.004375	-0.616211	0.659912	0.604004	0.229893	-0.715659	-0.218638	-0.622237	-154.596633	-82.369760	11.664207	0.130038	0.026845	0.991146	0.599037	-0.798693	-0.056961	0.790092	0.601139	-0.119941	0	0	0
13824	0	0	0	0	0	9.727761	-0.580463	-1.118532	-0.011560	0.000856	0.009651	-0.620361	0.649170	0.606445	0.229882	-0.715677	-0.218531	-0.622258	-154.543237	-82.369119	11.600676	0.130078	0.026703	0.991144	0.598887	-0.798797	-0.057077	0.790199	0.601007	-0.119898	0	0	0
13825	0	0	0	0	0	9.721275	-0.629326	-1.144209	-0.010683	-0.003733	0.013564	-0.618652	0.655273	0.611328	0.229887	-0.715710	-0.218422	-0.622257	-154.481466	-82.365235	11.530134	0.130177	0.026556	0.991135	0.598751	-0.798887	-0.057236	0.790285	0.600894	-0.119897	0	0	0
13826	0	0	0	0	0	9.721195	-0.630563	-1.144210	0.005094	0.004077	0.012544	-0.620850	0.657715	0.610596	0.229948	-0.715701	-0.218352	-0.622268	-154.401479	-82.365525	11.449400	0.130209	0.026372	0.991136	0.598729	-0.798892	-0.057401	0.790297	0.600896	-0.119812	0	0	0
13827	0	0	0	0	0	9.746371	-0.608901	-1.168889	0.007242	0.009784	0.005303	-0.616699	0.661377	0.610352	0.230002	-0.715665	-0.218310	-0.622305	-154.336739	-82.370524	11.385526	0.130154	0.026209	0.991147	0.598736	-0.798880	-0.057499	0.790300	0.600920	-0.119670	0	0	0
13828	0	0	0	0	0	9.719163	-0.605464	-1.215032	0.001708	0.009699	0.001603	-0.617920	0.650879	0.612061	0.230023	-0.715631	-0.218262	-0.622353	-154.290362	-82.376411	11.336745	0.130076	0.026079	0.991161	0.598702	-0.798902	-0.057551	0.790339	0.600896	-0.119531	0	0	0
13829	0	0	0	0	0	9.692010	-0.602025	-1.260830	-0.001027	0.017537	0.006275	-0.617432	0.658447	0.606934	0.230058	-0.715582	-0.218179	-0.622426	-154.211925	-82.385044	11.253890	0.129967	0.025861	0.991181	0.598637	-0.798943	-0.057650	0.790406	0.600850	-0.119318	0	0	0
13830	0	0	0	0	0	9.679913	-0.605594	-1.227276	-0.007102	0.012120	0.006230	-0.619141	0.657959	0.604980	0.230064	-0.715555	-0.218084	-0.622487	-154.148019	-82.391009	11.182334	0.129898	0.025679	0.991195	0.598527	-0.799020	-0.057738	0.790501	0.600757	-0.119161	0	0	0
13831	0	0	0	0	0	9.721039	-0.649727	-1.177310	-0.010132	0.017223	0.002513	-0.612305	0.653564	0.610596	0.230061	-0.715510	-0.217994	-0.622572	-154.088757	-82.400567	11.114873	0.129766	0.025494	0.991217	0.598413	-0.799101	-0.057789	0.790609	0.600656	-0.118952	0	0	0
13832	0	0	0	0	0	9.747276	-0.763091	-1.250549	-0.018206	0.018387	0.006684	-0.612549	0.649902	0.602051	0.230036	-0.715478	-0.217856	-0.622667	-154.017417	-82.409626	11.029401	0.129650	0.025270	0.991238	0.598214	-0.799244	-0.057868	0.790778	0.600475	-0.118739	0	0	0
13833	0	0	0	0	0	9.732343	-0.681125	-1.283631	-0.010557	0.024392	0.018047	-0.620117	0.657227	0.611816	0.230080	-0.715431	-0.217692	-0.622761	-153.885140	-82.418742	10.886567	0.129558	0.024917	0.991259	0.598057	-0.799347	-0.058073	0.790913	0.600353	-0.118464	0	0	0
13834	0	0	0	0	0	9.713068	-0.674476	-1.269375	-0.016401	0.024966	0.027548	-0.619385	0.650879	0.612549	0.230133	-0.715399	-0.217477	-0.622853	-153.719134	-82.425856	10.706644	0.129514	0.024488	0.991275	0.597845	-0.799484	-0.058361	0.791080	0.600188	-0.118185	0	0	0
13835	0	0	0	0	0	9.692322	-0.549227	-1.244134	-0.037738	0.032915	0.032356	-0.621826	0.652588	0.611328	0.230132	-0.715373	-0.217167	-0.622992	-153.530984	-82.435689	10.491615	0.129438	0.023970	0.991298	0.597452	-0.799755	-0.058673	0.791389	0.599848	-0.117840	0	0	0
13836	0	0	0	0	0	9.750141	-0.518102	-1.271791	-0.054672	0.030151	0.027741	-0.619385	0.652588	0.613281	0.230055	-0.715368	-0.216827	-0.623144	-153.375402	-82.445267	10.300094	0.129355	0.023508	0.991320	0.596937	-0.800121	-0.058919	0.791791	0.599377	-0.117532	0	0	0
13837	0	0	0	0	0	9.743270	-0.508624	-1.289019	-0.075478	0.037213	0.035910	-0.619385	0.655273	0.605469	0.229934	-0.715376	-0.216382	-0.623335	-153.186126	-82.456262	10.062044	0.129264	0.022937	0.991345	0.596240	-0.800619	-0.059221	0.792331	0.598734	-0.117167	0	0	0
13838	0	0	0	0	0	9.756552	-0.567277	-1.323611	-0.087375	0.032171	0.030427	-0.618652	0.651367	0.603516	0.229750	-0.715405	-0.215928	-0.623527	-153.033999	-82.466025	9.855116	0.129179	0.022441	0.991367	0.595462	-0.801181	-0.059455	0.792930	0.598002	-0.116859	0	0	0
13839	0	0	0	0	0	9.754252	-0.558692	-1.432705	-0.088693	0.024920	0.027806	-0.615479	0.650879	0.604736	0.229552	-0.715453	-0.215493	-0.623695	-152.905444	-82.472862	9.672302	0.129134	0.022009	0.991383	0.594691	-0.801737	-0.059663	0.793515	0.597271	-0.116620	0	0	0
13840	0	0	0	0	0	9.701465	-0.594755	-1.491464	-0.082230	0.029610	0.020173	-0.616943	0.646240	0.604248	0.229352	-0.715473	-0.215095	-0.623883	-152.794223	-82.483877	9.509617	0.129008	0.021611	0.991408	0.593966	-0.802264	-0.059803	0.794079	0.596578	-0.116334	0	0	0
13841	0	0	0	0	0	9.708924	-0.607061	-1.468770	-0.074755	0.032597	0.013786	-0.616699	0.652588	0.609131	0.229165	-0.715467	-0.214741	-0.624081	-152.696321	-82.498149	9.365130	0.128818	0.021245	0.991441	0.593315	-0.802740	-0.059888	0.794596	0.595951	-0.116012	0	0	0
13842	0	0	0	0	0	9.737730	-0.654473	-1.385187	-0.051826	0.037677	0.006264	-0.613525	0.647461	0.613281	0.229039	-0.715412	-0.214478	-0.624281	-152.604431	-82.516856	9.239524	0.128545	0.020911	0.991483	0.592848	-0.803081	-0.059925	0.794989	0.595502	-0.115629	0	0	0
13843	0	0	0	0	0	9.750047	-0.667320	-1.452777	-0.030718	0.039571	-0.000531	-0.619141	0.642090	0.607178	0.228966	-0.715321	-0.214298	-0.624473	-152.521957	-82.538118	9.134987	0.128219	0.020618	0.991531	0.592550	-0.803302	-0.059922	0.795264	0.595215	-0.115216	0	0	0
13844	0	0	0	0	0	9.730560	-0.599003	-1.431086	-0.009120	0.046978	0.003932	-0.626221	0.655518	0.607910	0.228995	-0.715186	-0.214166	-0.624663	-152.394611	-82.562113	8.998312	0.127858	0.020247	0.991586	0.592426	-0.803389	-0.059985	0.795414	0.595111	-0.114715	0	0	0
13845	0	0	0	0	0	9.690501	-0.478967	-1.430115	-0.000950	0.051965	-0.001713	-0.617432	0.653076	0.599121	0.229045	-0.715016	-0.214078	-0.624869	-152.273358	-82.590335	8.873181	0.127419	0.019892	0.991649	0.592384	-0.803419	-0.060000	0.795516	0.595082	-0.114155	0	0	0
13846	0	0	0	0	0	9.697179	-0.447461	-1.437959	0.000814	0.058405	-0.001264	-0.620605	0.650635	0.611328	0.229105	-0.714828	-0.213982	-0.625095	-152.135239	-82.621432	8.731399	0.126936	0.019495	0.991719	0.592346	-0.803445	-0.060024	0.795622	0.595060	-0.113534	0	0	0
13847	0	0	0	0	0	9.725080	-0.451607	-1.384658	0.001836	0.066100	-0.000367	-0.616943	0.648438	0.605713	0.229187	-0.714613	-0.213882	-0.625345	-151.974501	-82.656198	8.568352	0.126396	0.019044	0.991797	0.592327	-0.803456	-0.060059	0.795721	0.595060	-0.112834	0	0	0
13848	0	0	0	0	0	9.704933	-0.416041	-1.438602	-0.001069	0.067871	0.000259	-0.616699	0.652832	0.602539	0.229256	-0.714398	-0.213764	-0.625605	-151.808960	-82.691567	8.397857	0.125847	0.018579	0.991876	0.592272	-0.803494	-0.060096	0.795849	0.595024	-0.112121	0	0	0
13849	0	0	0	0	0	9.693024	-0.435341	-1.438813	-0.016714	0.072379	-0.001836	-0.616211	0.654053	0.602295	0.229271	-0.714185	-0.213602	-0.625899	-151.648193	-82.729671	8.223671	0.125250	0.018102	0.991960	0.592102	-0.803619	-0.060097	0.796070	0.594869	-0.111371	0	0	0
13850	0	0	0	0	0	9.699618	-0.419682	-1.483869	-0.026628	0.076597	-0.004047	-0.625244	0.651123	0.605225	0.229244	-0.713968	-0.213409	-0.626222	-151.492286	-82.770488	8.048155	0.124605	0.017619	0.992050	0.591849	-0.803808	-0.060063	0.796359	0.594628	-0.110586	0	0	0
13851	0	0	0	0	0	9.727281	-0.439442	-1.468098	-0.030280	0.079623	-0.002983	-0.619141	0.653320	0.597412	0.229217	-0.713744	-0.213203	-0.626557	-151.324419	-82.812514	7.859515	0.123941	0.017109	0.992142	0.591580	-0.804008	-0.060037	0.796663	0.594372	-0.109771	0	0	0
13852	0	0	0	0	0	9.728511	-0.438457	-1.460223	-0.027842	0.084904	-0.008527	-0.627930	0.647217	0.603271	0.229181	-0.713497	-0.213013	-0.626916	-151.164953	-82.858613	7.679744	0.123203	0.016613	0.992242	0.591322	-0.804203	-0.059957	0.796968	0.594122	-0.108904	0	0	0
13853	0	0	0	0	0	9.658353	-0.431157	-1.423137	-0.026853	0.095753	-0.000955	-0.623535	0.650391	0.604492	0.229192	-0.713219	-0.212795	-0.627303	-150.946850	-82.908193	7.442929	0.122419	0.015993	0.992350	0.591084	-0.804379	-0.059955	0.797266	0.593901	-0.107925	0	0	0
13854	0	0	0	0	0	9.699763	-0.490783	-1.404560	-0.027790	0.091055	-0.010086	-0.622559	0.643555	0.594238	0.229157	-0.712950	-0.212603	-0.627685	-150.774832	-82.957654	7.250578	0.121623	0.015474	0.992456	0.590829	-0.804573	-0.059860	0.797577	0.593652	-0.106996	0	0	0
13855	0	0	0	0	0	9.746148	-0.475278	-1.432677	-0.024161	0.088029	-0.011188	-0.608887	0.648438	0.598389	0.229134	-0.712683	-0.212436	-0.628053	-150.608914	-83.006015	7.067372	0.120840	0.014982	0.992559	0.590616	-0.804737	-0.059758	0.797854	0.593442	-0.106093	0	0	0
13856	0	0	0	0	0	9.734573	-0.493540	-1.431345	-0.004548	0.086196	-0.009959	-0.617676	0.648682	0.599854	0.229178	-0.712403	-0.212322	-0.628393	-150.429188	-83.052875	6.880711	0.120082	0.014491	0.992658	0.590545	-0.804794	-0.059690	0.798020	0.593377	-0.105199	0	0	0
13857	0	0	0	0	0	9.688884	-0.419979	-1.453168	0.008206	0.080309	-0.013902	-0.622803	0.645508	0.607178	0.229249	-0.712125	-0.212267	-0.628701	-150.267915	-83.097503	6.719949	0.119354	0.014063	0.992752	0.590580	-0.804775	-0.059603	0.798104	0.593413	-0.104359	0	0	0
13858	0	0	0	0	0	9.649515	-0.281963	-1.409837	0.015270	0.090362	-0.025143	-0.624023	0.649902	0.599854	0.229320	-0.711793	-0.212265	-0.629052	-150.124838	-83.150630	6.581678	0.118474	0.013669	0.992863	0.590686	-0.804712	-0.059405	0.798157	0.593508	-0.103411	0	0	0
13859	0	0	0	0	0	9.675906	-0.164512	-1.341668	0.021921	0.097968	-0.035415	-0.621338	0.645508	0.596680	0.229388	-0.711420	-0.212309	-0.629435	-150.000196	-83.210299	6.465498	0.117474	0.013313	0.992987	0.590852	-0.804612	-0.059112	0.798182	0.593652	-0.102386	0	0	0
13860	0	0	0	0	0	9.637166	-0.100095	-1.342296	0.025036	0.092791	-0.052124	-0.630859	0.645020	0.588867	0.229411	-0.711040	-0.212431	-0.629814	-149.954471	-83.272302	6.430928	0.116414	0.013122	0.993114	0.591066	-0.804487	-0.058656	0.798178	0.593825	-0.101409	0	0	0
13861	0	0	0	0	0	9.629806	0.036478	-1.343074	0.037108	0.072553	-0.074163	-0.619873	0.649170	0.586670	0.229393	-0.710682	-0.212700	-0.630134	-150.043455	-83.330809	6.540179	0.115381	0.013228	0.993233	0.591420	-0.804276	-0.057992	0.798066	0.594109	-0.100621	0	0	0
13862	0	0	0	0	0	9.654616	0.153645	-1.427606	0.051300	0.070704	-0.102634	-0.634766	0.656250	0.598877	0.229326	-0.710288	-0.213109	-0.630464	-150.253510	-83.396253	6.778273	0.114198	0.013573	0.993365	0.591901	-0.803988	-0.057060	0.797879	0.594490	-0.099848	0	0	0
13863	0	0	0	0	0	9.679964	0.279037	-1.361297	0.069367	0.084187	-0.131229	-0.627930	0.640625	0.585449	0.229260	-0.709795	-0.213671	-0.630853	-150.546883	-83.476440	7.112525	0.112738	0.014067	0.993525	0.592584	-0.803569	-0.055864	0.797580	0.595045	-0.098928	0	0	0
13864	0	0	0	0	0	9.620609	0.377502	-1.312370	0.086969	0.095318	-0.164429	-0.627441	0.653076	0.591064	0.229151	-0.709215	-0.214384	-0.631303	-150.959924	-83.571194	7.575401	0.110991	0.014761	0.993712	0.593416	-0.803059	-0.054352	0.797207	0.595717	-0.097892	0	0	0
13865	0	0	0	0	0	9.639359	0.477663	-1.230673	0.088542	0.114607	-0.200449	-0.626709	0.645508	0.576660	0.228962	-0.708529	-0.215214	-0.631859	-151.499761	-83.685223	8.167977	0.108875	0.015627	0.993933	0.594315	-0.802518	-0.052483	0.796829	0.596423	-0.096661	0	0	0
13866	0	0	0	0	0	9.634898	0.416869	-1.323216	0.088870	0.126540	-0.233588	-0.641113	0.644775	0.574951	0.228675	-0.707772	-0.216141	-0.632495	-152.186710	-83.813439	8.907292	0.106467	0.016686	0.994176	0.595229	-0.801982	-0.050283	0.796472	0.597116	-0.095316	0	0	0
13867	0	0	0	0	0	9.557937	0.407857	-1.421091	0.092128	0.127302	-0.267026	-0.640869	0.637695	0.588867	0.228309	-0.706963	-0.217212	-0.633165	-153.059052	-83.950177	9.837443	0.103844	0.018007	0.994431	0.596235	-0.801388	-0.047751	0.796065	0.597873	-0.093955	0	0	0
13868	0	0	0	0	0	9.573920	0.350419	-1.373767	0.086897	0.132784	-0.291466	-0.642090	0.642334	0.578369	0.227837	-0.706122	-0.218329	-0.633888	-154.085907	-84.093873	10.917009	0.101037	0.019488	0.994692	0.597180	-0.800845	-0.044969	0.795718	0.598554	-0.092552	0	0	0
13869	0	0	0	0	0	9.583922	0.290679	-1.385170	0.076274	0.134793	-0.315355	-0.641113	0.634277	0.575439	0.227255	-0.705257	-0.219498	-0.634656	-155.290459	-84.242393	12.169204	0.098066	0.021147	0.994955	0.598062	-0.800352	-0.041936	0.795427	0.599157	-0.091135	0	0	0
13870	0	0	0	0	0	9.501711	0.273062	-1.430494	0.066144	0.129746	-0.334328	-0.642822	0.637451	0.574951	0.226569	-0.704399	-0.220703	-0.635436	-156.677395	-84.389641	13.598114	0.095022	0.022985	0.995210	0.598866	-0.799913	-0.038705	0.795192	0.599675	-0.089775	0	0	0
13871	0	0	0	0	0	9.483192	0.286843	-1.334776	0.055865	0.121864	-0.356209	-0.644775	0.627441	0.569336	0.225770	-0.703549	-0.221963	-0.636222	-158.284887	-84.533833	15.242759	0.091907	0.025044	0.995453	0.599604	-0.799520	-0.035245	0.795002	0.600117	-0.088498	0	0	0
13872	0	0	0	0	0	9.475974	0.348959	-1.304362	0.056257	0.133135	-0.376985	-0.651367	0.625000	0.562744	0.224916	-0.702638	-0.223282	-0.637069	-160.074592	-84.683472	17.069829	0.088576	0.027198	0.995698	0.600347	-0.799116	-0.031577	0.794819	0.600561	-0.087111	0	0	0
13873	0	0	0	0	0	9.437693	0.509210	-1.238023	0.051837	0.143066	-0.407691	-0.649658	0.626953	0.568359	0.223959	-0.701663	-0.224684	-0.637988	-162.136697	-84.838418	19.167676	0.084977	0.029538	0.995945	0.601072	-0.798718	-0.027596	0.794664	0.600980	-0.085628	0	0	0
13874	0	0	0	0	0	9.352112	0.683021	-1.207618	0.037550	0.153693	-0.436442	-0.663818	0.629639	0.568848	0.222871	-0.700635	-0.226127	-0.638989	-164.493495	-84.996368	21.552412	0.081121	0.032040	0.996189	0.601688	-0.798391	-0.023318	0.794601	0.601287	-0.084044	0	0	0
13875	0	0	0	0	0	9.379957	0.904527	-1.161829	0.030611	0.152364	-0.476990	-0.664551	0.620117	0.559082	0.221626	-0.699569	-0.227690	-0.640034	-167.274351	-85.149548	24.358273	0.077029	0.034874	0.996419	0.602265	-0.798079	-0.018626	0.794571	0.601543	-0.082478	0	0	0
13876	0	0	0	0	0	9.349884	1.077460	-1.125615	0.036535	0.169375	-0.515008	-0.659668	0.619385	0.557617	0.220298	-0.698393	-0.229384	-0.641170	-170.466035	-85.303839	27.579105	0.072569	0.037904	0.996643	0.602897	-0.797704	-0.013561	0.794512	0.601857	-0.080741	0	0	0
13877	0	0	0	0	0	9.246137	1.347942	-1.070580	0.042110	0.171800	-0.560235	-0.673584	0.614746	0.554932	0.218844	-0.697147	-0.231250	-0.642352	-174.184157	-85.446450	31.330588	0.067814	0.041281	0.996844	0.603581	-0.797261	-0.008045	0.794413	0.602221	-0.078982	0	0	0
13878	0	0	0	0	0	9.288042	1.557740	-1.073716	0.022404	0.166474	-0.623577	-0.677979	0.607666	0.549561	0.217111	-0.695860	-0.233277	-0.643602	-178.604319	-85.566605	35.774281	0.062716	0.045189	0.997008	0.604122	-0.796889	-0.001883	0.794420	0.602433	-0.077277	0	0	0
13879	0	0	0	0	0	9.472987	1.652241	-1.048692	0.006057	0.155574	-0.676000	-0.689697	0.602783	0.545898	0.215136	-0.694556	-0.235443	-0.644883	176.357052	-85.650669	40.828189	0.057384	0.049582	0.997120	0.604532	-0.796566	0.004819	0.794511	0.602515	-0.075684	0	0	0
13880	0	0	0	0	0	9.666411	1.736499	-1.153736	-0.007463	0.143011	-0.735005	-0.688477	0.587402	0.546143	0.212908	-0.693229	-0.237780	-0.646192	170.727650	-85.687574	46.466441	0.051793	0.054514	0.997169	0.604831	-0.796262	0.012116	0.794668	0.602491	-0.074212	0	0	0
13881	0	0	0	0	0	9.866312	1.791868	-1.166712	-0.019912	0.116827	-0.785908	-0.692139	0.585205	0.536865	0.210436	-0.691930	-0.240279	-0.647469	164.727256	-85.660033	52.469486	0.046100	0.060012	0.997133	0.605014	-0.795965	0.019934	0.794879	0.602360	-0.073002	0	0	0
13882	0	0	0	0	0	10.070805	1.909450	-1.095561	-0.039819	0.110664	-0.837761	-0.702393	0.580566	0.540771	0.207718	-0.690597	-0.242895	-0.648793	158.514821	-85.571901	58.674276	0.040141	0.065953	0.997015	0.605016	-0.795711	0.028278	0.795201	0.602075	-0.071843	0	0	0
13883	0	0	0	0	0	10.069984	2.097774	-1.064040	-0.047637	0.108924	-0.896124	-0.708496	0.574463	0.543457	0.204775	-0.689194	-0.245685	-0.650168	152.239526	-85.417541	64.938583	0.033842	0.072372	0.996803	0.604925	-0.795412	0.037213	0.795563	0.601732	-0.070698	0	0	0
13884	0	0	0	0	0	10.112083	2.465275	-1.102915	-0.039699	0.097453	-0.962312	-0.710938	0.570313	0.541260	0.201629	-0.687723	-0.248734	-0.651547	146.110333	-85.186036	71.062609	0.027235	0.079378	0.996472	0.604861	-0.794955	0.046794	0.795865	0.601453	-0.069664	0	0	0
13885	0	0	0	0	0	10.019269	2.954072	-1.124271	-0.023701	0.079306	-1.043092	-0.716309	0.552246	0.529053	0.198244	-0.686179	-0.252126	-0.652909	140.282086	-84.867121	76.896185	0.020283	0.087136	0.995990	0.604878	-0.794263	0.057169	0.796060	0.601293	-0.068817	0	0	0
13886	0	0	0	0	0	9.861249	3.419524	-1.232707	-0.014109	0.033294	-1.144334	-0.722900	0.542969	0.527832	0.194500	-0.684626	-0.255934	-0.654183	134.955639	-84.442283	82.234746	0.013086	0.095960	0.995299	0.604915	-0.793335	0.068535	0.796183	0.601174	-0.068429	0	0	0
13887	0	0	0	0	0	10.116481	3.925133	-1.199565	-0.024002	-0.029886	-1.262562	-0.725586	0.525391	0.524414	0.190245	-0.683114	-0.260168	-0.655343	130.259720	-83.900904	86.938169	0.005675	0.106097	0.994340	0.604800	-0.792239	0.081081	0.796357	0.600917	-0.068663	0	0	0
13888	0	0	0	0	0	10.311340	4.349797	-1.148008	-0.015358	-0.053805	-1.395692	-0.745361	0.515381	0.531982	0.185547	-0.681468	-0.264894	-0.656509	126.067136	-83.256116	91.145311	-0.002347	0.117408	0.993081	0.604660	-0.790807	0.094923	0.796480	0.600700	-0.069136	0	0	0
13889	0	0	0	0	0	10.268684	4.682565	-0.982026	0.027952	-0.048100	-1.532287	-0.744141	0.505615	0.530273	0.180542	-0.679546	-0.270212	-0.657729	122.302461	-82.516903	94.952248	-0.011242	0.129748	0.991483	0.604738	-0.788781	0.110079	0.796345	0.600825	-0.069595	0	0	0
13890	0	0	0	0	0	10.456840	5.014157	-0.661517	0.061494	-0.030744	-1.692620	-0.746582	0.486816	0.526855	0.175139	-0.677277	-0.276148	-0.659064	118.880990	-81.676068	98.439013	-0.021246	0.143202	0.989465	0.604912	-0.786137	0.126764	0.796009	0.601233	-0.069922	0	0	0
13891	0	0	0	0	0	10.497719	5.476214	-0.585067	0.049866	-0.056308	-1.863191	-0.766846	0.471680	0.519775	0.169082	-0.674812	-0.282628	-0.660426	115.911495	-80.715823	101.469744	-0.032081	0.158109	0.986900	0.604773	-0.783066	0.145113	0.795752	0.601506	-0.070499	0	0	0
13892	0	0	0	0	0	10.712023	5.726612	-0.853392	-0.005581	-0.131202	-2.016725	-0.777832	0.453613	0.520264	0.162212	-0.672361	-0.289476	-0.661681	113.502451	-79.637655	103.908278	-0.043236	0.174599	0.983690	0.603929	-0.779782	0.164951	0.795864	0.601211	-0.071731	0	0	0
13893	0	0	0	0	0	10.975163	5.776201	-1.409085	-0.109553	-0.224543	-2.137172	-0.789795	0.427734	0.515381	0.154438	-0.670056	-0.296433	-0.662799	111.615040	-78.459864	105.763719	-0.054349	0.192530	0.979785	0.601976	-0.776553	0.185986	0.796663	0.599915	-0.073694	0	0	0
13894	0	0	0	0	0	11.288993	5.811997	-1.897140	-0.284029	-0.305537	-2.221452	-0.790771	0.404785	0.517090	0.145665	-0.667948	-0.303117	-0.663889	110.098738	-77.211171	107.145266	-0.065255	0.211521	0.975193	0.598343	-0.773804	0.207878	0.798578	0.597065	-0.076067	0	0	0
13895	0	0	0	0	0	11.369469	5.402390	-2.443616	-0.415325	-0.348049	-2.237403	-0.795410	0.378174	0.519531	0.136313	-0.665965	-0.309414	-0.664961	108.848070	-75.938402	108.183397	-0.075820	0.230832	0.970035	0.593404	-0.771363	0.229937	0.801326	0.593057	-0.078492	0	0	0
13896	0	0	0	0	0	11.466549	4.933962	-2.617522	-0.403888	-0.376601	-2.227249	-0.810791	0.363770	0.517578	0.126976	-0.663998	-0.315690	-0.665826	107.856345	-74.662269	108.966332	-0.085968	0.250148	0.964383	0.588322	-0.768434	0.251766	0.804044	0.589012	-0.081107	0	0	0
13897	0	0	0	0	0	11.312160	5.167621	-1.959951	-0.581491	-0.414906	-2.219261	-0.813232	0.338623	0.521729	0.116993	-0.662194	-0.321335	-0.666750	106.977120	-73.380097	109.531296	-0.095623	0.269563	0.958223	0.581583	-0.766112	0.273557	0.807848	0.583444	-0.083515	0	0	0
13898	0	0	0	0	0	11.434978	5.060977	-1.676589	-0.794869	-0.448732	-2.221003	-0.816650	0.303955	0.519287	0.106231	-0.660534	-0.326245	-0.667813	106.139070	-72.090046	109.928840	-0.104820	0.289107	0.951541	0.572877	-0.764558	0.295402	0.812911	0.576080	-0.085482	0	0	0
13899	0	0	0	0	0	11.517659	5.034295	-1.958810	-0.840522	-0.470350	-2.212441	-0.827393	0.281982	0.528076	0.095293	-0.658887	-0.330944	-0.668777	105.395605	-70.799028	110.202018	-0.113573	0.308650	0.944371	0.563568	-0.762791	0.317081	0.818225	0.568229	-0.087312	0	0	0
13900	0	0	0	0	0	11.491691	4.937342	-2.401037	-0.888510	-0.499564	-2.203115	-0.821289	0.253662	0.535400	0.084169	-0.657282	-0.335411	-0.669624	104.735165	-69.508674	110.359769	-0.121793	0.328196	0.936725	0.553643	-0.760830	0.338553	0.823800	0.559844	-0.089040	0	0	0
13901	0	0	0	0	0	11.400792	4.857503	-2.470880	-0.977072	-0.516977	-2.173642	-0.826172	0.226074	0.532715	0.072807	-0.655723	-0.339448	-0.670449	104.107328	-68.230824	110.429577	-0.129454	0.347541	0.928685	0.542795	-0.758948	0.359683	0.829829	0.550648	-0.090395	0	0	0
13902	0	0	0	0	0	11.158893	4.209064	-2.432109	-1.140139	-0.513517	-2.123661	-0.830566	0.195313	0.543701	0.061078	-0.654199	-0.342718	-0.671444	103.436980	-66.981905	110.444851	-0.136586	0.366391	0.920381	0.530432	-0.757628	0.380318	0.836652	0.540146	-0.090864	0	0	0
13903	0	0	0	0	0	10.548051	3.750261	-2.096846	-1.192423	-0.509574	-2.075901	-0.829834	0.175537	0.537109	0.049330	-0.652660	-0.345608	-0.672426	102.779902	-65.759312	110.413150	-0.143202	0.384788	0.911829	0.517471	-0.756244	0.400400	0.843633	0.529183	-0.090821	0	0	0
13904	0	0	0	0	0	10.253754	3.559931	-1.558131	-1.240125	-0.542327	-1.985702	-0.837891	0.155029	0.532959	0.037671	-0.651305	-0.347995	-0.673262	102.186310	-64.584186	110.281024	-0.148766	0.402577	0.903217	0.504027	-0.754960	0.419513	0.850779	0.517655	-0.090597	0	0	0
13905	0	0	0	0	0	9.572665	3.484673	-1.352360	-1.174496	-0.573075	-1.918316	-0.827881	0.116455	0.539551	0.026389	-0.650066	-0.350346	-0.673777	101.698928	-63.442924	110.071359	-0.153437	0.419936	0.894489	0.491057	-0.753122	0.437802	0.857508	0.506420	-0.090656	0	0	0
13906	0	0	0	0	0	9.147879	3.534819	-1.077933	-1.126794	-0.618661	-1.853956	-0.832031	0.088623	0.535645	0.015401	-0.649002	-0.352604	-0.673965	101.311010	-62.334157	109.778541	-0.157117	0.436923	0.885671	0.478441	-0.750866	0.455296	0.863949	0.495276	-0.091068	0	0	0
13907	0	0	0	0	0	8.660974	3.154972	-0.664325	-1.035916	-0.660983	-1.786941	-0.830322	0.067383	0.542236	0.004851	-0.648113	-0.354916	-0.673766	101.033788	-61.258335	109.416309	-0.159853	0.453514	0.876797	0.466588	-0.748022	0.471972	0.869909	0.484549	-0.092031	0	0	0
13908	0	0	0	0	0	8.379959	2.713121	-0.212727	-0.903392	-0.698520	-1.730818	-0.817627	0.044434	0.543945	-0.005142	-0.647374	-0.357448	-0.673135	100.874468	-60.211469	109.002225	-0.161761	0.469728	0.867865	0.455884	-0.744408	0.487879	0.875216	0.474565	-0.093725	0	0	0
13909	0	0	0	0	0	8.079239	2.320066	0.132460	-0.734846	-0.705317	-1.658857	-0.823730	0.021240	0.544678	-0.014363	-0.646725	-0.360283	-0.672113	100.820335	-59.203962	108.573937	-0.163081	0.485316	0.858995	0.446701	-0.739979	0.502881	0.879695	0.465725	-0.096115	0	0	0
13910	0	0	0	0	0	7.880212	1.943024	0.327452	-0.493252	-0.738225	-1.594613	-0.820557	0.008057	0.550049	-0.022641	-0.646263	-0.363684	-0.670496	100.931291	-58.229717	108.109972	-0.163663	0.500432	0.850166	0.439710	-0.734443	0.516961	0.883102	0.458434	-0.099844	0	0	0
13911	0	0	0	0	0	7.752841	1.977384	0.409551	-0.289907	-0.774532	-1.525008	-0.819336	-0.013184	0.560303	-0.030097	-0.646020	-0.367513	-0.668346	101.183921	-57.289136	107.611472	-0.163504	0.515071	0.841408	0.434611	-0.728057	0.530137	0.885652	0.452365	-0.104815	0	0	0
13912	0	0	0	0	0	7.835591	2.083013	0.197666	-0.235539	-0.769247	-1.438279	-0.806885	-0.025879	0.562256	-0.037071	-0.645883	-0.371213	-0.666080	101.456814	-56.397390	107.120793	-0.162923	0.528905	0.832896	0.430136	-0.721653	0.542402	0.887941	0.446628	-0.109927	0	0	0
13913	0	0	0	0	0	7.795335	2.354656	-0.205072	-0.228801	-0.717857	-1.340390	-0.809570	-0.038574	0.560059	-0.043604	-0.645715	-0.374610	-0.663942	101.688525	-55.564663	106.679561	-0.162302	0.541683	0.824765	0.425881	-0.715532	0.553750	0.890103	0.441127	-0.114560	0	0	0
13914	0	0	0	0	0	7.654212	2.306728	-0.800810	-0.248008	-0.620964	-1.216917	-0.802490	-0.051514	0.565918	-0.049601	-0.645419	-0.377542	-0.662145	101.837097	-54.812363	106.321947	-0.161948	0.553032	0.817269	0.421659	-0.710004	0.564002	0.892175	0.435948	-0.118207	0	0	0
13915	0	0	0	0	0	7.396919	1.830043	-1.143264	-0.142138	-0.571120	-1.060848	-0.800049	-0.060791	0.562256	-0.054647	-0.645251	-0.380320	-0.660319	102.022447	-54.152261	105.990577	-0.161330	0.562973	0.810576	0.418634	-0.704740	0.572788	0.893710	0.431743	-0.121984	0	0	0
13916	0	0	0	0	0	7.284926	1.400395	-0.412658	-0.112542	-0.533630	-0.894795	-0.794434	-0.072266	0.560303	-0.058973	-0.645263	-0.382655	-0.658583	102.214345	-53.589664	105.669507	-0.160315	0.571505	0.804787	0.416149	-0.700194	0.580128	0.895052	0.427914	-0.125580	0	0	0
13917	0	0	0	0	0	7.028883	1.422370	0.296091	-0.150408	-0.436608	-0.747721	-0.786133	-0.078857	0.573486	-0.062753	-0.645211	-0.384414	-0.657260	102.328771	-53.120185	105.415830	-0.159530	0.578547	0.799896	0.413566	-0.696576	0.586298	0.896389	0.424342	-0.128142	0	0	0
13918	0	0	0	0	0	6.733641	1.643344	0.051089	-0.218225	-0.384905	-0.602818	-0.795410	-0.082520	0.567383	-0.066172	-0.645236	-0.385489	-0.656270	102.385466	-52.738456	105.184375	-0.158584	0.584317	0.795880	0.410609	-0.694038	0.591363	0.897915	0.420577	-0.129862	0	0	0
13919	0	0	0	0	0	6.603234	1.719892	-0.292213	-0.239434	-0.379154	-0.456277	-0.782471	-0.099854	0.565674	-0.069170	-0.645509	-0.386022	-0.655379	102.446633	-52.438826	104.930955	-0.157068	0.589026	0.792703	0.407697	-0.692405	0.595281	0.899507	0.416682	-0.131389	0	0	0
13920	0	0	0	0	0	6.522271	1.749848	-0.105470	-0.205628	-0.353754	-0.292548	-0.776611	-0.093506	0.569092	-0.071469	-0.646022	-0.386140	-0.654556	102.532714	-52.234199	104.669659	-0.155097	0.592471	0.790521	0.405349	-0.691575	0.597842	0.900909	0.413160	-0.132897	0	0	0
13921	0	0	0	0	0	6.203805	1.870807	0.070573	-0.221335	-0.356205	-0.132055	-0.783691	-0.101807	0.566406	-0.073301	-0.646842	-0.385688	-0.653809	102.635734	-52.118349	104.374969	-0.152444	0.594808	0.789281	0.403109	-0.691743	0.599161	0.902366	0.409505	-0.134321	0	0	0
13922	0	0	0	0	0	5.972655	1.860573	-0.440488	-0.261769	-0.373623	0.019857	-0.772949	-0.100586	0.571777	-0.074797	-0.647996	-0.384602	-0.653137	102.751763	-52.085275	104.034127	-0.149013	0.596146	0.788926	0.400735	-0.692974	0.599332	0.903995	0.405459	-0.135634	0	0	0
13923	0	0	0	0	0	6.000052	1.769925	-0.943769	-0.228545	-0.374567	0.184325	-0.775146	-0.108154	0.568115	-0.075653	-0.649477	-0.383090	-0.652455	102.914398	-52.143104	103.658416	-0.144913	0.596337	0.789546	0.398897	-0.695037	0.598168	0.905473	0.401629	-0.137157	0	0	0
13924	0	0	0	0	0	5.968765	1.712011	-0.986571	-0.175863	-0.345394	0.358510	-0.777100	-0.105225	0.575195	-0.075710	-0.651213	-0.381192	-0.651830	103.116625	-52.301547	103.271347	-0.140379	0.595175	0.791240	0.397774	-0.697921	0.595552	0.906681	0.398338	-0.138771	0	0	0
13925	0	0	0	0	0	6.054715	1.765655	-0.937729	-0.117756	-0.322740	0.535486	-0.780518	-0.097412	0.564941	-0.074960	-0.653228	-0.378914	-0.651228	103.369036	-52.560429	102.864056	-0.135347	0.592666	0.793995	0.397402	-0.701611	0.591450	0.907608	0.395587	-0.140566	0	0	0
13926	0	0	0	0	0	6.167956	1.766646	-0.751446	-0.069455	-0.278255	0.707561	-0.778809	-0.094971	0.576416	-0.073404	-0.655435	-0.376241	-0.650737	103.652051	-52.920263	102.454764	-0.130032	0.588737	0.797797	0.397669	-0.706109	0.585891	0.908268	0.393444	-0.142306	0	0	0
13927	0	0	0	0	0	6.271627	2.012675	-0.534286	-0.038469	-0.289054	0.862785	-0.772949	-0.083252	0.577393	-0.071263	-0.657969	-0.373151	-0.650198	103.996589	-53.363374	101.992925	-0.123997	0.583713	0.802436	0.398374	-0.711360	0.579021	0.908803	0.391466	-0.144330	0	0	0
13928	0	0	0	0	0	6.658943	2.381908	-0.692033	0.002357	-0.315383	0.983651	-0.771729	-0.079102	0.575928	-0.068640	-0.660813	-0.369776	-0.649523	104.417885	-53.868299	101.467635	-0.117230	0.577872	0.807664	0.399540	-0.717108	0.571073	0.909189	0.389640	-0.146817	0	0	0
13929	0	0	0	0	0	7.208564	2.839478	-0.516210	0.048715	-0.298708	1.075964	-0.774414	-0.075684	0.588867	-0.065532	-0.663770	-0.366243	-0.648830	104.885171	-54.424188	100.921906	-0.110230	0.571242	0.813346	0.401164	-0.723143	0.562257	0.909350	0.388263	-0.149449	0	0	0
13930	0	0	0	0	0	7.832762	3.433384	-0.104496	0.091558	-0.218612	1.130990	-0.770508	-0.065674	0.581787	-0.061954	-0.666560	-0.362680	-0.648323	105.341821	-55.020077	100.423190	-0.103718	0.563829	0.819353	0.403164	-0.729250	0.552860	0.909231	0.387675	-0.151679	0	0	0
13931	0	0	0	0	0	8.440130	4.201722	0.476886	0.152913	-0.117806	1.143014	-0.774170	-0.049316	0.583740	-0.057949	-0.669042	-0.359296	-0.648021	105.771745	-55.635697	100.003386	-0.098049	0.555872	0.825465	0.405664	-0.735097	0.543202	0.908748	0.388122	-0.153422	0	0	0
13932	0	0	0	0	0	8.850015	4.797901	0.744542	0.248236	-0.013933	1.111283	-0.770020	-0.046875	0.588867	-0.053538	-0.671136	-0.356343	-0.647865	106.178953	-56.248605	99.679994	-0.093420	0.547680	0.831456	0.408940	-0.740306	0.533587	0.907767	0.389863	-0.154809	0	0	0
13933	0	0	0	0	0	9.190329	5.309880	0.578104	0.328890	0.063264	1.062008	-0.774170	-0.029785	0.577637	-0.048877	-0.672892	-0.353828	-0.647791	106.568613	-56.845506	99.435304	-0.089655	0.539500	0.837199	0.412852	-0.744834	0.524191	0.906375	0.392636	-0.155955	0	0	0
13934	0	0	0	0	0	9.156352	5.927780	0.072368	0.349422	0.114851	1.000637	-0.772217	-0.025391	0.580078	-0.044252	-0.674358	-0.351587	-0.647820	106.921254	-57.416475	99.250308	-0.086567	0.531525	0.842607	0.416855	-0.748857	0.515213	0.904841	0.395846	-0.156743	0	0	0
13935	0	0	0	0	0	9.063088	6.642781	-0.285025	0.353381	0.105263	0.955098	-0.779297	-0.018066	0.580078	-0.039778	-0.675755	-0.349501	-0.647782	107.281090	-57.960159	99.060658	-0.083545	0.523889	0.847679	0.420820	-0.752534	0.506561	0.903289	0.399041	-0.157593	0	0	0
13936	0	0	0	0	0	8.942411	7.551970	-0.758267	0.433622	0.121020	0.912061	-0.774658	-0.002197	0.577148	-0.035143	-0.677027	-0.347814	-0.647631	107.670357	-58.482455	98.891541	-0.080800	0.516477	0.852480	0.425439	-0.755581	0.498095	0.901373	0.402924	-0.158679	0	0	0
13937	0	0	0	0	0	8.937658	8.442304	-0.991754	0.492311	0.118277	0.872120	-0.778564	0.002441	0.572998	-0.030443	-0.678228	-0.346443	-0.647346	108.092828	-58.981723	98.723884	-0.078159	0.509350	0.857003	0.430522	-0.758100	0.489832	0.899190	0.407243	-0.160034	0	0	0
13938	0	0	0	0	0	9.049865	8.913784	-0.819203	0.463710	0.155869	0.811719	-0.772217	0.004395	0.570313	-0.025969	-0.679185	-0.345182	-0.647212	108.455191	-59.454396	98.607925	-0.076067	0.502499	0.861225	0.435269	-0.760351	0.482087	0.897081	0.411536	-0.160885	0	0	0
13939	0	0	0	0	0	8.985161	9.052432	-0.743809	0.384368	0.224917	0.741928	-0.777832	0.020996	0.573975	-0.021871	-0.679771	-0.343904	-0.647428	108.691855	-59.901263	98.585528	-0.074865	0.495872	0.865162	0.439231	-0.762504	0.475041	0.895249	0.415570	-0.160717	0	0	0
13940	0	0	0	0	0	8.768842	8.984387	-0.506490	0.267725	0.284812	0.693564	-0.775146	0.025391	0.565674	-0.018223	-0.680058	-0.342411	-0.648031	108.792692	-60.333065	98.642745	-0.074379	0.489337	0.868917	0.442101	-0.764845	0.468571	0.893876	0.419001	-0.159448	0	0	0
13941	0	0	0	0	0	8.304347	8.484817	-0.466324	0.123843	0.371315	0.641176	-0.780518	0.026123	0.560791	-0.015086	-0.679949	-0.340636	-0.649161	108.709625	-60.752121	98.816331	-0.074885	0.482816	0.872514	0.443643	-0.767479	0.462770	0.893069	0.421740	-0.156726	0	0	0
13942	0	0	0	0	0	7.986409	8.122394	-0.968360	0.117197	0.330872	0.580584	-0.781982	0.034668	0.566406	-0.012236	-0.679860	-0.339035	-0.650150	108.639302	-61.131014	98.970225	-0.075280	0.476903	0.875726	0.445083	-0.769811	0.457485	0.892320	0.424210	-0.154310	0	0	0
13943	0	0	0	0	0	7.929503	7.940146	-1.395224	0.140060	0.249075	0.525076	-0.787842	0.034912	0.551758	-0.009628	-0.679936	-0.337692	-0.650814	108.641560	-61.464411	99.055879	-0.075190	0.471750	0.878521	0.446685	-0.771743	0.452643	0.891526	0.426456	-0.152697	0	0	0
13944	0	0	0	0	0	7.858715	7.966541	-1.739995	0.117016	0.190593	0.462724	-0.779541	0.035645	0.554688	-0.007400	-0.680092	-0.336477	-0.651309	108.668052	-61.753588	99.098626	-0.074839	0.467310	0.880920	0.448032	-0.773457	0.448366	0.890879	0.428236	-0.151485	0	0	0
13945	0	0	0	0	0	8.094365	8.019718	-1.986260	0.065320	0.110025	0.404371	-0.780273	0.025391	0.561279	-0.005674	-0.680404	-0.335291	-0.651612	108.725931	-61.995896	99.072198	-0.074036	0.463661	0.882914	0.448873	-0.775095	0.444680	0.890523	0.429238	-0.150740	0	0	0
13946	0	0	0	0	0	8.210028	7.807032	-2.084571	0.039982	0.080836	0.353124	-0.779297	0.040527	0.543945	-0.004248	-0.680725	-0.334191	-0.651852	108.782786	-62.205427	99.030450	-0.073191	0.460523	0.884625	0.449446	-0.776596	0.441470	0.890304	0.429903	-0.150141	0	0	0
13947	0	0	0	0	0	8.233617	7.373004	-1.722601	0.037175	0.106271	0.304247	-0.783691	0.038574	0.546631	-0.002951	-0.680876	-0.333252	-0.652183	108.794358	-62.392629	99.038217	-0.072799	0.457656	0.886144	0.449957	-0.777869	0.438701	0.890078	0.430664	-0.149298	0	0	0
13948	0	0	0	0	0	8.231690	6.851281	-1.152951	0.013051	0.116331	0.285091	-0.788086	0.039307	0.544922	-0.001780	-0.680963	-0.332295	-0.652584	108.775546	-62.571795	99.064536	-0.072572	0.454884	0.887589	0.450238	-0.779154	0.436125	0.889955	0.431276	-0.148261	0	0	0
13949	0	0	0	0	0	8.059687	6.223246	-0.885543	-0.107261	0.071481	0.298134	-0.782471	0.039063	0.554688	-0.001053	-0.681212	-0.330904	-0.653033	108.738336	-62.749205	99.034040	-0.071898	0.452206	0.889011	0.449456	-0.781003	0.433616	0.890404	0.430747	-0.147094	0	0	0
13950	0	0	0	0	0	7.835378	5.360702	-0.920196	-0.172572	-0.013603	0.339344	-0.790527	0.038818	0.546875	-0.000552	-0.681808	-0.329153	-0.653296	108.769512	-62.933864	98.884559	-0.070275	0.449559	0.890482	0.448117	-0.783316	0.430821	0.891208	0.429316	-0.146408	0	0	0
13951	0	0	0	0	0	8.210938	4.224850	-1.157749	-0.074068	-0.033847	0.404139	-0.783936	0.040039	0.547852	0.000461	-0.682570	-0.327507	-0.653327	108.903048	-63.149219	98.683951	-0.068195	0.446491	0.892186	0.447695	-0.785478	0.427309	0.891582	0.428567	-0.146326	0	0	0
13952	0	0	0	0	0	8.572873	3.487468	-1.231012	0.235064	-0.055275	0.463981	-0.787842	0.044678	0.544922	0.002691	-0.683500	-0.326659	-0.652774	109.263552	-63.393164	98.427812	-0.065641	0.443029	0.894101	0.450057	-0.786573	0.422790	0.890584	0.430148	-0.147757	0	0	0
13953	0	0	0	0	0	9.062221	3.065157	-1.609699	0.556054	-0.162267	0.554028	-0.782227	0.055420	0.537109	0.006135	-0.684910	-0.326554	-0.651324	109.964882	-63.663464	97.997088	-0.061721	0.439328	0.896204	0.455313	-0.786649	0.416981	0.888190	0.433789	-0.151479	0	0	0
13954	0	0	0	0	0	9.992083	2.653302	-2.306533	0.826902	-0.303634	0.668951	-0.777344	0.049072	0.543213	0.010653	-0.686948	-0.326930	-0.648927	111.036870	-63.964653	97.327182	-0.055978	0.435341	0.898523	0.462993	-0.786007	0.409671	0.884593	0.438943	-0.157561	0	0	0
13955	0	0	0	0	0	11.136520	2.612266	-2.754295	1.165009	-0.344747	0.767004	-0.774414	0.065674	0.538330	0.016580	-0.689229	-0.328059	-0.645806	112.411352	-64.302385	96.538339	-0.049376	0.430801	0.901095	0.473630	-0.784205	0.400870	0.879339	0.446579	-0.165320	0	0	0
13956	0	0	0	0	0	11.754028	3.945293	-2.789569	1.602525	-0.319567	0.783975	-0.772705	0.084717	0.544189	0.024112	-0.691379	-0.330514	-0.642008	114.046974	-64.646122	95.740039	-0.042827	0.426061	0.903680	0.487980	-0.780359	0.391044	0.871804	0.457725	-0.174488	0	0	0
13957	0	0	0	0	0	12.028313	7.169193	-3.632260	2.091251	-0.448654	0.671231	-0.767334	0.098633	0.542725	0.032753	-0.693623	-0.334913	-0.636905	116.078338	-64.888323	94.815849	-0.035629	0.422886	0.905482	0.506327	-0.773522	0.381179	0.861605	0.472051	-0.186559	0	0	0
13958	0	0	0	0	0	12.734467	10.564293	-4.769870	2.135334	-0.751004	0.507252	-0.768066	0.114502	0.538330	0.040516	-0.696461	-0.340023	-0.630622	118.398037	-64.953058	93.602259	-0.026600	0.422524	0.905961	0.524726	-0.765486	0.372415	0.850855	0.485288	-0.201348	0	0	0
13959	0	0	0	0	0	13.781448	9.915226	-2.212740	0.909399	-0.604937	0.377064	-0.767334	0.119385	0.544678	0.043842	-0.698805	-0.341667	-0.626907	119.786225	-64.976043	92.642037	-0.019498	0.422548	0.906131	0.532488	-0.762683	0.367113	0.846213	0.489662	-0.210130	0	0	0
13960	0	0	0	0	0	12.043045	4.483792	1.465566	-0.666823	-0.008400	0.263611	-0.763428	0.108154	0.552734	0.042327	-0.699418	-0.338624	-0.627979	119.568621	-65.108201	92.457388	-0.018047	0.420519	0.907104	0.526840	-0.767084	0.366089	0.849773	0.484505	-0.207703	0	0	0
13961	0	0	0	0	0	9.336119	-0.171126	1.413839	-1.275566	0.108978	0.242505	-0.764648	0.106445	0.549805	0.038810	-0.699731	-0.333715	-0.630480	118.860097	-65.262669	92.429666	-0.017740	0.418083	0.908236	0.515959	-0.774257	0.366487	0.856429	0.475114	-0.201979	0	0	0
13962	0	0	0	0	0	8.334098	-3.755922	0.004161	-0.931007	0.014947	0.443584	-0.767334	0.099609	0.556152	0.036978	-0.700589	-0.329189	-0.632014	118.571364	-65.492979	92.157255	-0.015614	0.414511	0.909910	0.507994	-0.780535	0.364291	0.861219	0.467917	-0.198382	0	0	0
