// General information: 
//  MT Manager version: 2022.2.0 
//  XDA version: 2022.2.0 build 7381 rev 124627 built on 2023-07-19
// Device information: 
//  DeviceId: 10B426F1
//  ProductCode: MTW2-3A7G6
//  Firmware Version: 4.14.0
//  Hardware Version: 3.0.0
// Device settings: 
//  Filter Profile: human(46.1)
//  Option Flags: Orientation Smoother Disabled, Position/Velocity Smoother Disabled, Continuous Zero Rotation Update Disabled, AHS Disabled, ICC Disabled
// Coordinate system: ENU
PacketCounter	SampleTimeFine	Year	Month	Day	Second	Acc_X	Acc_Y	Acc_Z	Gyr_X	Gyr_Y	Gyr_Z	Mag_X	Mag_Y	Mag_Z	Quat_q0	Quat_q1	Quat_q2	Quat_q3	Roll	Pitch	Yaw	Mat[1][1]	Mat[2][1]	Mat[3][1]	Mat[1][2]	Mat[2][2]	Mat[3][2]	Mat[1][3]	Mat[2][3]	Mat[3][3]	Vel_E	Vel_N	Vel_U
13511	0	0	0	0	0	9.719611	1.471728	-0.344676	-0.000395	-0.001692	0.000083	-0.325928	-1.264160	-0.649414	0.647386	0.354911	-0.626255	0.250468	103.985084	-81.357472	-53.140276	0.090140	-0.120231	0.988645	-0.768829	0.622607	0.145815	-0.633069	-0.773243	-0.036315	0	0	0
13512	0	0	0	0	0	9.719600	1.471792	-0.344699	0.001060	0.001314	-0.001441	-0.321045	-1.264893	-0.641357	0.647388	0.354905	-0.626256	0.250469	103.983061	-81.358040	-53.138722	0.090138	-0.120221	0.988647	-0.768825	0.622615	0.145807	-0.633075	-0.773238	-0.036308	0	0	0
13513	0	0	0	0	0	9.713267	1.469351	-0.398848	0.002008	-0.000520	-0.000597	-0.330566	-1.266113	-0.641602	0.647387	0.354895	-0.626265	0.250463	103.987366	-81.358515	-53.144463	0.090121	-0.120224	0.988648	-0.768810	0.622635	0.145796	-0.633095	-0.773222	-0.036317	0	0	0
13514	0	0	0	0	0	9.708808	1.450053	-0.342399	0.003080	0.001407	0.001438	-0.324463	-1.264648	-0.641357	0.647382	0.354886	-0.626268	0.250481	103.988784	-81.360696	-53.145218	0.090096	-0.120195	0.988654	-0.768821	0.622630	0.145759	-0.633085	-0.773230	-0.036311	0	0	0
13515	0	0	0	0	0	9.689205	1.485967	-0.352754	-0.000000	-0.000000	0.000000	-0.320801	-1.268311	-0.642822	0.647376	0.354889	-0.626268	0.250494	103.991930	-81.361725	-53.146995	0.090082	-0.120183	0.988656	-0.768838	0.622614	0.145739	-0.633066	-0.773245	-0.036315	0	0	0
13516	0	0	0	0	0	9.696570	1.453932	-0.363139	0.000665	-0.000378	-0.001357	-0.321289	-1.267090	-0.645508	0.647373	0.354883	-0.626275	0.250491	103.995950	-81.362104	-53.151781	0.090068	-0.120186	0.988657	-0.768831	0.622624	0.145731	-0.633077	-0.773236	-0.036324	0	0	0
13517	0	0	0	0	0	9.701434	1.482147	-0.332011	0.008834	0.001916	0.000921	-0.320801	-1.268311	-0.645996	0.647358	0.354909	-0.626258	0.250537	103.996122	-81.363609	-53.145614	0.090065	-0.120155	0.988661	-0.768902	0.622542	0.145705	-0.632991	-0.773307	-0.036318	0	0	0
13518	0	0	0	0	0	9.690678	1.460195	-0.329594	0.004818	0.002957	0.002115	-0.321777	-1.261963	-0.645020	0.647355	0.354902	-0.626255	0.250564	103.993479	-81.366380	-53.141255	0.090046	-0.120110	0.988668	-0.768925	0.622525	0.145661	-0.632966	-0.773328	-0.036300	0	0	0
13519	0	0	0	0	0	9.713728	1.477957	-0.311039	0.007096	0.000367	0.000244	-0.329102	-1.268066	-0.633545	0.647345	0.354909	-0.626253	0.250582	103.997662	-81.367344	-53.143206	0.090032	-0.120100	0.988671	-0.768951	0.622497	0.145642	-0.632936	-0.773352	-0.036306	0	0	0
13520	0	0	0	0	0	9.707415	1.475375	-0.365216	0.003746	0.001030	0.000080	-0.320801	-1.267334	-0.633057	0.647340	0.354907	-0.626254	0.250596	103.999605	-81.368717	-53.144107	0.090016	-0.120082	0.988675	-0.768965	0.622486	0.145618	-0.632922	-0.773364	-0.036305	0	0	0
13521	0	0	0	0	0	9.703993	1.421588	-0.373190	-0.000282	0.001457	-0.002201	-0.322510	-1.264893	-0.628906	0.647318	0.354971	-0.626213	0.250662	103.995414	-81.368561	-53.128194	0.090051	-0.120059	0.988674	-0.769091	0.622328	0.145623	-0.632763	-0.773494	-0.036295	0	0	0
13522	0	0	0	0	0	9.727003	1.439636	-0.354541	-0.000948	0.001835	-0.000844	-0.331299	-1.268799	-0.641846	0.647325	0.354956	-0.626216	0.250660	103.990876	-81.369532	-53.125258	0.090047	-0.120041	0.988677	-0.769075	0.622352	0.145609	-0.632784	-0.773478	-0.036280	0	0	0
13523	0	0	0	0	0	9.691725	1.425730	-0.393714	0.000665	-0.000378	-0.001357	-0.320557	-1.259277	-0.650391	0.647302	0.355004	-0.626192	0.250710	103.994982	-81.369693	-53.120528	0.090055	-0.120032	0.988677	-0.769172	0.622233	0.145604	-0.632665	-0.773575	-0.036290	0	0	0
13524	0	0	0	0	0	9.725521	1.465547	-0.377403	0.001456	0.003007	-0.001524	-0.329346	-1.263916	-0.646240	0.647309	0.354997	-0.626187	0.250715	103.986906	-81.370448	-53.112621	0.090064	-0.120009	0.988679	-0.769169	0.622238	0.145597	-0.632666	-0.773575	-0.036266	0	0	0
13525	0	0	0	0	0	9.696566	1.454172	-0.362287	0.006149	0.002202	-0.000600	-0.323242	-1.262207	-0.635498	0.647320	0.354969	-0.626198	0.250699	103.983664	-81.371408	-53.113425	0.090052	-0.119997	0.988682	-0.769126	0.622294	0.145583	-0.632720	-0.773531	-0.036254	0	0	0
13526	0	0	0	0	0	9.708785	1.450426	-0.341483	0.005077	0.000274	-0.002634	-0.332275	-1.263428	-0.640625	0.647314	0.354981	-0.626195	0.250707	103.986661	-81.371168	-53.114619	0.090052	-0.120002	0.988681	-0.769146	0.622269	0.145585	-0.632696	-0.773550	-0.036262	0	0	0
13527	0	0	0	0	0	9.721017	1.446590	-0.320695	0.003080	0.001408	0.001438	-0.327148	-1.265137	-0.646484	0.647301	0.354992	-0.626186	0.250744	103.988138	-81.373226	-53.111824	0.090037	-0.119969	0.988686	-0.769196	0.622216	0.145549	-0.632638	-0.773598	-0.036258	0	0	0
13528	0	0	0	0	0	9.718114	1.497938	-0.366657	0.003464	0.002486	-0.002121	-0.321777	-1.260010	-0.631104	0.647304	0.354994	-0.626179	0.250752	103.982571	-81.373577	-53.105291	0.090047	-0.119954	0.988687	-0.769206	0.622204	0.145547	-0.632625	-0.773610	-0.036242	0	0	0
13529	0	0	0	0	0	9.702839	1.457059	-0.307785	0.002403	0.001172	-0.000680	-0.327148	-1.260254	-0.638428	0.647296	0.355009	-0.626168	0.250777	103.981700	-81.374289	-53.100905	0.090049	-0.119937	0.988689	-0.769245	0.622159	0.145536	-0.632577	-0.773650	-0.036237	0	0	0
13530	0	0	0	0	0	9.699939	1.508376	-0.353790	0.001738	0.001550	0.000677	-0.324707	-1.257324	-0.645264	0.647296	0.354998	-0.626171	0.250787	103.981128	-81.376066	-53.100423	0.090031	-0.119912	0.988694	-0.769247	0.622164	0.145506	-0.632577	-0.773650	-0.036228	0	0	0
13531	0	0	0	0	0	9.718123	1.497955	-0.366336	-0.000665	0.000378	0.001357	-0.331543	-1.273438	-0.646973	0.647302	0.354962	-0.626191	0.250772	103.983348	-81.377920	-53.107345	0.089997	-0.119897	0.988699	-0.769199	0.622230	0.145474	-0.632640	-0.773598	-0.036226	0	0	0
13532	0	0	0	0	0	9.707364	1.476050	-0.363845	0.000125	0.003763	0.001190	-0.325928	-1.265381	-0.645508	0.647311	0.354942	-0.626189	0.250783	103.974205	-81.380288	-53.099130	0.089990	-0.119852	0.988705	-0.769191	0.622248	0.145440	-0.632651	-0.773591	-0.036193	0	0	0
13533	0	0	0	0	0	9.678446	1.464476	-0.348486	0.000520	0.005455	0.001106	-0.325928	-1.262939	-0.637939	0.647323	0.354926	-0.626178	0.250802	103.958324	-81.382690	-53.083099	0.089999	-0.119793	0.988711	-0.769193	0.622252	0.145410	-0.632647	-0.773597	-0.036142	0	0	0
13534	0	0	0	0	0	9.724547	1.499952	-0.311304	0.000294	-0.000842	0.005677	-0.320801	-1.270752	-0.639404	0.647311	0.354897	-0.626199	0.250820	103.970263	-81.386916	-53.096108	0.089928	-0.119756	0.988722	-0.769190	0.622274	0.145331	-0.632661	-0.773585	-0.036155	0	0	0
13535	0	0	0	0	0	9.719745	1.471343	-0.342532	0.000282	-0.001456	0.002202	-0.326904	-1.262695	-0.639893	0.647288	0.354921	-0.626193	0.250864	103.980110	-81.388755	-53.099947	0.089901	-0.119736	0.988727	-0.769260	0.622197	0.145294	-0.632580	-0.773650	-0.036172	0	0	0
13536	0	0	0	0	0	9.704118	1.421205	-0.371391	-0.002008	0.000520	0.000596	-0.327393	-1.263916	-0.641113	0.647290	0.354900	-0.626203	0.250861	103.981098	-81.390345	-53.103214	0.089877	-0.119719	0.988731	-0.769238	0.622230	0.145267	-0.632610	-0.773626	-0.036168	0	0	0
13537	0	0	0	0	0	9.721235	1.445390	-0.319504	-0.001726	-0.000936	0.002798	-0.324951	-1.262207	-0.644531	0.647282	0.354884	-0.626216	0.250871	103.989174	-81.392792	-53.111820	0.089834	-0.119699	0.988738	-0.769237	0.622242	0.145221	-0.632617	-0.773620	-0.036179	0	0	0
13538	0	0	0	0	0	9.716409	1.416976	-0.350468	0.000125	0.003763	0.001190	-0.319580	-1.267578	-0.641846	0.647291	0.354863	-0.626215	0.250882	103.980018	-81.395161	-53.103591	0.089827	-0.119654	0.988744	-0.769229	0.622260	0.145187	-0.632628	-0.773612	-0.036145	0	0	0
13539	0	0	0	0	0	9.727221	1.438677	-0.352452	-0.001613	0.002213	0.000513	-0.328857	-1.271973	-0.632324	0.647296	0.354854	-0.626211	0.250892	103.973033	-81.396553	-53.096703	0.089827	-0.119624	0.988747	-0.769229	0.622264	0.145168	-0.632628	-0.773613	-0.036122	0	0	0
13540	0	0	0	0	0	9.686041	1.431064	-0.358243	0.003351	-0.000663	0.000165	-0.324463	-1.264893	-0.642578	0.647286	0.354852	-0.626218	0.250902	103.981045	-81.397739	-53.103968	0.089799	-0.119619	0.988750	-0.769240	0.622256	0.145143	-0.632618	-0.773620	-0.036137	0	0	0
13541	0	0	0	0	0	9.725761	1.464401	-0.375682	0.004286	-0.003111	-0.002466	-0.320313	-1.268555	-0.645996	0.647251	0.354916	-0.626198	0.250952	103.995861	-81.396862	-53.108570	0.089799	-0.119638	0.988748	-0.769353	0.622116	0.145149	-0.632482	-0.773730	-0.036178	0	0	0
13542	0	0	0	0	0	9.690847	1.459537	-0.327534	-0.001343	0.000142	-0.000761	-0.323730	-1.263184	-0.633057	0.647253	0.354901	-0.626207	0.250945	103.997383	-81.397644	-53.111990	0.089783	-0.119632	0.988750	-0.769333	0.622143	0.145135	-0.632507	-0.773709	-0.036179	0	0	0
13543	0	0	0	0	0	9.689374	1.485381	-0.350561	-0.002020	-0.000094	-0.002879	-0.327881	-1.261475	-0.639893	0.647247	0.354926	-0.626192	0.250961	103.995828	-81.396803	-53.106774	0.089803	-0.119636	0.988748	-0.769372	0.622092	0.145150	-0.632458	-0.773750	-0.036179	0	0	0
13544	0	0	0	0	0	9.708938	1.449708	-0.340156	-0.000012	-0.000614	-0.003475	-0.331787	-1.261475	-0.643311	0.647248	0.354925	-0.626197	0.250949	103.998404	-81.395971	-53.110488	0.089804	-0.119653	0.988746	-0.769358	0.622106	0.145162	-0.632474	-0.773736	-0.036189	0	0	0
13545	0	0	0	0	0	9.708896	1.450013	-0.340074	0.002121	0.002628	-0.002882	-0.320557	-1.263672	-0.641846	0.647259	0.354915	-0.626195	0.250940	103.990927	-81.395890	-53.104739	0.089817	-0.119645	0.988746	-0.769338	0.622129	0.145168	-0.632496	-0.773718	-0.036170	0	0	0
13546	0	0	0	0	0	9.731886	1.468161	-0.321407	-0.000282	0.001456	-0.002202	-0.322021	-1.258301	-0.641602	0.647265	0.354906	-0.626196	0.250935	103.986907	-81.396053	-53.101939	0.089821	-0.119639	0.988746	-0.769324	0.622146	0.145168	-0.632513	-0.773706	-0.036159	0	0	0
13547	0	0	0	0	0	9.690667	1.460832	-0.327098	-0.001624	0.001598	-0.002962	-0.320313	-1.260010	-0.638916	0.647278	0.354896	-0.626195	0.250920	103.978973	-81.395441	-53.096328	0.089839	-0.119638	0.988744	-0.769297	0.622177	0.145183	-0.632543	-0.773681	-0.036142	0	0	0
13548	0	0	0	0	0	9.696572	1.454636	-0.360232	0.003859	0.004179	-0.002204	-0.319580	-1.262451	-0.636475	0.647285	0.354897	-0.626181	0.250932	103.967318	-81.395979	-53.083406	0.089860	-0.119611	0.988746	-0.769309	0.622162	0.145181	-0.632525	-0.773698	-0.036110	0	0	0
13549	0	0	0	0	0	9.707317	1.476773	-0.362180	-0.001906	0.003055	-0.005164	-0.324463	-1.264648	-0.634277	0.647297	0.354912	-0.626160	0.250933	103.951985	-81.394281	-53.066642	0.089913	-0.119608	0.988741	-0.769320	0.622140	0.145220	-0.632505	-0.773715	-0.036078	0	0	0
13550	0	0	0	0	0	9.719494	1.473326	-0.341120	0.000779	0.002771	-0.003642	-0.325684	-1.263428	-0.641357	0.647308	0.354910	-0.626152	0.250928	103.942426	-81.393824	-53.057626	0.089937	-0.119600	0.988740	-0.769311	0.622148	0.145233	-0.632512	-0.773711	-0.036056	0	0	0
13551	0	0	0	0	0	9.719462	1.473580	-0.340957	-0.002685	0.000284	-0.001522	-0.322998	-1.267822	-0.643799	0.647304	0.354921	-0.626145	0.250941	103.941347	-81.393949	-53.054406	0.089942	-0.119593	0.988741	-0.769334	0.622119	0.145232	-0.632483	-0.773735	-0.036052	0	0	0
13552	0	0	0	0	0	9.707205	1.477643	-0.361621	-0.000282	0.001457	-0.002202	-0.323242	-1.272217	-0.645508	0.647310	0.354913	-0.626145	0.250936	103.937324	-81.394111	-53.051603	0.089946	-0.119586	0.988741	-0.769321	0.622136	0.145232	-0.632499	-0.773722	-0.036042	0	0	0
13553	0	0	0	0	0	9.719423	1.473873	-0.340778	-0.000000	0.000000	-0.000000	-0.314453	-1.263916	-0.644043	0.647297	0.354936	-0.626132	0.250970	103.939009	-81.394904	-53.048216	0.089945	-0.119570	0.988743	-0.769377	0.622070	0.145217	-0.632431	-0.773778	-0.036043	0	0	0
13554	0	0	0	0	0	9.726780	1.441980	-0.351134	-0.001354	-0.000472	-0.004236	-0.324463	-1.264648	-0.643555	0.647301	0.354933	-0.626137	0.250951	103.939601	-81.393669	-53.050702	0.089953	-0.119591	0.988740	-0.769355	0.622092	0.145238	-0.632457	-0.773756	-0.036049	0	0	0
13555	0	0	0	0	0	9.685551	1.434689	-0.356990	0.003069	0.000795	-0.002037	-0.325439	-1.265625	-0.645508	0.647298	0.354949	-0.626126	0.250964	103.937599	-81.393367	-53.046081	0.089965	-0.119588	0.988739	-0.769383	0.622057	0.145244	-0.632421	-0.773786	-0.036045	0	0	0
13556	0	0	0	0	0	9.685517	1.434925	-0.356963	-0.002019	-0.000094	-0.002879	-0.329102	-1.270996	-0.644531	0.647303	0.354939	-0.626133	0.250949	103.937658	-81.392939	-53.048412	0.089965	-0.119598	0.988738	-0.769357	0.622086	0.145251	-0.632452	-0.773760	-0.036047	0	0	0
13557	0	0	0	0	0	9.730043	1.496746	-0.342950	-0.006713	0.000710	-0.003804	-0.323975	-1.275146	-0.648682	0.647313	0.354936	-0.626129	0.250936	103.930436	-81.391914	-53.042568	0.089988	-0.119603	0.988735	-0.769339	0.622103	0.145273	-0.632471	-0.773746	-0.036033	0	0	0
13558	0	0	0	0	0	9.713263	1.481848	-0.307023	-0.001906	0.003055	-0.005164	-0.325684	-1.266357	-0.642090	0.647331	0.354929	-0.626121	0.250919	103.916909	-81.390649	-53.031094	0.090025	-0.119602	0.988732	-0.769313	0.622129	0.145302	-0.632498	-0.773725	-0.036004	0	0	0
13559	0	0	0	0	0	9.728022	1.417876	-0.327512	-0.002008	0.000520	0.000596	-0.321045	-1.259521	-0.643311	0.647320	0.354947	-0.626108	0.250953	103.916476	-81.391916	-53.026073	0.090022	-0.119577	0.988735	-0.769364	0.622070	0.145281	-0.632435	-0.773776	-0.035998	0	0	0
13560	0	0	0	0	0	9.708380	1.454002	-0.337768	0.000779	0.002772	-0.003642	-0.325684	-1.263428	-0.647217	0.647331	0.354945	-0.626100	0.250949	103.906916	-81.391458	-53.017054	0.090046	-0.119569	0.988734	-0.769356	0.622078	0.145295	-0.632442	-0.773772	-0.035976	0	0	0
13561	0	0	0	0	0	9.690181	1.464533	-0.324917	-0.000948	0.001835	-0.000844	-0.327393	-1.260254	-0.640625	0.647346	0.354914	-0.626110	0.250928	103.900767	-81.392169	-53.015520	0.090042	-0.119557	0.988736	-0.769306	0.622141	0.145287	-0.632504	-0.773722	-0.035957	0	0	0
13562	0	0	0	0	0	9.737290	1.465846	-0.352281	-0.000282	0.001457	-0.002201	-0.325439	-1.267090	-0.645264	0.647352	0.354906	-0.626111	0.250923	103.896739	-81.392331	-53.012712	0.090046	-0.119550	0.988736	-0.769292	0.622158	0.145287	-0.632520	-0.773710	-0.035946	0	0	0
13563	0	0	0	0	0	9.694614	1.484246	-0.380921	-0.003914	0.003575	-0.004568	-0.326904	-1.259277	-0.639893	0.647374	0.354894	-0.626103	0.250904	103.880040	-81.391300	-52.998800	0.090085	-0.119542	0.988734	-0.769257	0.622195	0.145315	-0.632556	-0.773681	-0.035908	0	0	0
13564	0	0	0	0	0	9.697488	1.433245	-0.334371	-0.005246	0.004331	-0.001854	-0.324463	-1.271973	-0.644043	0.647398	0.354865	-0.626100	0.250890	103.862922	-81.392049	-52.985629	0.090105	-0.119511	0.988736	-0.769213	0.622251	0.145313	-0.632608	-0.773641	-0.035862	0	0	0
13565	0	0	0	0	0	9.720464	1.451394	-0.315698	-0.002414	-0.001786	-0.002795	-0.312988	-1.261719	-0.651855	0.647391	0.354876	-0.626101	0.250889	103.868323	-81.391212	-52.990044	0.090105	-0.119530	0.988733	-0.769223	0.622236	0.145324	-0.632596	-0.773651	-0.035879	0	0	0
13566	0	0	0	0	0	9.729748	1.499143	-0.340845	-0.000835	0.004984	-0.003129	-0.324707	-1.260498	-0.641357	0.647411	0.354864	-0.626089	0.250885	103.850175	-81.391341	-52.973275	0.090138	-0.119502	0.988734	-0.769205	0.622256	0.145333	-0.632613	-0.773639	-0.035832	0	0	0
13567	0	0	0	0	0	9.702238	1.462169	-0.302431	-0.002561	0.004047	-0.000332	-0.328613	-1.265869	-0.648926	0.647435	0.354826	-0.626093	0.250866	103.834330	-81.392471	-52.962658	0.090149	-0.119469	0.988737	-0.769147	0.622329	0.145324	-0.632682	-0.773585	-0.035787	0	0	0
13568	0	0	0	0	0	9.715591	1.423719	-0.345810	-0.004298	0.002497	-0.001009	-0.322021	-1.270264	-0.638428	0.647451	0.354800	-0.626097	0.250854	103.825255	-81.393437	-52.957073	0.090150	-0.119447	0.988739	-0.769109	0.622379	0.145313	-0.632728	-0.773548	-0.035760	0	0	0
13569	0	0	0	0	0	9.708174	1.455968	-0.335212	0.003464	0.002488	-0.002119	-0.319580	-1.268799	-0.647217	0.647443	0.354833	-0.626071	0.250892	103.818710	-81.393525	-52.944166	0.090176	-0.119426	0.988739	-0.769177	0.622294	0.145316	-0.632641	-0.773620	-0.035743	0	0	0
13570	0	0	0	0	0	9.708138	1.456270	-0.334948	0.003182	0.003945	-0.004321	-0.326660	-1.257813	-0.643311	0.647453	0.354839	-0.626056	0.250895	103.805600	-81.392847	-52.930164	0.090213	-0.119413	0.988738	-0.769183	0.622282	0.145335	-0.632628	-0.773632	-0.035713	0	0	0
13571	0	0	0	0	0	9.714031	1.450281	-0.368150	0.001050	0.000702	-0.004915	-0.317627	-1.262939	-0.646973	0.647460	0.354844	-0.626051	0.250880	103.801131	-81.391116	-52.926524	0.090238	-0.119431	0.988733	-0.769171	0.622290	0.145367	-0.632640	-0.773622	-0.035709	0	0	0
13572	0	0	0	0	0	9.708035	1.457021	-0.334665	0.010560	0.002858	-0.001872	-0.323975	-1.258789	-0.640625	0.647451	0.354868	-0.626034	0.250913	103.798458	-81.391651	-52.918803	0.090249	-0.119412	0.988735	-0.769226	0.622223	0.145360	-0.632571	-0.773679	-0.035700	0	0	0
13573	0	0	0	0	0	9.703189	1.428989	-0.365745	0.005078	0.000276	-0.002632	-0.327881	-1.263916	-0.643311	0.647450	0.354872	-0.626034	0.250910	103.799601	-81.391073	-52.919789	0.090253	-0.119421	0.988733	-0.769227	0.622220	0.145369	-0.632570	-0.773680	-0.035705	0	0	0
13574	0	0	0	0	0	9.729495	1.501170	-0.339120	0.007199	0.002907	-0.005512	-0.319824	-1.264893	-0.638184	0.647452	0.354897	-0.626014	0.250920	103.791539	-81.389589	-52.908565	0.090291	-0.119424	0.988729	-0.769258	0.622175	0.145399	-0.632527	-0.773716	-0.035691	0	0	0
13575	0	0	0	0	0	9.711239	1.511966	-0.326466	0.000656	-0.000991	-0.004831	-0.325684	-1.255127	-0.641113	0.647446	0.354923	-0.626005	0.250922	103.793792	-81.387689	-52.908179	0.090312	-0.119449	0.988724	-0.769284	0.622136	0.145429	-0.632492	-0.773744	-0.035704	0	0	0
13576	0	0	0	0	0	9.701856	1.464955	-0.301198	-0.001352	-0.000472	-0.004236	-0.322998	-1.260498	-0.641357	0.647450	0.354920	-0.626009	0.250904	103.794397	-81.386454	-52.910676	0.090320	-0.119470	0.988721	-0.769261	0.622159	0.145449	-0.632518	-0.773722	-0.035711	0	0	0
13577	0	0	0	0	0	9.695528	1.462764	-0.355410	-0.000010	-0.000613	-0.003475	-0.330322	-1.257324	-0.641113	0.647462	0.354895	-0.626026	0.250866	103.796262	-81.385467	-52.918119	0.090314	-0.119496	0.988718	-0.769200	0.622231	0.145465	-0.632594	-0.773659	-0.035720	0	0	0
13578	0	0	0	0	0	9.724427	1.474621	-0.370175	-0.006317	0.002401	-0.003889	-0.316650	-1.268311	-0.641602	0.647484	0.354871	-0.626028	0.250838	103.783782	-81.384817	-52.910260	0.090338	-0.119492	0.988717	-0.769146	0.622293	0.145483	-0.632656	-0.773610	-0.035690	0	0	0
13579	0	0	0	0	0	9.718454	1.481247	-0.336441	-0.004965	0.002873	0.000347	-0.316406	-1.260010	-0.641357	0.647497	0.354848	-0.626029	0.250836	103.773192	-81.386337	-52.902059	0.090339	-0.119458	0.988721	-0.769121	0.622329	0.145465	-0.632686	-0.773587	-0.035657	0	0	0
13580	0	0	0	0	0	9.684653	1.441880	-0.352331	-0.002582	0.002821	-0.007282	-0.313721	-1.265381	-0.651611	0.647518	0.354846	-0.626018	0.250810	103.758261	-81.383855	-52.889556	0.090391	-0.119473	0.988714	-0.769088	0.622358	0.145515	-0.632719	-0.773561	-0.035630	0	0	0
13581	0	0	0	0	0	9.690859	1.444885	-0.297996	-0.006430	-0.000748	-0.001604	-0.328369	-1.265869	-0.644531	0.647531	0.354822	-0.626031	0.250781	103.756018	-81.383480	-52.892104	0.090389	-0.119482	0.988713	-0.769035	0.622421	0.145523	-0.632784	-0.773509	-0.035625	0	0	0
13582	0	0	0	0	0	9.725731	1.450243	-0.346107	0.003182	0.003947	-0.004320	-0.326416	-1.264404	-0.643311	0.647541	0.354828	-0.626015	0.250784	103.742920	-81.382799	-52.878115	0.090426	-0.119469	0.988711	-0.769041	0.622409	0.145543	-0.632771	-0.773521	-0.035595	0	0	0
13583	0	0	0	0	0	9.677076	1.475106	-0.341623	0.001604	-0.002825	-0.003987	-0.322510	-1.261475	-0.643555	0.647530	0.354846	-0.626019	0.250779	103.753830	-81.381271	-52.887818	0.090421	-0.119506	0.988707	-0.769054	0.622389	0.145562	-0.632756	-0.773531	-0.035629	0	0	0
13584	0	0	0	0	0	9.724158	1.476626	-0.369254	0.001727	0.000938	-0.002797	-0.321533	-1.258057	-0.646729	0.647532	0.354846	-0.626017	0.250777	103.752317	-81.381028	-52.886389	0.090427	-0.119507	0.988707	-0.769052	0.622390	0.145567	-0.632757	-0.773530	-0.035626	0	0	0
13585	0	0	0	0	0	9.730372	1.479516	-0.315120	0.001999	-0.001132	-0.004070	-0.320801	-1.256836	-0.644043	0.647538	0.354836	-0.626029	0.250747	103.755903	-81.379543	-52.893632	0.090427	-0.119538	0.988703	-0.769011	0.622436	0.145589	-0.632807	-0.773489	-0.035641	0	0	0
13586	0	0	0	0	0	9.701375	1.468350	-0.300183	0.002121	0.002631	-0.002880	-0.317139	-1.253174	-0.646973	0.647544	0.354836	-0.626021	0.250749	103.748326	-81.379485	-52.885841	0.090444	-0.119527	0.988703	-0.769012	0.622433	0.145595	-0.632804	-0.773492	-0.035622	0	0	0
13587	0	0	0	0	0	9.698032	1.414533	-0.308114	-0.000666	0.000377	0.001357	-0.327393	-1.264404	-0.639648	0.647562	0.354776	-0.626054	0.250707	103.749087	-81.381170	-52.895832	0.090406	-0.119520	0.988707	-0.768914	0.622560	0.145566	-0.632928	-0.773391	-0.035617	0	0	0
13588	0	0	0	0	0	9.702488	1.434022	-0.364652	0.003332	-0.001886	-0.006784	-0.329590	-1.265625	-0.645996	0.647558	0.354797	-0.626052	0.250693	103.755280	-81.378323	-52.901268	0.090424	-0.119567	0.988700	-0.768919	0.622544	0.145610	-0.632919	-0.773397	-0.035645	0	0	0
13589	0	0	0	0	0	9.725409	1.452338	-0.346372	0.000272	-0.002070	-0.001273	-0.318848	-1.262451	-0.644287	0.647546	0.354803	-0.626059	0.250696	103.765472	-81.378454	-52.910605	0.090403	-0.119580	0.988700	-0.768931	0.622532	0.145602	-0.632908	-0.773405	-0.035670	0	0	0
13590	0	0	0	0	0	9.708636	1.437310	-0.310760	-0.000292	0.000844	-0.005676	-0.318848	-1.263672	-0.639160	0.647555	0.354806	-0.626055	0.250679	103.760558	-81.376596	-52.906907	0.090430	-0.119600	0.988695	-0.768914	0.622545	0.145636	-0.632925	-0.773391	-0.035665	0	0	0
13591	0	0	0	0	0	9.714520	1.431371	-0.344299	0.003614	-0.003343	-0.004582	-0.327393	-1.259277	-0.642334	0.647538	0.354843	-0.626050	0.250685	103.772338	-81.374358	-52.914807	0.090437	-0.119643	0.988689	-0.768954	0.622487	0.145666	-0.632875	-0.773431	-0.035704	0	0	0
13592	0	0	0	0	0	9.684031	1.445955	-0.352729	0.007753	-0.000617	-0.004584	-0.315186	-1.258545	-0.641846	0.647526	0.354871	-0.626043	0.250693	103.778376	-81.372909	-52.917523	0.090446	-0.119668	0.988686	-0.768989	0.622439	0.145686	-0.632831	-0.773466	-0.035726	0	0	0
13593	0	0	0	0	0	9.735897	1.475786	-0.349266	0.005744	-0.000099	-0.003988	-0.326172	-1.260986	-0.646729	0.647524	0.354881	-0.626041	0.250687	103.780590	-81.371598	-52.919306	0.090456	-0.119688	0.988682	-0.768993	0.622431	0.145707	-0.632826	-0.773469	-0.035737	0	0	0
13594	0	0	0	0	0	9.706899	1.464626	-0.334421	0.003735	0.000420	-0.003392	-0.324463	-1.267090	-0.646729	0.647521	0.354891	-0.626038	0.250689	103.781592	-81.370953	-52.919256	0.090463	-0.119697	0.988680	-0.769003	0.622415	0.145717	-0.632812	-0.773480	-0.035742	0	0	0
13595	0	0	0	0	0	9.725053	1.454572	-0.347006	0.006814	0.001831	-0.001954	-0.323242	-1.261963	-0.647217	0.647520	0.354897	-0.626032	0.250699	103.779573	-81.371144	-52.915787	0.090468	-0.119689	0.988681	-0.769019	0.622396	0.145715	-0.632792	-0.773497	-0.035736	0	0	0
13596	0	0	0	0	0	9.699374	1.497291	-0.324167	0.006017	-0.002168	-0.005261	-0.319336	-1.261963	-0.644531	0.647508	0.354923	-0.626031	0.250697	103.789691	-81.369106	-52.923636	0.090473	-0.119730	0.988676	-0.769042	0.622361	0.145743	-0.632763	-0.773519	-0.035770	0	0	0
13597	0	0	0	0	0	9.716008	1.513113	-0.360105	0.004008	-0.001650	-0.004665	-0.328613	-1.258301	-0.643311	0.647505	0.354932	-0.626035	0.250680	103.795605	-81.367182	-52.930288	0.090479	-0.119767	0.988671	-0.769032	0.622366	0.145772	-0.632774	-0.773509	-0.035793	0	0	0
13598	0	0	0	0	0	9.675091	1.514811	-0.278434	0.003463	0.002491	-0.002120	-0.312256	-1.259277	-0.643066	0.647508	0.354934	-0.626028	0.250688	103.790005	-81.367528	-52.923719	0.090489	-0.119751	0.988671	-0.769042	0.622355	0.145769	-0.632760	-0.773521	-0.035777	0	0	0
13599	0	0	0	0	0	9.705181	1.491788	-0.357842	0.000273	-0.002070	-0.001273	-0.324463	-1.269043	-0.633789	0.647508	0.354917	-0.626046	0.250667	103.798491	-81.367438	-52.935672	0.090465	-0.119772	0.988671	-0.769006	0.622400	0.145766	-0.632808	-0.773481	-0.035799	0	0	0
13600	0	0	0	0	0	9.729626	1.484146	-0.316391	-0.000000	0.000000	-0.000000	-0.316162	-1.256836	-0.645264	0.647506	0.354905	-0.626055	0.250667	103.801943	-81.368623	-52.940266	0.090443	-0.119762	0.988674	-0.768996	0.622418	0.145744	-0.632823	-0.773468	-0.035803	0	0	0
13601	0	0	0	0	0	9.712615	1.459704	-0.368267	0.005088	0.000893	0.000843	-0.322266	-1.263184	-0.640381	0.647490	0.354928	-0.626041	0.250708	103.804509	-81.370051	-52.937039	0.090435	-0.119738	0.988678	-0.769062	0.622343	0.145718	-0.632745	-0.773532	-0.035804	0	0	0
13602	0	0	0	0	0	9.688491	1.476252	-0.322265	0.002018	0.000095	0.002879	-0.325195	-1.268311	-0.649414	0.647482	0.354913	-0.626052	0.250724	103.811365	-81.372851	-52.943907	0.090392	-0.119710	0.988685	-0.769067	0.622348	0.145667	-0.632744	-0.773532	-0.035810	0	0	0
13603	0	0	0	0	0	9.694462	1.469725	-0.355769	0.000272	-0.002070	-0.001273	-0.326172	-1.259521	-0.639648	0.647473	0.354917	-0.626059	0.250725	103.820333	-81.372806	-52.952459	0.090374	-0.119724	0.988685	-0.769073	0.622342	0.145662	-0.632739	-0.773535	-0.035833	0	0	0
13604	0	0	0	0	0	9.694470	1.469671	-0.355768	-0.004684	0.001414	0.002547	-0.318115	-1.263184	-0.636475	0.647481	0.354880	-0.626074	0.250721	103.818219	-81.375602	-52.954137	0.090342	-0.119688	0.988693	-0.769036	0.622398	0.145616	-0.632789	-0.773495	-0.035816	0	0	0
13605	0	0	0	0	0	9.715638	1.407945	-0.322058	-0.005360	0.001178	0.000430	-0.320313	-1.262695	-0.640381	0.647485	0.354866	-0.626075	0.250725	103.813918	-81.376922	-52.950779	0.090335	-0.119665	0.988696	-0.769027	0.622414	0.145597	-0.632801	-0.773486	-0.035800	0	0	0
13606	0	0	0	0	0	9.697433	1.418339	-0.309457	-0.004815	-0.002963	-0.002116	-0.326660	-1.267578	-0.641846	0.647486	0.354849	-0.626095	0.250698	103.823577	-81.376524	-52.964441	0.090311	-0.119692	0.988695	-0.768985	0.622466	0.145598	-0.632856	-0.773440	-0.035826	0	0	0
13607	0	0	0	0	0	9.724874	1.455646	-0.347513	-0.001342	0.000141	-0.000761	-0.328125	-1.273438	-0.643311	0.647480	0.354858	-0.626090	0.250713	103.824267	-81.377052	-52.962956	0.090308	-0.119682	0.988696	-0.769009	0.622438	0.145588	-0.632827	-0.773464	-0.035825	0	0	0
13608	0	0	0	0	0	9.735621	1.477499	-0.349724	-0.003351	0.000660	-0.000166	-0.318604	-1.256348	-0.642334	0.647487	0.354834	-0.626100	0.250704	103.823236	-81.378235	-52.964958	0.090292	-0.119669	0.988700	-0.768978	0.622481	0.145569	-0.632867	-0.773432	-0.035818	0	0	0
13609	0	0	0	0	0	9.705198	1.491704	-0.357730	-0.000948	0.001834	-0.000845	-0.322021	-1.268555	-0.645996	0.647488	0.354835	-0.626093	0.250716	103.817682	-81.378949	-52.958237	0.090298	-0.119649	0.988701	-0.768991	0.622467	0.145561	-0.632851	-0.773446	-0.035801	0	0	0
13610	0	0	0	0	0	9.721918	1.507086	-0.393191	-0.001615	0.002211	0.000512	-0.326416	-1.260010	-0.645020	0.647496	0.354813	-0.626097	0.250716	103.812561	-81.380721	-52.955096	0.090287	-0.119619	0.988706	-0.768971	0.622498	0.145534	-0.632876	-0.773426	-0.035780	0	0	0
13611	0	0	0	0	0	9.705201	1.491750	-0.357480	-0.005481	-0.002585	-0.000759	-0.327393	-1.263428	-0.639648	0.647497	0.354791	-0.626118	0.250693	103.820661	-81.380922	-52.967299	0.090259	-0.119636	0.988707	-0.768928	0.622553	0.145526	-0.632932	-0.773379	-0.035800	0	0	0
13612	0	0	0	0	0	9.706681	1.466047	-0.334523	-0.003069	-0.000798	0.002036	-0.329102	-1.262695	-0.646729	0.647496	0.354763	-0.626136	0.250689	103.827130	-81.383129	-52.976723	0.090216	-0.119620	0.988712	-0.768900	0.622596	0.145485	-0.632972	-0.773346	-0.035808	0	0	0
13613	0	0	0	0	0	9.708200	1.440098	-0.311492	-0.002393	-0.000562	0.004154	-0.327393	-1.265625	-0.644043	0.647492	0.354731	-0.626157	0.250694	103.835112	-81.386496	-52.987225	0.090160	-0.119590	0.988721	-0.768880	0.622636	0.145423	-0.633005	-0.773319	-0.035814	0	0	0
13614	0	0	0	0	0	9.718984	1.461690	-0.313760	0.003745	0.001033	0.000082	-0.322510	-1.264648	-0.633545	0.647487	0.354729	-0.626158	0.250708	103.837003	-81.387867	-52.988068	0.090144	-0.119573	0.988725	-0.768893	0.622625	0.145399	-0.632991	-0.773331	-0.035813	0	0	0
13615	0	0	0	0	0	9.688550	1.475918	-0.322037	0.002281	-0.002588	-0.001869	-0.317383	-1.265869	-0.642090	0.647463	0.354766	-0.626150	0.250736	103.849283	-81.387439	-52.994477	0.090135	-0.119589	0.988724	-0.768959	0.622544	0.145399	-0.632912	-0.773393	-0.035846	0	0	0
13616	0	0	0	0	0	9.712690	1.459209	-0.368241	0.008439	0.000232	0.001009	-0.315186	-1.252686	-0.639160	0.647446	0.354778	-0.626149	0.250767	103.857647	-81.389216	-52.999148	0.090106	-0.119572	0.988728	-0.769003	0.622498	0.145364	-0.632863	-0.773433	-0.035860	0	0	0
13617	0	0	0	0	0	9.683771	1.447509	-0.353496	0.007378	-0.001083	0.002449	-0.325928	-1.256592	-0.642334	0.647426	0.354789	-0.626151	0.250798	103.869246	-81.391145	-53.007011	0.090070	-0.119557	0.988733	-0.769049	0.622451	0.145324	-0.632812	-0.773473	-0.035881	0	0	0
13618	0	0	0	0	0	9.711265	1.484439	-0.391657	0.006036	-0.000942	0.001688	-0.324951	-1.267334	-0.643799	0.647408	0.354792	-0.626158	0.250821	103.881170	-81.393138	-53.016675	0.090029	-0.119545	0.988738	-0.769079	0.622423	0.145283	-0.632782	-0.773497	-0.035903	0	0	0
13619	0	0	0	0	0	9.706818	1.464956	-0.335319	0.003361	-0.000046	0.003640	-0.320313	-1.269043	-0.635498	0.647398	0.354777	-0.626170	0.250840	103.889460	-81.396188	-53.024686	0.089981	-0.119516	0.988746	-0.769088	0.622425	0.145227	-0.632778	-0.773500	-0.035912	0	0	0
13620	0	0	0	0	0	9.708318	1.439074	-0.312536	0.000160	-0.005220	0.001013	-0.322510	-1.261230	-0.644531	0.647378	0.354768	-0.626197	0.250835	103.913142	-81.397216	-53.049645	0.089918	-0.119541	0.988749	-0.769080	0.622443	0.145195	-0.632796	-0.773482	-0.035967	0	0	0
13621	0	0	0	0	0	9.706833	1.464743	-0.335799	0.001060	0.001316	-0.001440	-0.331299	-1.264648	-0.639893	0.647370	0.354794	-0.626179	0.250864	103.909826	-81.397429	-53.041391	0.089933	-0.119525	0.988750	-0.769133	0.622377	0.145193	-0.632729	-0.773538	-0.035958	0	0	0
13622	0	0	0	0	0	9.726500	1.428765	-0.325390	-0.003463	-0.002490	0.002120	-0.320313	-1.271973	-0.639893	0.647364	0.354766	-0.626204	0.250856	103.922410	-81.399447	-53.057225	0.089879	-0.119522	0.988755	-0.769103	0.622424	0.145152	-0.632773	-0.773501	-0.035982	0	0	0
13623	0	0	0	0	0	9.696080	1.442881	-0.333747	0.000272	-0.002070	-0.001273	-0.329102	-1.266113	-0.640625	0.647341	0.354804	-0.626193	0.250891	103.932151	-81.399412	-53.060459	0.089873	-0.119527	0.988755	-0.769176	0.622336	0.145146	-0.632686	-0.773571	-0.036006	0	0	0
13624	0	0	0	0	0	9.714250	1.432669	-0.346507	0.002009	-0.000518	-0.000596	-0.323975	-1.257080	-0.638672	0.647335	0.354801	-0.626199	0.250895	103.938149	-81.400192	-53.066462	0.089852	-0.119526	0.988757	-0.769178	0.622337	0.145129	-0.632687	-0.773570	-0.036018	0	0	0
13625	0	0	0	0	0	9.689791	1.440363	-0.388034	0.001736	0.001552	0.000677	-0.327148	-1.273682	-0.645996	0.647333	0.354794	-0.626200	0.250909	103.937428	-81.401844	-53.065120	0.089838	-0.119501	0.988761	-0.769187	0.622332	0.145102	-0.632677	-0.773578	-0.036010	0	0	0
13626	0	0	0	0	0	9.712763	1.458402	-0.369532	0.001333	-0.000755	-0.002713	-0.325928	-1.265625	-0.643555	0.647330	0.354795	-0.626204	0.250903	103.941977	-81.401414	-53.070048	0.089832	-0.119515	0.988760	-0.769183	0.622336	0.145106	-0.632683	-0.773573	-0.036023	0	0	0
13627	0	0	0	0	0	9.714211	1.432890	-0.346688	0.004966	-0.002871	-0.000346	-0.328125	-1.271973	-0.645752	0.647299	0.354837	-0.626196	0.250945	103.957846	-81.401798	-53.078367	0.089811	-0.119522	0.988761	-0.769268	0.622234	0.145090	-0.632582	-0.773653	-0.036062	0	0	0
13628	0	0	0	0	0	9.694551	1.468816	-0.357092	0.002524	0.004938	0.000509	-0.327637	-1.262939	-0.636475	0.647308	0.354825	-0.626186	0.250964	103.945085	-81.403946	-53.065098	0.089816	-0.119472	0.988767	-0.769275	0.622232	0.145062	-0.632574	-0.773662	-0.036020	0	0	0
13629	0	0	0	0	0	9.711574	1.493301	-0.304944	-0.004027	0.000423	-0.002283	-0.329590	-1.267578	-0.650635	0.647305	0.354837	-0.626177	0.250975	103.942546	-81.403774	-53.060450	0.089827	-0.119467	0.988766	-0.769297	0.622204	0.145067	-0.632545	-0.773686	-0.036015	0	0	0
13630	0	0	0	0	0	9.714197	1.433029	-0.346496	0.000555	-0.003527	0.000929	-0.323486	-1.262695	-0.638184	0.647291	0.354828	-0.626198	0.250974	103.960177	-81.404985	-53.079060	0.089776	-0.119480	0.988769	-0.769291	0.622218	0.145035	-0.632559	-0.773672	-0.036054	0	0	0
13631	0	0	0	0	0	9.699330	1.497163	-0.326076	0.003351	-0.000659	0.000166	-0.322266	-1.266113	-0.647949	0.647278	0.354836	-0.626199	0.250992	103.967510	-81.406007	-53.084059	0.089755	-0.119473	0.988772	-0.769320	0.622188	0.145013	-0.632528	-0.773697	-0.036069	0	0	0
13632	0	0	0	0	0	9.705297	1.490636	-0.359502	-0.000666	0.000377	0.001357	-0.329346	-1.266846	-0.647217	0.647277	0.354817	-0.626210	0.250995	103.970475	-81.407995	-53.088544	0.089725	-0.119453	0.988777	-0.769307	0.622213	0.144978	-0.632548	-0.773681	-0.036068	0	0	0
13633	0	0	0	0	0	9.712760	1.458342	-0.369837	-0.001727	-0.000938	0.002797	-0.325684	-1.270020	-0.642822	0.647270	0.354801	-0.626222	0.251005	103.977855	-81.410400	-53.096543	0.089683	-0.119432	0.988784	-0.769305	0.622225	0.144933	-0.632556	-0.773674	-0.036076	0	0	0
13634	0	0	0	0	0	9.692731	1.389069	-0.342227	-0.000676	-0.000236	-0.002118	-0.322510	-1.269531	-0.643555	0.647271	0.354793	-0.626229	0.250996	103.979893	-81.410372	-53.100096	0.089676	-0.119438	0.988783	-0.769289	0.622245	0.144933	-0.632576	-0.773657	-0.036082	0	0	0
13635	0	0	0	0	0	9.714220	1.432748	-0.347031	0.002563	-0.004045	0.000333	-0.322021	-1.261475	-0.650391	0.647236	0.354838	-0.626222	0.251042	103.998904	-81.410865	-53.110949	0.089649	-0.119448	0.988785	-0.769382	0.622135	0.144912	-0.632467	-0.773744	-0.036128	0	0	0
13636	0	0	0	0	0	9.717558	1.486479	-0.339223	0.002019	0.000095	0.002879	-0.324951	-1.268799	-0.645264	0.647227	0.354823	-0.626233	0.251058	104.005854	-81.413660	-53.117906	0.089605	-0.119421	0.988792	-0.769387	0.622141	0.144861	-0.632467	-0.773744	-0.036134	0	0	0
13637	0	0	0	0	0	9.699398	1.496597	-0.326634	0.001343	-0.000141	0.000761	-0.322510	-1.264404	-0.641602	0.647222	0.354818	-0.626237	0.251068	104.009693	-81.414972	-53.121359	0.089584	-0.119408	0.988795	-0.769394	0.622138	0.144837	-0.632462	-0.773748	-0.036138	0	0	0
13638	0	0	0	0	0	9.737249	1.450348	-0.328800	-0.001343	0.000141	-0.000761	-0.324951	-1.270752	-0.641113	0.647224	0.354804	-0.626246	0.251062	104.011208	-81.415750	-53.124768	0.089569	-0.119402	0.988797	-0.769375	0.622165	0.144823	-0.632487	-0.773727	-0.036138	0	0	0
13639	0	0	0	0	0	9.696088	1.442627	-0.334619	0.004422	0.001270	0.002199	-0.323975	-1.261719	-0.648438	0.647202	0.354835	-0.626226	0.251121	104.013542	-81.418025	-53.119010	0.089558	-0.119362	0.988803	-0.769466	0.622060	0.144783	-0.632377	-0.773818	-0.036135	0	0	0
13640	0	0	0	0	0	9.712811	1.457898	-0.370258	-0.001342	0.000141	-0.000761	-0.329590	-1.261963	-0.641113	0.647204	0.354821	-0.626235	0.251115	104.015058	-81.418802	-53.122420	0.089543	-0.119357	0.988805	-0.769447	0.622087	0.144769	-0.632402	-0.773797	-0.036135	0	0	0
13641	0	0	0	0	0	9.700587	1.461726	-0.390914	-0.000272	0.002070	0.001273	-0.331543	-1.269043	-0.639648	0.647214	0.354788	-0.626246	0.251107	104.011303	-81.420853	-53.122382	0.089521	-0.119328	0.988811	-0.769409	0.622142	0.144737	-0.632452	-0.773757	-0.036117	0	0	0
13642	0	0	0	0	0	9.714328	1.432038	-0.346922	-0.001333	0.000755	0.002713	-0.321533	-1.263672	-0.643555	0.647214	0.354761	-0.626259	0.251114	104.013759	-81.423648	-53.126737	0.089483	-0.119297	0.988818	-0.769394	0.622173	0.144689	-0.632476	-0.773737	-0.036112	0	0	0
13643	0	0	0	0	0	9.700959	1.470451	-0.303318	-0.000788	-0.003386	0.000168	-0.322266	-1.260254	-0.649902	0.647194	0.354776	-0.626265	0.251130	104.028966	-81.424256	-53.139148	0.089451	-0.119308	0.988820	-0.769428	0.622135	0.144669	-0.632440	-0.773766	-0.036148	0	0	0
13644	0	0	0	0	0	9.717710	1.485553	-0.338927	0.003877	0.005410	0.004745	-0.322266	-1.267822	-0.646729	0.647196	0.354754	-0.626260	0.251168	104.019119	-81.428825	-53.128041	0.089427	-0.119227	0.988831	-0.769446	0.622128	0.144599	-0.632420	-0.773784	-0.036104	0	0	0
13645	0	0	0	0	0	9.725213	1.453019	-0.349026	-0.002393	-0.000561	0.004154	-0.326416	-1.269043	-0.648682	0.647194	0.354722	-0.626279	0.251170	104.025173	-81.431925	-53.136860	0.089377	-0.119198	0.988840	-0.769422	0.622171	0.144543	-0.632457	-0.773754	-0.036106	0	0	0
13646	0	0	0	0	0	9.688862	1.473496	-0.323748	0.001060	0.001315	-0.001441	-0.320801	-1.262695	-0.647217	0.647197	0.354716	-0.626279	0.251172	104.023112	-81.432488	-53.135260	0.089374	-0.119188	0.988841	-0.769418	0.622179	0.144535	-0.632463	-0.773749	-0.036099	0	0	0
13647	0	0	0	0	0	9.694839	1.466901	-0.357150	0.000958	-0.001220	0.004319	-0.326172	-1.270508	-0.653320	0.647182	0.354706	-0.626291	0.251196	104.033976	-81.435612	-53.144943	0.089322	-0.119160	0.988849	-0.769437	0.622168	0.144476	-0.632446	-0.773762	-0.036113	0	0	0
13648	0	0	0	0	0	9.679319	1.416539	-0.386094	0.000282	-0.001457	0.002202	-0.330322	-1.269287	-0.644775	0.647172	0.354690	-0.626307	0.251202	104.045063	-81.437814	-53.157090	0.089274	-0.119148	0.988855	-0.769431	0.622186	0.144432	-0.632461	-0.773749	-0.036132	0	0	0
13649	0	0	0	0	0	9.713107	1.455984	-0.370010	-0.006138	-0.001593	0.004072	-0.329590	-1.264893	-0.651123	0.647161	0.354675	-0.626320	0.251220	104.053842	-81.440863	-53.165592	0.089224	-0.119119	0.988863	-0.769440	0.622188	0.144375	-0.632456	-0.773752	-0.036141	0	0	0
13650	0	0	0	0	0	9.707201	1.462119	-0.336604	-0.001332	0.000755	0.002713	-0.326172	-1.261719	-0.642822	0.647161	0.354649	-0.626332	0.251227	104.056320	-81.443656	-53.169969	0.089186	-0.119088	0.988870	-0.769424	0.622219	0.144327	-0.632481	-0.773732	-0.036135	0	0	0
13651	0	0	0	0	0	9.707248	1.461849	-0.336415	-0.006692	0.001934	0.003143	-0.330078	-1.268311	-0.643066	0.647177	0.354595	-0.626352	0.251211	104.051076	-81.446731	-53.171144	0.089152	-0.119047	0.988878	-0.769358	0.622312	0.144279	-0.632566	-0.773664	-0.036109	0	0	0
13652	0	0	0	0	0	9.743638	1.441106	-0.361610	-0.004140	-0.002726	0.000002	-0.321045	-1.264160	-0.641846	0.647175	0.354572	-0.626375	0.251193	104.062303	-81.447534	-53.185995	0.089113	-0.119059	0.988880	-0.769322	0.622361	0.144258	-0.632616	-0.773622	-0.036134	0	0	0
13653	0	0	0	0	0	9.707305	1.461472	-0.336406	-0.006410	0.000477	0.005345	-0.333984	-1.267822	-0.641602	0.647170	0.354549	-0.626384	0.251217	104.064513	-81.451500	-53.188285	0.089067	-0.119008	0.988890	-0.769327	0.622370	0.144191	-0.632615	-0.773623	-0.036123	0	0	0
13654	0	0	0	0	0	9.695120	1.465071	-0.357014	-0.005360	0.001179	0.000430	-0.329834	-1.270264	-0.644043	0.647181	0.354517	-0.626396	0.251204	104.061008	-81.453083	-53.188945	0.089049	-0.118987	0.988894	-0.769284	0.622429	0.144166	-0.632671	-0.773579	-0.036108	0	0	0
13655	0	0	0	0	0	9.720751	1.422529	-0.379823	-0.001332	0.000755	0.002713	-0.331055	-1.270996	-0.642822	0.647165	0.354527	-0.626388	0.251247	104.063908	-81.455809	-53.187074	0.089025	-0.118946	0.988902	-0.769340	0.622371	0.144119	-0.632606	-0.773632	-0.036104	0	0	0
13656	0	0	0	0	0	9.710006	1.400617	-0.377515	-0.003745	-0.001032	-0.000082	-0.326904	-1.268799	-0.642822	0.647167	0.354504	-0.626405	0.251234	104.069037	-81.456800	-53.195529	0.088997	-0.118946	0.988904	-0.769307	0.622417	0.144099	-0.632650	-0.773595	-0.036112	0	0	0
13657	0	0	0	0	0	9.714821	1.428828	-0.346367	0.001737	0.001551	0.000677	-0.328857	-1.265381	-0.649658	0.647148	0.354542	-0.626380	0.251293	104.068208	-81.458387	-53.186072	0.089000	-0.118909	0.988908	-0.769403	0.622304	0.144073	-0.632533	-0.773691	-0.036104	0	0	0
13658	0	0	0	0	0	9.725597	1.450561	-0.348550	-0.002009	0.000519	0.000596	-0.329590	-1.265137	-0.641602	0.647151	0.354520	-0.626390	0.251289	104.069222	-81.459970	-53.189359	0.088977	-0.118892	0.988912	-0.769381	0.622338	0.144046	-0.632563	-0.773667	-0.036100	0	0	0
13659	0	0	0	0	0	9.702648	1.432359	-0.366924	0.003089	0.002023	0.004913	-0.328613	-1.263428	-0.645020	0.647140	0.354510	-0.626391	0.251328	104.071192	-81.464040	-53.188894	0.088936	-0.118835	0.988923	-0.769414	0.622313	0.143976	-0.632529	-0.773695	-0.036087	0	0	0
13660	0	0	0	0	0	9.747212	1.493590	-0.353026	0.000948	-0.001834	0.000845	-0.325439	-1.265381	-0.641113	0.647130	0.354501	-0.626406	0.251331	104.082849	-81.465434	-53.201231	0.088896	-0.118835	0.988927	-0.769410	0.622324	0.143946	-0.632539	-0.773686	-0.036111	0	0	0
13661	0	0	0	0	0	9.693826	1.489693	-0.379704	-0.002675	0.000897	0.001952	-0.327148	-1.259766	-0.650635	0.647130	0.354485	-0.626411	0.251342	104.082694	-81.467624	-53.201548	0.088873	-0.118806	0.988932	-0.769408	0.622335	0.143909	-0.632544	-0.773682	-0.036101	0	0	0
13662	0	0	0	0	0	9.714947	1.428027	-0.346123	-0.001342	0.000141	-0.000761	-0.329102	-1.266602	-0.648682	0.647132	0.354471	-0.626420	0.251336	104.084233	-81.468401	-53.204980	0.088858	-0.118800	0.988934	-0.769389	0.622362	0.143895	-0.632570	-0.773662	-0.036102	0	0	0
13663	0	0	0	0	0	9.713489	1.453643	-0.369199	0.002685	-0.000283	0.001522	-0.325684	-1.267578	-0.646484	0.647128	0.354452	-0.626434	0.251337	104.090762	-81.470247	-53.213138	0.088822	-0.118787	0.988939	-0.769376	0.622387	0.143860	-0.632591	-0.773643	-0.036111	0	0	0
13664	0	0	0	0	0	9.702752	1.431639	-0.366980	-0.001727	-0.000938	0.002797	-0.334961	-1.268555	-0.641602	0.647123	0.354427	-0.626452	0.251339	104.099393	-81.472851	-53.223964	0.088772	-0.118768	0.988946	-0.769357	0.622421	0.143811	-0.632621	-0.773619	-0.036121	0	0	0
13665	0	0	0	0	0	9.720976	1.421028	-0.379682	-0.000384	-0.001079	0.003558	-0.330322	-1.264404	-0.641113	0.647101	0.354436	-0.626453	0.251380	104.109908	-81.475721	-53.230009	0.088730	-0.118738	0.988953	-0.769412	0.622366	0.143756	-0.632560	-0.773668	-0.036136	0	0	0
13666	0	0	0	0	0	9.715044	1.427309	-0.346362	-0.003745	-0.001032	-0.000082	-0.325928	-1.266113	-0.649658	0.647103	0.354413	-0.626469	0.251367	104.115061	-81.476712	-53.238488	0.088702	-0.118737	0.988956	-0.769378	0.622412	0.143737	-0.632605	-0.773631	-0.036144	0	0	0
13667	0	0	0	0	0	9.744011	1.438691	-0.361187	-0.004683	0.001416	0.002548	-0.325195	-1.262695	-0.650391	0.647106	0.354390	-0.626475	0.251376	104.112348	-81.479321	-53.237097	0.088678	-0.118699	0.988962	-0.769367	0.622435	0.143695	-0.632622	-0.773618	-0.036127	0	0	0
13668	0	0	0	0	0	9.704298	1.405411	-0.343927	-0.004422	-0.001268	-0.002200	-0.326660	-1.259521	-0.653809	0.647111	0.354372	-0.626489	0.251353	104.116016	-81.479102	-53.244465	0.088665	-0.118713	0.988962	-0.769327	0.622484	0.143696	-0.632672	-0.773576	-0.036137	0	0	0
13669	0	0	0	0	0	9.743972	1.439010	-0.360975	0.003182	0.003946	-0.004321	-0.326904	-1.262207	-0.644043	0.647134	0.354353	-0.626486	0.251329	104.101004	-81.478227	-53.233286	0.088698	-0.118708	0.988960	-0.769282	0.622535	0.143720	-0.632723	-0.773536	-0.036103	0	0	0
13670	0	0	0	0	0	9.702768	1.431602	-0.366700	-0.003745	-0.001032	-0.000082	-0.327637	-1.268555	-0.644287	0.647136	0.354330	-0.626503	0.251315	104.106157	-81.479218	-53.241766	0.088670	-0.118708	0.988962	-0.769248	0.622582	0.143700	-0.632768	-0.773499	-0.036111	0	0	0
13671	0	0	0	0	0	9.707564	1.459979	-0.335426	-0.006984	0.002778	-0.002532	-0.333496	-1.273193	-0.648926	0.647152	0.354320	-0.626495	0.251309	104.092293	-81.479158	-53.229400	0.088696	-0.118689	0.988962	-0.769229	0.622603	0.143710	-0.632787	-0.773485	-0.036077	0	0	0
13672	0	0	0	0	0	9.714957	1.428110	-0.345491	-0.006036	0.000944	-0.001687	-0.327637	-1.271240	-0.644531	0.647166	0.354292	-0.626505	0.251286	104.087308	-81.479532	-53.228954	0.088693	-0.118683	0.988963	-0.769180	0.622665	0.143707	-0.632848	-0.773436	-0.036063	0	0	0
13673	0	0	0	0	0	9.716395	1.402658	-0.322300	-0.004027	0.000425	-0.002283	-0.326416	-1.266602	-0.639893	0.647153	0.354333	-0.626480	0.251327	104.084484	-81.479322	-53.218841	0.088716	-0.118671	0.988962	-0.769258	0.622567	0.143712	-0.632749	-0.773517	-0.036057	0	0	0
13674	0	0	0	0	0	9.727128	1.424706	-0.324416	0.002121	0.002631	-0.002880	-0.323486	-1.262939	-0.643555	0.647159	0.354333	-0.626472	0.251329	104.076804	-81.479268	-53.210945	0.088733	-0.118659	0.988962	-0.769259	0.622564	0.143718	-0.632746	-0.773521	-0.036038	0	0	0
13675	0	0	0	0	0	9.695235	1.464719	-0.355335	-0.000554	0.003527	-0.000928	-0.325439	-1.265869	-0.650146	0.647162	0.354342	-0.626454	0.251353	104.065090	-81.480125	-53.196238	0.088755	-0.118625	0.988965	-0.769291	0.622526	0.143711	-0.632704	-0.773556	-0.036005	0	0	0
13676	0	0	0	0	0	9.736397	1.472513	-0.349153	-0.003633	0.002118	-0.002367	-0.325439	-1.268799	-0.641113	0.647177	0.354322	-0.626456	0.251338	104.056494	-81.480284	-53.190748	0.088764	-0.118614	0.988965	-0.769256	0.622569	0.143714	-0.632745	-0.773523	-0.035982	0	0	0
13677	0	0	0	0	0	9.691828	1.411394	-0.362925	-0.000292	0.000844	-0.005676	-0.325684	-1.266357	-0.643799	0.647173	0.354363	-0.626430	0.251356	104.050197	-81.478124	-53.179142	0.088811	-0.118626	0.988959	-0.769309	0.622494	0.143754	-0.632674	-0.773582	-0.035976	0	0	0
13678	0	0	0	0	0	9.714788	1.429592	-0.344129	-0.004571	0.004565	0.000263	-0.331543	-1.266846	-0.652344	0.647193	0.354329	-0.626430	0.251351	104.034424	-81.480085	-53.166938	0.088816	-0.118580	0.988964	-0.769270	0.622547	0.143731	-0.632720	-0.773546	-0.035928	0	0	0
13679	0	0	0	0	0	9.702551	1.433659	-0.364409	-0.005923	0.004094	-0.003972	-0.322021	-1.266357	-0.656250	0.647212	0.354328	-0.626413	0.251349	104.014923	-81.479450	-53.147723	0.088862	-0.118559	0.988963	-0.769263	0.622551	0.143754	-0.632723	-0.773546	-0.035882	0	0	0
13680	0	0	0	0	0	9.714741	1.430129	-0.343207	-0.006984	0.002779	-0.002532	-0.326416	-1.262939	-0.643799	0.647234	0.354297	-0.626416	0.251324	104.001800	-81.479608	-53.139596	0.088877	-0.118544	0.988963	-0.769206	0.622619	0.143759	-0.632789	-0.773494	-0.035848	0	0	0
13681	0	0	0	0	0	9.722132	1.398359	-0.353265	-0.002966	0.001741	-0.003723	-0.332520	-1.258057	-0.650391	0.647245	0.354297	-0.626408	0.251316	103.991895	-81.478656	-53.130403	0.088906	-0.118543	0.988961	-0.769195	0.622628	0.143781	-0.632799	-0.773487	-0.035827	0	0	0
13682	0	0	0	0	0	9.726876	1.426990	-0.321912	-0.004308	0.001883	-0.004484	-0.331787	-1.262451	-0.646973	0.647263	0.354282	-0.626408	0.251292	103.981824	-81.477605	-53.123813	0.088931	-0.118547	0.988958	-0.769154	0.622673	0.143805	-0.632845	-0.773450	-0.035806	0	0	0
13683	0	0	0	0	0	9.707140	1.463527	-0.332219	-0.003370	-0.000564	-0.007115	-0.318848	-1.255371	-0.645508	0.647288	0.354248	-0.626430	0.251222	103.979053	-81.474781	-53.130276	0.088946	-0.118596	0.988951	-0.769049	0.622792	0.143854	-0.632971	-0.773347	-0.035811	0	0	0
13684	0	0	0	0	0	9.707087	1.463891	-0.332165	-0.003351	0.000661	-0.000165	-0.339600	-1.270264	-0.645020	0.647295	0.354224	-0.626440	0.251213	103.978057	-81.475962	-53.132309	0.088930	-0.118583	0.988954	-0.769018	0.622835	0.143835	-0.633011	-0.773314	-0.035804	0	0	0
13685	0	0	0	0	0	9.707071	1.464022	-0.332058	-0.004027	0.000425	-0.002283	-0.330322	-1.261475	-0.648193	0.647305	0.354204	-0.626449	0.251191	103.975351	-81.475819	-53.133330	0.088929	-0.118586	0.988953	-0.768977	0.622885	0.143839	-0.633061	-0.773273	-0.035797	0	0	0
13686	0	0	0	0	0	9.707036	1.464286	-0.331918	-0.001624	0.001600	-0.002962	-0.329346	-1.266113	-0.649414	0.647315	0.354194	-0.626449	0.251180	103.969279	-81.475575	-53.129229	0.088940	-0.118583	0.988953	-0.768954	0.622911	0.143847	-0.633088	-0.773253	-0.035783	0	0	0
13687	0	0	0	0	0	9.694768	1.468490	-0.352498	-0.002966	0.001742	-0.003723	-0.322021	-1.264160	-0.649414	0.647330	0.354181	-0.626449	0.251160	103.960757	-81.474826	-53.123614	0.088960	-0.118585	0.988951	-0.768919	0.622949	0.143865	-0.633126	-0.773222	-0.035765	0	0	0
13688	0	0	0	0	0	9.725141	1.454677	-0.344091	-0.004975	0.002260	-0.003127	-0.328857	-1.264893	-0.651367	0.647348	0.354159	-0.626451	0.251139	103.950163	-81.474581	-53.116881	0.088976	-0.118578	0.988950	-0.768875	0.623001	0.143876	-0.633178	-0.773181	-0.035739	0	0	0
13689	0	0	0	0	0	9.715814	1.407508	-0.318630	-0.002018	-0.000093	-0.002879	-0.320801	-1.259521	-0.650146	0.647352	0.354158	-0.626451	0.251130	103.948687	-81.473885	-53.116202	0.088985	-0.118587	0.988948	-0.768865	0.623011	0.143888	-0.633189	-0.773172	-0.035739	0	0	0
13690	0	0	0	0	0	9.714312	1.433446	-0.341531	-0.003633	0.002119	-0.002366	-0.330566	-1.273682	-0.643066	0.647366	0.354139	-0.626453	0.251115	103.940089	-81.474043	-53.110710	0.088995	-0.118576	0.988949	-0.768830	0.623053	0.143891	-0.633230	-0.773139	-0.035716	0	0	0
13691	0	0	0	0	0	9.719095	1.461718	-0.310166	-0.000273	0.002070	0.001274	-0.327637	-1.265625	-0.640869	0.647359	0.354151	-0.626439	0.251153	103.935816	-81.475935	-53.102048	0.088993	-0.118536	0.988954	-0.768880	0.622999	0.143862	-0.633170	-0.773189	-0.035698	0	0	0
13692	0	0	0	0	0	9.682415	1.473476	-0.372229	-0.006317	0.002403	-0.003888	-0.330566	-1.264160	-0.647461	0.647381	0.354127	-0.626441	0.251125	103.923224	-81.475286	-53.094073	0.089016	-0.118533	0.988952	-0.768827	0.623060	0.143881	-0.633231	-0.773140	-0.035669	0	0	0
13693	0	0	0	0	0	9.688597	1.476480	-0.318008	-0.001079	-0.002539	-0.005510	-0.328857	-1.265137	-0.646240	0.647373	0.354151	-0.626439	0.251117	103.930340	-81.472907	-53.099685	0.089029	-0.118574	0.988946	-0.768841	0.623035	0.143916	-0.633212	-0.773154	-0.035697	0	0	0
13694	0	0	0	0	0	9.726406	1.430548	-0.320312	-0.001342	0.000142	-0.000761	-0.332520	-1.271484	-0.649902	0.647375	0.354136	-0.626447	0.251111	103.931863	-81.473685	-53.103101	0.089014	-0.118569	0.988948	-0.768821	0.623062	0.143902	-0.633238	-0.773134	-0.035697	0	0	0
13695	0	0	0	0	0	9.761279	1.435944	-0.368652	-0.003087	-0.002021	-0.004914	-0.327393	-1.262695	-0.644531	0.647365	0.354167	-0.626437	0.251118	103.936377	-81.471730	-53.104166	0.089032	-0.118598	0.988943	-0.768857	0.623011	0.143932	-0.633192	-0.773170	-0.035717	0	0	0
13696	0	0	0	0	0	9.726290	1.431325	-0.320365	-0.002300	0.001366	-0.005080	-0.329590	-1.261719	-0.652344	0.647378	0.354161	-0.626436	0.251097	103.928841	-81.470275	-53.098975	0.089058	-0.118610	0.988939	-0.768828	0.623040	0.143961	-0.633224	-0.773145	-0.035704	0	0	0
13697	0	0	0	0	0	9.695811	1.445911	-0.328409	-0.003360	0.000049	-0.003640	-0.325684	-1.260986	-0.647949	0.647392	0.354141	-0.626446	0.251064	103.926279	-81.469309	-53.101138	0.089063	-0.118626	0.988937	-0.768774	0.623102	0.143979	-0.633288	-0.773092	-0.035701	0	0	0
13698	0	0	0	0	0	9.713949	1.436023	-0.341018	-0.001351	-0.000469	-0.004236	-0.325195	-1.260498	-0.646240	0.647396	0.354138	-0.626451	0.251046	103.926867	-81.468070	-53.103613	0.089071	-0.118647	0.988933	-0.768752	0.623125	0.143999	-0.633314	-0.773071	-0.035708	0	0	0
13699	0	0	0	0	0	9.712397	1.462178	-0.364181	-0.001078	-0.002539	-0.005510	-0.325195	-1.267578	-0.652832	0.647402	0.354130	-0.626465	0.251006	103.932990	-81.465614	-53.113910	0.089075	-0.118697	0.988927	-0.768704	0.623175	0.144037	-0.633372	-0.773022	-0.035733	0	0	0
13700	0	0	0	0	0	9.707856	1.443189	-0.307881	0.005753	0.000515	-0.000513	-0.324707	-1.255859	-0.650146	0.647392	0.354138	-0.626464	0.251024	103.937423	-81.466581	-53.116157	0.089061	-0.118687	0.988929	-0.768730	0.623148	0.144018	-0.633342	-0.773046	-0.035741	0	0	0
13701	0	0	0	0	0	9.701591	1.440740	-0.362014	0.001060	0.001317	-0.001440	-0.326904	-1.266846	-0.642822	0.647401	0.354120	-0.626469	0.251011	103.933716	-81.466900	-53.115191	0.089059	-0.118681	0.988930	-0.768700	0.623185	0.144015	-0.633379	-0.773017	-0.035730	0	0	0
13702	0	0	0	0	0	9.726022	1.433162	-0.320311	0.003463	0.002492	-0.002118	-0.327881	-1.265625	-0.648438	0.647404	0.354122	-0.626462	0.251019	103.928033	-81.467247	-53.108536	0.089070	-0.118666	0.988931	-0.768710	0.623173	0.144012	-0.633365	-0.773029	-0.035714	0	0	0
13703	0	0	0	0	0	9.735257	1.480856	-0.345615	0.004684	-0.001413	-0.002548	-0.322754	-1.268311	-0.651123	0.647382	0.354164	-0.626448	0.251051	103.936510	-81.466598	-53.110356	0.089072	-0.118678	0.988930	-0.768783	0.623082	0.144018	-0.633276	-0.773100	-0.035738	0	0	0
13704	0	0	0	0	0	9.695527	1.447768	-0.328619	0.001333	-0.000753	-0.002713	-0.326660	-1.268799	-0.640625	0.647380	0.354165	-0.626452	0.251046	103.941084	-81.466167	-53.115306	0.089067	-0.118692	0.988928	-0.768779	0.623086	0.144022	-0.633282	-0.773095	-0.035752	0	0	0
13705	0	0	0	0	0	9.725913	1.433842	-0.320574	0.002675	-0.000895	-0.001952	-0.329346	-1.263184	-0.646973	0.647355	0.354219	-0.626428	0.251094	103.946396	-81.465798	-53.111440	0.089079	-0.118691	0.988927	-0.768879	0.622962	0.144025	-0.633158	-0.773196	-0.035766	0	0	0
13706	0	0	0	0	0	9.706225	1.469830	-0.331127	0.004693	-0.000802	0.000927	-0.321289	-1.257813	-0.654297	0.647341	0.354219	-0.626435	0.251111	103.956425	-81.467384	-53.119960	0.089044	-0.118682	0.988932	-0.768900	0.622944	0.143992	-0.633138	-0.773211	-0.035785	0	0	0
13707	0	0	0	0	0	9.745896	1.503227	-0.348453	0.004684	-0.001413	-0.002548	-0.329346	-1.260498	-0.657227	0.647341	0.354211	-0.626449	0.251091	103.964060	-81.466739	-53.130161	0.089030	-0.118707	0.988930	-0.768873	0.622976	0.143998	-0.633174	-0.773181	-0.035807	0	0	0
13708	0	0	0	0	0	9.686542	1.505764	-0.341757	-0.002000	0.001130	0.004070	-0.324951	-1.267578	-0.647461	0.647341	0.354177	-0.626464	0.251100	103.965998	-81.470339	-53.134377	0.088984	-0.118664	0.988939	-0.768854	0.623014	0.143937	-0.633203	-0.773157	-0.035797	0	0	0
13709	0	0	0	0	0	9.712200	1.463350	-0.364733	-0.002411	-0.001786	-0.002796	-0.330078	-1.263672	-0.645264	0.647343	0.354168	-0.626475	0.251078	103.970906	-81.469528	-53.142080	0.088976	-0.118687	0.988937	-0.768823	0.623049	0.143947	-0.633241	-0.773125	-0.035812	0	0	0
13710	0	0	0	0	0	9.736660	1.455529	-0.323301	-0.004796	-0.001739	0.004832	-0.333740	-1.265137	-0.645996	0.647339	0.354127	-0.626504	0.251076	103.982584	-81.473154	-53.157765	0.088906	-0.118661	0.988946	-0.768787	0.623110	0.143879	-0.633295	-0.773081	-0.035827	0	0	0
13711	0	0	0	0	0	9.707767	1.443664	-0.308465	-0.008822	-0.001313	0.002549	-0.325684	-1.267822	-0.647949	0.647342	0.354088	-0.626528	0.251063	103.988643	-81.475528	-53.168575	0.088859	-0.118645	0.988953	-0.768740	0.623178	0.143836	-0.633359	-0.773028	-0.035832	0	0	0
13712	0	0	0	0	0	9.731975	1.426684	-0.354520	-0.006138	-0.001597	0.004071	-0.334473	-1.269531	-0.650391	0.647341	0.354045	-0.626557	0.251055	103.998341	-81.478750	-53.183035	0.088796	-0.118623	0.988961	-0.768694	0.623247	0.143776	-0.633422	-0.772976	-0.035843	0	0	0
13713	0	0	0	0	0	9.713835	1.436562	-0.341996	0.000958	-0.001224	0.004318	-0.327881	-1.259277	-0.658447	0.647314	0.354061	-0.626554	0.251107	104.010494	-81.481999	-53.189160	0.088750	-0.118588	0.988969	-0.768767	0.623172	0.143714	-0.633341	-0.773042	-0.035860	0	0	0
13714	0	0	0	0	0	9.709112	1.407930	-0.373267	0.000958	-0.001224	0.004318	-0.333496	-1.270020	-0.649658	0.647302	0.354040	-0.626573	0.251122	104.023123	-81.485410	-53.202472	0.088687	-0.118561	0.988978	-0.768767	0.623187	0.143649	-0.633350	-0.773034	-0.035877	0	0	0
13715	0	0	0	0	0	9.719882	1.429558	-0.375657	-0.001736	-0.001551	-0.000678	-0.330322	-1.268311	-0.654785	0.647300	0.354025	-0.626588	0.251110	104.030027	-81.485905	-53.211840	0.088663	-0.118569	0.988979	-0.768742	0.623221	0.143636	-0.633383	-0.773005	-0.035892	0	0	0
13716	0	0	0	0	0	9.703189	1.414002	-0.339991	-0.001999	0.001130	0.004070	-0.331299	-1.260742	-0.651855	0.647301	0.353992	-0.626603	0.251119	104.032003	-81.489504	-53.216094	0.088617	-0.118526	0.988989	-0.768723	0.623258	0.143575	-0.633413	-0.772982	-0.035882	0	0	0
13717	0	0	0	0	0	9.722892	1.377841	-0.329489	0.003745	0.001033	0.000082	-0.328125	-1.266602	-0.641357	0.647297	0.353989	-0.626603	0.251131	104.033239	-81.490779	-53.216457	0.088603	-0.118509	0.988992	-0.768735	0.623249	0.143552	-0.633401	-0.772992	-0.035880	0	0	0
13718	0	0	0	0	0	9.710678	1.381672	-0.350096	0.002130	0.003244	0.000595	-0.332764	-1.266602	-0.649170	0.647301	0.353978	-0.626600	0.251146	104.026498	-81.492741	-53.209506	0.088597	-0.118471	0.988997	-0.768739	0.623251	0.143524	-0.633397	-0.772996	-0.035855	0	0	0
13719	0	0	0	0	0	9.750364	1.415053	-0.367241	0.002281	-0.002588	-0.001870	-0.332031	-1.270508	-0.648926	0.647277	0.354013	-0.626593	0.251173	104.039160	-81.492372	-53.216574	0.088586	-0.118487	0.988996	-0.768801	0.623174	0.143522	-0.633322	-0.773056	-0.035888	0	0	0
13720	0	0	0	0	0	9.730656	1.451196	-0.377882	-0.001069	-0.001928	-0.002035	-0.327881	-1.259033	-0.655762	0.647274	0.354006	-0.626606	0.251160	104.047362	-81.492153	-53.226585	0.088567	-0.118505	0.988996	-0.768783	0.623197	0.143521	-0.633347	-0.773034	-0.035910	0	0	0
13721	0	0	0	0	0	9.706458	1.468083	-0.332031	-0.001069	-0.001928	-0.002035	-0.328125	-1.269043	-0.656006	0.647270	0.354003	-0.626615	0.251151	104.054738	-81.491798	-53.235027	0.088554	-0.118523	0.988995	-0.768772	0.623210	0.143522	-0.633362	-0.773021	-0.035930	0	0	0
13722	0	0	0	0	0	9.736833	1.454212	-0.324020	-0.003754	-0.001644	-0.003557	-0.328125	-1.266357	-0.647461	0.647274	0.353992	-0.626628	0.251125	104.058930	-81.490772	-53.242538	0.088549	-0.118549	0.988992	-0.768735	0.623252	0.143536	-0.633408	-0.772983	-0.035945	0	0	0
13723	0	0	0	0	0	9.703044	1.414885	-0.340456	0.000264	-0.002681	-0.004749	-0.326416	-1.264160	-0.646729	0.647259	0.354029	-0.626618	0.251135	104.066951	-81.488700	-53.246164	0.088563	-0.118583	0.988987	-0.768781	0.623189	0.143566	-0.633350	-0.773029	-0.035973	0	0	0
13724	0	0	0	0	0	9.702995	1.415180	-0.340611	0.000666	-0.000376	-0.001357	-0.330322	-1.262939	-0.646484	0.647257	0.354024	-0.626624	0.251132	104.071013	-81.489073	-53.250982	0.088549	-0.118585	0.988988	-0.768774	0.623199	0.143557	-0.633360	-0.773020	-0.035982	0	0	0
13725	0	0	0	0	0	9.724431	1.459161	-0.345148	0.011215	0.001877	-0.006702	-0.327148	-1.271484	-0.654053	0.647247	0.354075	-0.626596	0.251156	104.067169	-81.486601	-53.240316	0.088596	-0.118603	0.988981	-0.768844	0.623103	0.143601	-0.633269	-0.773095	-0.035983	0	0	0
13726	0	0	0	0	0	9.713597	1.437904	-0.343102	0.005624	-0.003859	-0.005179	-0.330811	-1.270752	-0.649658	0.647230	0.354102	-0.626601	0.251151	104.083438	-81.484365	-53.254606	0.088590	-0.118656	0.988975	-0.768865	0.623071	0.143628	-0.633244	-0.773113	-0.036033	0	0	0
13727	0	0	0	0	0	9.690562	1.420357	-0.361741	0.007874	0.003149	-0.003393	-0.330322	-1.265869	-0.649902	0.647208	0.354176	-0.626551	0.251224	104.075572	-81.483853	-53.233370	0.088639	-0.118630	0.988974	-0.769008	0.622891	0.143642	-0.633063	-0.773262	-0.036015	0	0	0
13728	0	0	0	0	0	9.707535	1.444955	-0.309724	0.003069	0.000799	-0.002035	-0.324707	-1.266357	-0.643066	0.647206	0.354179	-0.626550	0.251229	104.076013	-81.484012	-53.233136	0.088638	-0.118628	0.988975	-0.769016	0.622882	0.143639	-0.633054	-0.773269	-0.036016	0	0	0
13729	0	0	0	0	0	9.707497	1.445207	-0.309714	0.003735	0.000422	-0.003392	-0.326904	-1.266846	-0.647949	0.647194	0.354216	-0.626531	0.251257	104.076155	-81.483123	-53.227414	0.088659	-0.118631	0.988972	-0.769078	0.622802	0.143654	-0.632975	-0.773333	-0.036020	0	0	0
13730	0	0	0	0	0	9.707449	1.445538	-0.309671	0.000384	0.001082	-0.003557	-0.331787	-1.269775	-0.645996	0.647200	0.354215	-0.626529	0.251248	104.072592	-81.482476	-53.224686	0.088671	-0.118636	0.988971	-0.769068	0.622812	0.143667	-0.632987	-0.773325	-0.036014	0	0	0
13731	0	0	0	0	0	9.725596	1.435649	-0.322097	-0.000564	0.002916	-0.004402	-0.331055	-1.270996	-0.654541	0.647198	0.354252	-0.626497	0.251278	104.060398	-81.481415	-53.206417	0.088720	-0.118622	0.988968	-0.769130	0.622729	0.143692	-0.632904	-0.773393	-0.035987	0	0	0
13732	0	0	0	0	0	9.731539	1.429437	-0.355403	0.003351	-0.000659	0.000165	-0.333984	-1.267822	-0.646973	0.647188	0.354251	-0.626504	0.251289	104.068457	-81.482594	-53.213722	0.088693	-0.118617	0.988971	-0.769141	0.622721	0.143667	-0.632894	-0.773401	-0.036003	0	0	0
13733	0	0	0	0	0	9.719271	1.433532	-0.376303	0.006411	-0.000472	-0.005344	-0.332031	-1.265381	-0.652100	0.647165	0.354317	-0.626474	0.251332	104.072282	-81.480644	-53.207614	0.088726	-0.118635	0.988966	-0.769247	0.622583	0.143698	-0.632761	-0.773509	-0.036020	0	0	0
13734	0	0	0	0	0	9.701023	1.444151	-0.363656	0.003462	0.002492	-0.002119	-0.336182	-1.264893	-0.652832	0.647167	0.354320	-0.626466	0.251340	104.066589	-81.480993	-53.200948	0.088736	-0.118620	0.988967	-0.769257	0.622571	0.143695	-0.632747	-0.773521	-0.036005	0	0	0
13735	0	0	0	0	0	9.731383	1.430446	-0.355622	-0.000805	-0.004609	-0.006782	-0.327637	-1.268066	-0.644531	0.647162	0.354330	-0.626479	0.251307	104.080534	-81.477778	-53.216797	0.088736	-0.118689	0.988958	-0.769234	0.622589	0.143740	-0.632775	-0.773496	-0.036053	0	0	0
13736	0	0	0	0	0	9.725040	1.428387	-0.410042	-0.000009	-0.000611	-0.003474	-0.327637	-1.275391	-0.638916	0.647162	0.354330	-0.626484	0.251295	104.083103	-81.476941	-53.220497	0.088737	-0.118706	0.988956	-0.769221	0.622603	0.143753	-0.632791	-0.773482	-0.036063	0	0	0
13737	0	0	0	0	0	9.719294	1.444188	-0.289264	-0.003480	-0.003715	-0.004830	-0.329346	-1.267334	-0.646729	0.647131	0.354406	-0.626455	0.251341	104.093488	-81.474605	-53.219831	0.088763	-0.118737	0.988950	-0.769340	0.622449	0.143785	-0.632644	-0.773601	-0.036099	0	0	0
13738	0	0	0	0	0	9.725171	1.438350	-0.322875	-0.000018	-0.001222	-0.006948	-0.328857	-1.269775	-0.643311	0.647134	0.354416	-0.626456	0.251317	104.095081	-81.471752	-53.222549	0.088787	-0.118781	0.988943	-0.769323	0.622458	0.143832	-0.632660	-0.773587	-0.036115	0	0	0
13739	0	0	0	0	0	9.706930	1.448868	-0.310402	0.006036	-0.000941	0.001687	-0.333984	-1.269043	-0.655762	0.647099	0.354465	-0.626436	0.251385	104.106758	-81.473524	-53.223725	0.088766	-0.118758	0.988947	-0.769442	0.622320	0.143795	-0.632518	-0.773702	-0.036137	0	0	0
13740	0	0	0	0	0	9.716129	1.496490	-0.336119	0.005232	-0.005550	-0.005095	-0.332520	-1.268066	-0.652100	0.647077	0.354493	-0.626447	0.251375	104.129116	-81.471096	-53.244397	0.088748	-0.118824	0.988941	-0.769461	0.622291	0.143822	-0.632498	-0.773715	-0.036203	0	0	0
13741	0	0	0	0	0	9.723522	1.464816	-0.346805	-0.000009	-0.000611	-0.003474	-0.330078	-1.265625	-0.649658	0.647066	0.354524	-0.626434	0.251396	104.131338	-81.470204	-53.241940	0.088762	-0.118832	0.988939	-0.769511	0.622226	0.143835	-0.632435	-0.773766	-0.036213	0	0	0
13742	0	0	0	0	0	9.683827	1.431647	-0.329760	0.005360	-0.001176	-0.000430	-0.335205	-1.269287	-0.637207	0.647051	0.354532	-0.626438	0.251409	104.141907	-81.470979	-53.250618	0.088736	-0.118835	0.988941	-0.769534	0.622201	0.143816	-0.632410	-0.773785	-0.036236	0	0	0
13743	0	0	0	0	0	9.700495	1.447144	-0.365844	0.007250	-0.005456	-0.002216	-0.328857	-1.262207	-0.648682	0.647011	0.354585	-0.626436	0.251444	104.168268	-81.470081	-53.269016	0.088708	-0.118876	0.988939	-0.769624	0.622090	0.143814	-0.632305	-0.773868	-0.036306	0	0	0
13744	0	0	0	0	0	9.724935	1.439507	-0.324805	0.006310	-0.003010	0.000414	-0.330566	-1.270752	-0.639648	0.646988	0.354596	-0.626447	0.251460	104.186968	-81.471066	-53.285365	0.088663	-0.118888	0.988941	-0.769654	0.622059	0.143786	-0.632274	-0.773891	-0.036349	0	0	0
13745	0	0	0	0	0	9.720138	1.411398	-0.356270	0.012447	-0.001410	-0.003657	-0.337646	-1.260254	-0.652832	0.646956	0.354660	-0.626425	0.251507	104.199202	-81.469838	-53.287584	0.088672	-0.118908	0.988938	-0.769763	0.621921	0.143798	-0.632141	-0.773999	-0.036384	0	0	0
13746	0	0	0	0	0	9.724871	1.439777	-0.325521	0.012063	-0.002491	-0.000100	-0.324463	-1.262207	-0.642334	0.646925	0.354690	-0.626427	0.251540	104.218800	-81.470610	-53.301507	0.088635	-0.118919	0.988940	-0.769830	0.621845	0.143773	-0.632065	-0.774059	-0.036430	0	0	0
13747	0	0	0	0	0	9.720089	1.411575	-0.356909	0.013516	0.000519	-0.001623	-0.331543	-1.264160	-0.647949	0.646918	0.354691	-0.626433	0.251542	104.226419	-81.470899	-53.308856	0.088616	-0.118926	0.988941	-0.769834	0.621842	0.143763	-0.632062	-0.774060	-0.036448	0	0	0
13748	0	0	0	0	0	9.730769	1.433628	-0.359567	0.010319	-0.004655	-0.004250	-0.321777	-1.264160	-0.644287	0.646889	0.354731	-0.626436	0.251553	104.249132	-81.469060	-53.326941	0.088598	-0.118980	0.988936	-0.769886	0.621774	0.143780	-0.632002	-0.774106	-0.036513	0	0	0
13749	0	0	0	0	0	9.710994	1.469911	-0.370417	0.009096	-0.000751	-0.003822	-0.332520	-1.269531	-0.648682	0.646874	0.354764	-0.626427	0.251568	104.255935	-81.467755	-53.329316	0.088606	-0.119002	0.988933	-0.769933	0.621712	0.143797	-0.631943	-0.774153	-0.036536	0	0	0
13750	0	0	0	0	0	9.695434	1.420204	-0.399547	0.010712	-0.002961	-0.004334	-0.333496	-1.263916	-0.648438	0.646849	0.354804	-0.626424	0.251583	104.272513	-81.466107	-53.340970	0.088599	-0.119042	0.988928	-0.769987	0.621641	0.143814	-0.631878	-0.774204	-0.036584	0	0	0
13751	0	0	0	0	0	9.730579	1.434654	-0.360615	0.004685	-0.001410	-0.002547	-0.327881	-1.269531	-0.647949	0.646833	0.354828	-0.626420	0.251599	104.281535	-81.465614	-53.346332	0.088593	-0.119058	0.988927	-0.770028	0.621590	0.143817	-0.631830	-0.774242	-0.036609	0	0	0
13752	0	0	0	0	0	9.742794	1.430940	-0.340014	0.009106	-0.000138	-0.000349	-0.328613	-1.267334	-0.646484	0.646816	0.354846	-0.626417	0.251626	104.290496	-81.466578	-53.351214	0.088573	-0.119052	0.988929	-0.770075	0.621536	0.143795	-0.631775	-0.774286	-0.036627	0	0	0
13753	0	0	0	0	0	9.718293	1.438686	-0.381851	0.011389	-0.002724	-0.002216	-0.326660	-1.270996	-0.639893	0.646775	0.354917	-0.626395	0.251685	104.307559	-81.465893	-53.356643	0.088569	-0.119070	0.988928	-0.770203	0.621377	0.143795	-0.631619	-0.774411	-0.036673	0	0	0
13754	0	0	0	0	0	9.701574	1.423467	-0.346523	0.013124	-0.001171	-0.001539	-0.330811	-1.268555	-0.648926	0.646749	0.354953	-0.626388	0.251719	104.321523	-81.466049	-53.364254	0.088551	-0.119079	0.988928	-0.770275	0.621291	0.143784	-0.631534	-0.774479	-0.036708	0	0	0
13755	0	0	0	0	0	9.706292	1.451985	-0.315730	0.011106	-0.001267	-0.004417	-0.323975	-1.274170	-0.645752	0.646711	0.355040	-0.626351	0.251784	104.331271	-81.464347	-53.360237	0.088577	-0.119097	0.988924	-0.770423	0.621102	0.143806	-0.631349	-0.774628	-0.036739	0	0	0
13756	0	0	0	0	0	9.722936	1.467574	-0.351546	0.008156	0.001697	-0.001194	-0.330811	-1.266846	-0.648438	0.646702	0.355056	-0.626342	0.251809	104.332107	-81.465101	-53.357453	0.088575	-0.119082	0.988926	-0.770464	0.621055	0.143793	-0.631300	-0.774668	-0.036738	0	0	0
13757	0	0	0	0	0	9.733624	1.489627	-0.353822	0.002393	0.000563	-0.004153	-0.331055	-1.265869	-0.654053	0.646683	0.355118	-0.626307	0.251858	104.329766	-81.463757	-53.345114	0.088615	-0.119081	0.988922	-0.770570	0.620918	0.143817	-0.631165	-0.774778	-0.036738	0	0	0
13758	0	0	0	0	0	9.719620	1.414119	-0.359592	0.005361	-0.001173	-0.000429	-0.328613	-1.267578	-0.649170	0.646669	0.355126	-0.626312	0.251871	104.340337	-81.464528	-53.353792	0.088589	-0.119084	0.988924	-0.770593	0.620893	0.143797	-0.631140	-0.774797	-0.036761	0	0	0
13759	0	0	0	0	0	9.742572	1.432183	-0.341141	0.004804	0.002353	-0.001360	-0.333496	-1.274658	-0.649658	0.646664	0.355141	-0.626297	0.251897	104.335574	-81.465127	-53.345339	0.088600	-0.119063	0.988926	-0.770633	0.620845	0.143790	-0.631090	-0.774839	-0.036747	0	0	0
13760	0	0	0	0	0	9.704640	1.478490	-0.338928	0.004411	0.000660	-0.001275	-0.336182	-1.270508	-0.648438	0.646658	0.355146	-0.626296	0.251908	104.338021	-81.465688	-53.346353	0.088592	-0.119057	0.988927	-0.770650	0.620827	0.143779	-0.631070	-0.774855	-0.036750	0	0	0
13761	0	0	0	0	0	9.699857	1.450389	-0.369868	0.005864	0.003670	-0.002800	-0.329834	-1.265137	-0.647949	0.646638	0.355217	-0.626246	0.251985	104.328847	-81.465771	-53.323930	0.088638	-0.119021	0.988927	-0.770792	0.620649	0.143784	-0.630890	-0.775002	-0.036727	0	0	0
13762	0	0	0	0	0	9.713601	1.421066	-0.325840	0.003745	0.001037	0.000081	-0.326416	-1.269531	-0.655518	0.646632	0.355215	-0.626247	0.251999	104.330799	-81.467139	-53.324830	0.088622	-0.119003	0.988931	-0.770806	0.620638	0.143760	-0.630876	-0.775014	-0.036726	0	0	0
13763	0	0	0	0	0	9.699849	1.450510	-0.369624	0.006147	0.002214	-0.000598	-0.325928	-1.270264	-0.644043	0.646621	0.355241	-0.626227	0.252039	104.327614	-81.468072	-53.315711	0.088631	-0.118976	0.988933	-0.770871	0.620560	0.143746	-0.630795	-0.775080	-0.036714	0	0	0
13764	0	0	0	0	0	9.722806	1.468542	-0.351114	0.005754	0.000521	-0.000514	-0.335205	-1.267822	-0.651611	0.646612	0.355248	-0.626226	0.252056	104.332066	-81.469036	-53.317974	0.088617	-0.118966	0.988936	-0.770897	0.620532	0.143727	-0.630765	-0.775104	-0.036721	0	0	0
13765	0	0	0	0	0	9.728767	1.462127	-0.384340	-0.000557	0.003526	-0.000931	-0.330566	-1.263184	-0.646729	0.646612	0.355265	-0.626204	0.252090	104.320734	-81.470028	-53.302174	0.088639	-0.118928	0.988938	-0.770945	0.620475	0.143718	-0.630704	-0.775156	-0.036689	0	0	0
13766	0	0	0	0	0	9.741012	1.458295	-0.363442	-0.001060	-0.001317	0.001441	-0.334473	-1.267822	-0.635986	0.646606	0.355246	-0.626220	0.252089	104.329931	-81.471818	-53.313183	0.088598	-0.118920	0.988943	-0.770930	0.620502	0.143682	-0.630728	-0.775135	-0.036704	0	0	0
13767	0	0	0	0	0	9.712088	1.446724	-0.348696	0.001617	-0.002210	-0.000510	-0.327148	-1.266846	-0.653076	0.646598	0.355236	-0.626238	0.252080	104.342552	-81.472327	-53.327573	0.088563	-0.118936	0.988944	-0.770913	0.620526	0.143665	-0.630753	-0.775114	-0.036733	0	0	0
13768	0	0	0	0	0	9.730304	1.436316	-0.361431	0.002018	0.000098	0.002878	-0.334961	-1.265869	-0.646729	0.646589	0.355221	-0.626249	0.252096	104.349646	-81.475115	-53.334672	0.088519	-0.118908	0.988952	-0.770919	0.620531	0.143614	-0.630752	-0.775114	-0.036739	0	0	0
13769	0	0	0	0	0	9.701405	1.424609	-0.346535	0.001343	-0.000140	0.000761	-0.329834	-1.269775	-0.650879	0.646583	0.355214	-0.626255	0.252106	104.354477	-81.476568	-53.339281	0.088495	-0.118895	0.988955	-0.770924	0.620531	0.143587	-0.630749	-0.775116	-0.036745	0	0	0
13770	0	0	0	0	0	9.718105	1.439852	-0.382246	0.005087	0.000898	0.000843	-0.333984	-1.264404	-0.647705	0.646575	0.355215	-0.626256	0.252126	104.358443	-81.478339	-53.341437	0.088472	-0.118874	0.988960	-0.770947	0.620510	0.143555	-0.630724	-0.775136	-0.036748	0	0	0
13771	0	0	0	0	0	9.707387	1.417973	-0.380056	0.002959	-0.002349	0.000251	-0.330322	-1.265869	-0.642090	0.646557	0.355224	-0.626263	0.252141	104.372114	-81.479209	-53.352987	0.088439	-0.118880	0.988962	-0.770974	0.620482	0.143531	-0.630696	-0.775158	-0.036778	0	0	0
13772	0	0	0	0	0	9.707382	1.417998	-0.380095	-0.000950	0.001833	-0.000846	-0.329590	-1.265625	-0.652588	0.646564	0.355208	-0.626265	0.252139	104.367556	-81.480176	-53.350024	0.088435	-0.118862	0.988965	-0.770957	0.620506	0.143518	-0.630717	-0.775142	-0.036763	0	0	0
13773	0	0	0	0	0	9.714864	1.385903	-0.390303	0.001343	-0.000139	0.000761	-0.328369	-1.264893	-0.647949	0.646559	0.355199	-0.626273	0.252144	104.372366	-81.481587	-53.355286	0.088410	-0.118850	0.988968	-0.770955	0.620514	0.143491	-0.630723	-0.775136	-0.036769	0	0	0
13774	0	0	0	0	0	9.699900	1.450186	-0.369537	-0.003242	0.003805	-0.002453	-0.329346	-1.275146	-0.648682	0.646578	0.355179	-0.626269	0.252133	104.357660	-81.481942	-53.343388	0.088431	-0.118827	0.988969	-0.770923	0.620554	0.143495	-0.630760	-0.775108	-0.036730	0	0	0
13775	0	0	0	0	0	9.742548	1.432540	-0.340341	0.001726	0.000940	-0.002797	-0.329102	-1.260742	-0.642578	0.646565	0.355223	-0.626242	0.252174	104.354921	-81.481443	-53.333017	0.088458	-0.118818	0.988968	-0.771004	0.620450	0.143505	-0.630657	-0.775193	-0.036725	0	0	0
13776	0	0	0	0	0	9.702879	1.399401	-0.322908	0.005197	0.004047	-0.001444	-0.337158	-1.268311	-0.649414	0.646568	0.355226	-0.626229	0.252193	104.345107	-81.482392	-53.321178	0.088472	-0.118786	0.988970	-0.771026	0.620426	0.143495	-0.630628	-0.775217	-0.036697	0	0	0
13777	0	0	0	0	0	9.721056	1.389366	-0.335237	0.006531	0.003294	-0.004156	-0.325684	-1.271240	-0.643799	0.646578	0.355226	-0.626221	0.252187	104.336345	-81.481683	-53.312894	0.088497	-0.118783	0.988969	-0.771018	0.620432	0.143513	-0.630634	-0.775213	-0.036678	0	0	0
13778	0	0	0	0	0	9.731722	1.411581	-0.337446	0.008148	0.001084	-0.004666	-0.332275	-1.273926	-0.649414	0.646571	0.355254	-0.626208	0.252200	104.336151	-81.480422	-53.309072	0.088518	-0.118795	0.988965	-0.771055	0.620380	0.143534	-0.630586	-0.775252	-0.036683	0	0	0
13779	0	0	0	0	0	9.711943	1.447870	-0.347975	0.009491	0.000945	-0.003905	-0.323975	-1.262939	-0.648682	0.646535	0.355349	-0.626156	0.252284	104.336935	-81.479286	-53.293599	0.088562	-0.118787	0.988962	-0.771230	0.620159	0.143552	-0.630366	-0.775431	-0.036690	0	0	0
13780	0	0	0	0	0	9.719372	1.416201	-0.358105	0.007591	0.004611	-0.005597	-0.328857	-1.269775	-0.652588	0.646542	0.355373	-0.626131	0.252299	104.322477	-81.478009	-53.275676	0.088612	-0.118777	0.988959	-0.771263	0.620111	0.143583	-0.630319	-0.775471	-0.036659	0	0	0
13781	0	0	0	0	0	9.688868	1.430771	-0.366069	0.004796	0.001740	-0.004833	-0.333008	-1.274658	-0.643799	0.646542	0.355398	-0.626112	0.252308	104.315941	-81.476468	-53.266006	0.088648	-0.118783	0.988955	-0.771293	0.620066	0.143613	-0.630276	-0.775505	-0.036649	0	0	0
13782	0	0	0	0	0	9.707013	1.420904	-0.378677	0.011500	0.000430	-0.004499	-0.337891	-1.267334	-0.652344	0.646527	0.355436	-0.626097	0.252330	104.320253	-81.475207	-53.264798	0.088663	-0.118799	0.988952	-0.771352	0.619989	0.143631	-0.630202	-0.775565	-0.036665	0	0	0
13783	0	0	0	0	0	9.729903	1.439318	-0.360271	0.002394	0.000563	-0.004153	-0.325439	-1.270996	-0.645752	0.646513	0.355481	-0.626073	0.252364	104.319481	-81.474131	-53.256965	0.088691	-0.118801	0.988949	-0.771427	0.619892	0.143650	-0.630107	-0.775642	-0.036668	0	0	0
13784	0	0	0	0	0	9.711611	1.450171	-0.347686	0.002385	-0.000052	-0.007626	-0.325439	-1.263916	-0.645020	0.646516	0.355500	-0.626065	0.252347	104.317402	-81.471067	-53.254575	0.088727	-0.118840	0.988941	-0.771425	0.619882	0.143702	-0.630104	-0.775644	-0.036676	0	0	0
13785	0	0	0	0	0	9.694828	1.435495	-0.311955	-0.000291	0.000841	-0.005676	-0.326660	-1.264648	-0.647949	0.646519	0.355523	-0.626049	0.252346	104.310772	-81.468884	-53.245812	0.088768	-0.118857	0.988935	-0.771444	0.619849	0.143743	-0.630075	-0.775668	-0.036668	0	0	0
13786	0	0	0	0	0	9.712944	1.425851	-0.324527	0.002385	-0.000052	-0.007626	-0.334229	-1.269287	-0.644287	0.646523	0.355543	-0.626041	0.252329	104.308696	-81.465819	-53.243424	0.088805	-0.118895	0.988928	-0.771442	0.619839	0.143796	-0.630072	-0.775670	-0.036676	0	0	0
13787	0	0	0	0	0	9.712832	1.426627	-0.324470	0.001435	0.001781	-0.008472	-0.333496	-1.262939	-0.643799	0.646534	0.355564	-0.626024	0.252313	104.297999	-81.462400	-53.232149	0.088863	-0.118925	0.988919	-0.771441	0.619825	0.143860	-0.630065	-0.775676	-0.036664	0	0	0
13788	0	0	0	0	0	9.712730	1.427337	-0.324390	0.001718	0.000325	-0.006270	-0.326172	-1.269287	-0.643311	0.646538	0.355576	-0.626019	0.252299	104.295430	-81.460141	-53.229650	0.088892	-0.118953	0.988913	-0.771437	0.619821	0.143899	-0.630067	-0.775675	-0.036667	0	0	0
13789	0	0	0	0	0	9.721811	1.475443	-0.349714	-0.000575	0.002297	-0.007878	-0.329590	-1.270508	-0.647705	0.646557	0.355581	-0.626008	0.252271	104.282391	-81.457117	-53.218582	0.088946	-0.118977	0.988905	-0.771408	0.619843	0.143958	-0.630093	-0.775654	-0.036647	0	0	0
13790	0	0	0	0	0	9.733959	1.472296	-0.328650	-0.001909	0.003050	-0.005166	-0.332031	-1.268066	-0.640625	0.646574	0.355574	-0.626000	0.252255	104.268718	-81.455855	-53.206956	0.088983	-0.118977	0.988902	-0.771382	0.619869	0.143988	-0.630121	-0.775633	-0.036618	0	0	0
13791	0	0	0	0	0	9.697144	1.484429	-0.390797	-0.002984	0.000504	-0.010671	-0.328857	-1.270020	-0.641846	0.646583	0.355611	-0.625977	0.252237	104.258435	-81.451025	-53.194734	0.089059	-0.119024	0.988889	-0.771394	0.619834	0.144075	-0.630095	-0.775654	-0.036613	0	0	0
13792	0	0	0	0	0	9.716785	1.449297	-0.380110	-0.004311	0.001872	-0.004487	-0.327881	-1.271240	-0.647949	0.646601	0.355597	-0.625977	0.252213	104.248387	-81.449974	-53.188166	0.089083	-0.119029	0.988886	-0.771353	0.619879	0.144099	-0.630142	-0.775617	-0.036592	0	0	0
13793	0	0	0	0	0	9.712261	1.430754	-0.323397	0.000768	0.002159	-0.007116	-0.332764	-1.270752	-0.645752	0.646597	0.355650	-0.625940	0.252238	104.236917	-81.447257	-53.169524	0.089150	-0.119037	0.988879	-0.771424	0.619778	0.144152	-0.630045	-0.775697	-0.036575	0	0	0
13794	0	0	0	0	0	9.730379	1.421194	-0.335831	0.002778	0.001644	-0.007710	-0.331543	-1.266602	-0.649170	0.646606	0.355668	-0.625926	0.252225	104.228759	-81.444384	-53.160758	0.089198	-0.119063	0.988872	-0.771425	0.619765	0.144205	-0.630038	-0.775703	-0.036567	0	0	0
13795	0	0	0	0	0	9.695103	1.407700	-0.374995	0.004788	0.001129	-0.008305	-0.333252	-1.260498	-0.646484	0.646604	0.355712	-0.625901	0.252231	104.222930	-81.441022	-53.150341	0.089254	-0.119093	0.988863	-0.771468	0.619697	0.144265	-0.629976	-0.775753	-0.036566	0	0	0
13796	0	0	0	0	0	9.717962	1.426258	-0.356458	0.005471	0.001982	-0.002715	-0.331055	-1.270752	-0.645508	0.646602	0.355723	-0.625892	0.252244	104.219751	-81.440971	-53.145049	0.089266	-0.119086	0.988863	-0.771491	0.619668	0.144268	-0.629947	-0.775777	-0.036558	0	0	0
13797	0	0	0	0	0	9.728610	1.448430	-0.358679	0.004796	0.001744	-0.004832	-0.331543	-1.263184	-0.640137	0.646610	0.355723	-0.625889	0.252229	104.215113	-81.439663	-53.141629	0.089287	-0.119099	0.988860	-0.771475	0.619682	0.144293	-0.629964	-0.775764	-0.036552	0	0	0
13798	0	0	0	0	0	9.710278	1.459435	-0.346128	-0.000023	-0.001843	-0.010418	-0.332520	-1.270508	-0.639648	0.646616	0.355746	-0.625885	0.252193	104.215697	-81.434794	-53.143327	0.089333	-0.119169	0.988847	-0.771455	0.619688	0.144374	-0.629981	-0.775749	-0.036574	0	0	0
13799	0	0	0	0	0	9.717689	1.428140	-0.356372	0.005855	0.003062	-0.006273	-0.334717	-1.265625	-0.645508	0.646621	0.355766	-0.625867	0.252194	104.205985	-81.432846	-53.131594	0.089378	-0.119177	0.988842	-0.771473	0.619657	0.144413	-0.629954	-0.775772	-0.036558	0	0	0
13800	0	0	0	0	0	9.732984	1.478977	-0.327529	0.004789	0.001130	-0.008304	-0.329834	-1.264893	-0.650879	0.646625	0.355794	-0.625851	0.252184	104.200345	-81.429570	-53.124209	0.089427	-0.119211	0.988833	-0.771485	0.619628	0.144471	-0.629931	-0.775790	-0.036558	0	0	0
13801	0	0	0	0	0	9.684193	1.504015	-0.323077	0.004121	0.001507	-0.006949	-0.332031	-1.271240	-0.649658	0.646638	0.355794	-0.625849	0.252156	104.194061	-81.427070	-53.120401	0.089461	-0.119239	0.988827	-0.771454	0.619656	0.144517	-0.629965	-0.775763	-0.036553	0	0	0
13802	0	0	0	0	0	9.709857	1.462292	-0.345899	-0.002025	-0.000714	-0.006351	-0.331055	-1.274658	-0.645020	0.646646	0.355796	-0.625851	0.252128	104.193141	-81.424619	-53.121738	0.089484	-0.119275	0.988821	-0.771425	0.619682	0.144559	-0.629996	-0.775737	-0.036561	0	0	0
13803	0	0	0	0	0	9.724850	1.398712	-0.366245	0.006247	0.004757	-0.006358	-0.330322	-1.267578	-0.642822	0.646636	0.355870	-0.625795	0.252188	104.176469	-81.422788	-53.092949	0.089563	-0.119256	0.988816	-0.771551	0.619516	0.144600	-0.629832	-0.775872	-0.036526	0	0	0
13804	0	0	0	0	0	9.694279	1.413524	-0.374380	0.007076	-0.001453	-0.010168	-0.326660	-1.266602	-0.642822	0.646630	0.355914	-0.625782	0.252175	104.179937	-81.418113	-53.093449	0.089610	-0.119321	0.988804	-0.771576	0.619467	0.144676	-0.629794	-0.775902	-0.036555	0	0	0
13805	0	0	0	0	0	9.704812	1.436344	-0.376836	0.009869	0.001422	-0.010932	-0.330078	-1.267822	-0.638916	0.646629	0.355969	-0.625752	0.252175	104.173263	-81.413236	-53.081591	0.089685	-0.119370	0.988791	-0.771624	0.619387	0.144762	-0.629725	-0.775958	-0.036559	0	0	0
13806	0	0	0	0	0	9.721605	1.461785	-0.325007	0.006132	0.000994	-0.007542	-0.323975	-1.265625	-0.640137	0.646629	0.355999	-0.625736	0.252172	104.169631	-81.410363	-53.075458	0.089728	-0.119400	0.988783	-0.771646	0.619348	0.144812	-0.629692	-0.775984	-0.036562	0	0	0
13807	0	0	0	0	0	9.678790	1.480329	-0.354002	0.001045	0.000089	-0.008386	-0.335693	-1.273193	-0.644287	0.646636	0.356019	-0.625726	0.252149	104.165199	-81.406671	-53.071150	0.089775	-0.119444	0.988774	-0.771638	0.619343	0.144877	-0.629695	-0.775982	-0.036566	0	0	0
13808	0	0	0	0	0	9.733616	1.459527	-0.304177	0.004121	0.001508	-0.006948	-0.331055	-1.266846	-0.645508	0.646640	0.356040	-0.625712	0.252142	104.159084	-81.404200	-53.063670	0.089816	-0.119466	0.988767	-0.771648	0.619320	0.144922	-0.629677	-0.775997	-0.036561	0	0	0
13809	0	0	0	0	0	9.731959	1.485778	-0.327220	0.004121	0.001508	-0.006948	-0.330078	-1.272217	-0.647217	0.646637	0.356080	-0.625688	0.252155	104.153379	-81.401701	-53.053132	0.089864	-0.119484	0.988761	-0.771695	0.619250	0.144968	-0.629612	-0.776050	-0.036557	0	0	0
13810	0	0	0	0	0	9.715195	1.471091	-0.291381	0.002111	0.002022	-0.006354	-0.330322	-1.268066	-0.640869	0.646646	0.356091	-0.625676	0.252145	104.144782	-81.399632	-53.044307	0.089904	-0.119499	0.988755	-0.771693	0.619243	0.145008	-0.629609	-0.776053	-0.036544	0	0	0
13811	0	0	0	0	0	9.717963	1.516469	-0.370857	0.001436	0.001784	-0.008471	-0.324219	-1.263672	-0.650879	0.646648	0.356134	-0.625648	0.252150	104.134515	-81.396214	-53.029642	0.089970	-0.119523	0.988746	-0.771734	0.619178	0.145072	-0.629550	-0.776101	-0.036532	0	0	0
13812	0	0	0	0	0	9.696550	1.473275	-0.366125	0.000668	-0.000376	-0.001355	-0.331787	-1.267822	-0.648193	0.646646	0.356128	-0.625654	0.252148	104.138528	-81.396586	-53.034406	0.089956	-0.119525	0.988747	-0.771727	0.619189	0.145063	-0.629560	-0.776092	-0.036541	0	0	0
13813	0	0	0	0	0	9.722279	1.431364	-0.389015	-0.001356	-0.001091	-0.007706	-0.331787	-1.264404	-0.644775	0.646661	0.356121	-0.625663	0.252099	104.137024	-81.393176	-53.037837	0.089985	-0.119578	0.988739	-0.771668	0.619248	0.145121	-0.629628	-0.776036	-0.036552	0	0	0
13814	0	0	0	0	0	9.745071	1.450145	-0.370803	0.002949	-0.003573	-0.006691	-0.324707	-1.265625	-0.643799	0.646651	0.356143	-0.625667	0.252081	104.149141	-81.390137	-53.049476	0.089992	-0.119638	0.988731	-0.771671	0.619235	0.145164	-0.629624	-0.776038	-0.036595	0	0	0
13815	0	0	0	0	0	9.688685	1.507202	-0.356345	-0.000965	0.000603	-0.007792	-0.325928	-1.260986	-0.645264	0.646672	0.356132	-0.625672	0.252032	104.142148	-81.386928	-53.047794	0.090029	-0.119680	0.988722	-0.771607	0.619300	0.145222	-0.629696	-0.775979	-0.036591	0	0	0
13816	0	0	0	0	0	9.681010	1.539969	-0.346067	-0.007778	-0.001246	-0.005839	-0.333496	-1.274414	-0.643799	0.646688	0.356114	-0.625684	0.251987	104.140363	-81.384688	-53.051589	0.090044	-0.119716	0.988716	-0.771543	0.619371	0.145261	-0.629772	-0.775917	-0.036596	0	0	0
13817	0	0	0	0	0	9.690076	1.482804	-0.333146	-0.014201	-0.001401	-0.003972	-0.335205	-1.262207	-0.647705	0.646711	0.356073	-0.625706	0.251929	104.136946	-81.383342	-53.057001	0.090047	-0.119743	0.988713	-0.771445	0.619488	0.145285	-0.629892	-0.775820	-0.036593	0	0	0
13818	0	0	0	0	0	9.728068	1.437109	-0.335057	-0.012467	0.000157	-0.003296	-0.331787	-1.268555	-0.644531	0.646736	0.356030	-0.625724	0.251880	104.129682	-81.382711	-53.057972	0.090051	-0.119754	0.988711	-0.771354	0.619598	0.145301	-0.630003	-0.775730	-0.036577	0	0	0
13819	0	0	0	0	0	9.715754	1.441378	-0.355816	-0.009511	-0.002801	-0.006515	-0.327148	-1.263916	-0.649902	0.646760	0.355987	-0.625756	0.251800	104.132482	-81.379920	-53.071742	0.090051	-0.119814	0.988704	-0.771231	0.619740	0.145345	-0.630153	-0.775608	-0.036596	0	0	0
13820	0	0	0	0	0	9.714114	1.467399	-0.378914	-0.006038	0.000926	-0.001690	-0.336182	-1.259766	-0.644531	0.646774	0.355959	-0.625767	0.251778	104.127565	-81.380289	-53.071361	0.090048	-0.119808	0.988705	-0.771182	0.619802	0.145342	-0.630214	-0.775559	-0.036582	0	0	0
13821	0	0	0	0	0	9.710973	1.413895	-0.386718	-0.005377	-0.000062	-0.006518	-0.327881	-1.265625	-0.637695	0.646810	0.355900	-0.625799	0.251689	104.122256	-81.377854	-53.079274	0.090057	-0.119854	0.988699	-0.771034	0.619975	0.145387	-0.630394	-0.775413	-0.036579	0	0	0
13822	0	0	0	0	0	9.709290	1.440226	-0.409731	-0.008062	0.000213	-0.008041	-0.327637	-1.266357	-0.643555	0.646834	0.355887	-0.625803	0.251638	104.112939	-81.374594	-53.075615	0.090098	-0.119893	0.988690	-0.770966	0.620045	0.145447	-0.630471	-0.775351	-0.036569	0	0	0
13823	0	0	0	0	0	9.721264	1.322937	-0.438115	-0.004708	-0.000437	-0.007873	-0.327148	-1.258789	-0.653320	0.646848	0.355889	-0.625802	0.251600	104.107865	-81.371151	-53.073638	0.090138	-0.119938	0.988681	-0.770927	0.620080	0.145508	-0.630514	-0.775316	-0.036570	0	0	0
13824	0	0	0	0	0	9.756276	1.338168	-0.398865	0.000371	-0.000143	-0.010502	-0.327881	-1.266113	-0.649414	0.646858	0.355911	-0.625792	0.251568	104.102427	-81.366474	-53.069016	0.090196	-0.119995	0.988669	-0.770910	0.620082	0.145590	-0.630526	-0.775306	-0.036576	0	0	0
13825	0	0	0	0	0	9.688927	1.364475	-0.469482	0.002382	-0.000655	-0.011095	-0.330322	-1.262451	-0.644531	0.646882	0.355902	-0.625801	0.251497	104.098302	-81.361269	-53.071885	0.090244	-0.120071	0.988655	-0.770825	0.620166	0.145679	-0.630622	-0.775227	-0.036588	0	0	0
13826	0	0	0	0	0	9.722273	1.405764	-0.453426	-0.001652	-0.000854	-0.016851	-0.331787	-1.260254	-0.643066	0.646901	0.355938	-0.625785	0.251436	104.088489	-81.352964	-53.064011	0.090347	-0.120173	0.988633	-0.770790	0.620176	0.145825	-0.630651	-0.775203	-0.036597	0	0	0
13827	0	0	0	0	0	9.717608	1.388405	-0.397026	-0.006069	-0.002135	-0.019050	-0.326416	-1.255371	-0.645020	0.646943	0.355930	-0.625796	0.251312	104.079246	-81.343270	-53.066256	0.090443	-0.120311	0.988608	-0.770649	0.620312	0.145993	-0.630809	-0.775073	-0.036615	0	0	0
13828	0	0	0	0	0	9.696007	1.346874	-0.392600	-0.023732	-0.006650	-0.024372	-0.328857	-1.265869	-0.643311	0.646993	0.355926	-0.625813	0.251147	104.071081	-81.329978	-53.072845	0.090567	-0.120504	0.988573	-0.770467	0.620484	0.146221	-0.631013	-0.774906	-0.036650	0	0	0
13829	0	0	0	0	0	9.685202	1.336966	-0.303515	-0.025691	-0.016340	-0.030890	-0.329102	-1.257324	-0.650391	0.647039	0.355913	-0.625871	0.250902	104.090839	-81.311621	-53.115225	0.090668	-0.120825	0.988525	-0.770198	0.620749	0.146515	-0.631328	-0.774643	-0.036777	0	0	0
13830	0	0	0	0	0	9.664786	1.376336	-0.315626	-0.023522	-0.023897	-0.040882	-0.330078	-1.256104	-0.651367	0.647056	0.355982	-0.625914	0.250654	104.130265	-81.286745	-53.169838	0.090810	-0.121255	0.988459	-0.770002	0.620899	0.146906	-0.631546	-0.774456	-0.036983	0	0	0
13831	0	0	0	0	0	9.612321	1.351179	-0.321153	-0.029576	-0.024792	-0.052981	-0.319824	-1.262695	-0.646729	0.647125	0.355997	-0.625987	0.250270	104.157913	-81.255073	-53.229468	0.091010	-0.121787	0.988375	-0.769612	0.621261	0.147418	-0.631993	-0.774082	-0.037187	0	0	0
13832	0	0	0	0	0	9.565963	1.329975	-0.272998	-0.028471	-0.034871	-0.068475	-0.322998	-1.265625	-0.652588	0.647151	0.356151	-0.626022	0.249898	104.208308	-81.213318	-53.298059	0.091295	-0.122473	0.988264	-0.769360	0.621415	0.148083	-0.632259	-0.773850	-0.037494	0	0	0
13833	0	0	0	0	0	9.676068	1.250844	-0.328607	-0.040569	-0.035434	-0.085723	-0.328125	-1.257813	-0.643555	0.647223	0.356312	-0.626046	0.249419	104.235807	-81.161592	-53.352267	0.091712	-0.123275	0.988126	-0.768995	0.621664	0.148930	-0.632642	-0.773522	-0.037784	0	0	0
13834	0	0	0	0	0	9.637944	0.981359	-0.302731	-0.048354	-0.038460	-0.101955	-0.326172	-1.260254	-0.643311	0.647314	0.356510	-0.626058	0.248870	104.256234	-81.100727	-53.402076	0.092230	-0.124197	0.987962	-0.768585	0.621929	0.149934	-0.633064	-0.773162	-0.038096	0	0	0
13835	0	0	0	0	0	9.634286	0.823933	-0.363629	-0.034468	-0.038563	-0.117539	-0.330322	-1.256836	-0.647461	0.647409	0.356776	-0.626040	0.248287	104.271071	-81.031219	-53.442824	0.092856	-0.125226	0.987773	-0.768198	0.622129	0.151085	-0.633442	-0.772835	-0.038430	0	0	0
13836	0	0	0	0	0	9.650409	0.746738	-0.365087	-0.010915	-0.043468	-0.139493	-0.328369	-1.258301	-0.645508	0.647464	0.357219	-0.625954	0.247724	104.295987	-80.948798	-53.475480	0.093630	-0.126420	0.987548	-0.767989	0.622055	0.152445	-0.633582	-0.772700	-0.038846	0	0	0
13837	0	0	0	0	0	9.675629	1.106388	-0.322730	0.007580	-0.035319	-0.153975	-0.324951	-1.254395	-0.648193	0.647545	0.357711	-0.625819	0.247142	104.291389	-80.859728	-53.475556	0.094543	-0.127654	0.987302	-0.767796	0.621927	0.153936	-0.633681	-0.772600	-0.039213	0	0	0
13838	0	0	0	0	0	9.673878	1.386136	-0.394233	-0.005258	-0.038016	-0.164074	-0.325195	-1.258545	-0.652832	0.647636	0.358242	-0.625663	0.246526	104.278696	-80.764430	-53.466847	0.095540	-0.128959	0.987037	-0.767597	0.621775	0.155536	-0.633772	-0.772506	-0.039584	0	0	0
13839	0	0	0	0	0	9.693667	1.543685	-0.242081	-0.028149	-0.037609	-0.167708	-0.321045	-1.256836	-0.649658	0.647797	0.358648	-0.625563	0.245767	104.249394	-80.667404	-53.465592	0.096538	-0.130300	0.986764	-0.767129	0.621940	0.157176	-0.634188	-0.772148	-0.039916	0	0	0
13840	0	0	0	0	0	9.702851	1.547521	-0.312230	-0.023428	-0.038887	-0.170230	-0.322998	-1.260010	-0.651611	0.647924	0.359140	-0.625421	0.245073	104.224635	-80.568563	-53.455201	0.097575	-0.131650	0.986482	-0.766805	0.621916	0.158843	-0.634420	-0.771939	-0.040266	0	0	0
13841	0	0	0	0	0	9.677835	1.554821	-0.246548	-0.016314	-0.038960	-0.173435	-0.323730	-1.250000	-0.648193	0.648060	0.359617	-0.625292	0.244344	104.202613	-80.468162	-53.451919	0.098612	-0.133032	0.986194	-0.766430	0.621944	0.160534	-0.634713	-0.771679	-0.040629	0	0	0
13842	0	0	0	0	0	9.669218	1.657362	-0.231705	-0.005541	-0.040528	-0.170819	-0.317139	-1.252441	-0.640625	0.648150	0.360170	-0.625131	0.243700	104.193628	-80.368762	-53.447125	0.099642	-0.134398	0.985905	-0.766216	0.621776	0.162199	-0.634811	-0.771578	-0.041023	0	0	0
13843	0	0	0	0	0	9.658198	1.705622	-0.225222	0.006952	-0.040527	-0.167535	-0.324219	-1.258057	-0.645508	0.648227	0.360711	-0.624987	0.243066	104.196106	-80.271523	-53.454142	0.100621	-0.135755	0.985620	-0.766002	0.621614	0.163819	-0.634914	-0.771471	-0.041441	0	0	0
13844	0	0	0	0	0	9.663234	1.769396	-0.254935	0.017651	-0.045834	-0.166114	-0.330322	-1.245605	-0.644531	0.648252	0.361330	-0.624823	0.242500	104.221342	-80.173992	-53.470587	0.101581	-0.137132	0.985331	-0.765937	0.621269	0.165427	-0.634840	-0.771505	-0.041925	0	0	0
13845	0	0	0	0	0	9.699873	1.748480	-0.174792	0.013143	-0.051629	-0.153312	-0.319580	-1.247070	-0.650146	0.648259	0.361877	-0.624721	0.241929	104.273719	-80.083057	-53.521466	0.102389	-0.138479	0.985058	-0.765809	0.621032	0.166904	-0.634865	-0.771455	-0.042462	0	0	0
13846	0	0	0	0	0	9.608975	1.663685	-0.230700	0.044208	-0.051128	-0.157806	-0.323486	-1.249023	-0.635742	0.648208	0.362562	-0.624556	0.241463	104.336356	-79.989383	-53.560446	0.103251	-0.139844	0.984776	-0.765917	0.620489	0.168417	-0.634594	-0.771646	-0.043043	0	0	0
13847	0	0	0	0	0	9.635963	1.620215	-0.149314	0.066721	-0.056093	-0.151793	-0.319580	-1.248535	-0.640137	0.648095	0.363306	-0.624391	0.241076	104.430659	-79.898232	-53.618820	0.104038	-0.141210	0.984498	-0.766170	0.619782	0.169863	-0.634161	-0.771965	-0.043710	0	0	0
13848	0	0	0	0	0	9.629223	1.606444	-0.187206	0.090641	-0.059160	-0.154236	-0.317627	-1.246338	-0.641357	0.647930	0.364140	-0.624201	0.240752	104.545267	-79.805367	-53.683592	0.104823	-0.142613	0.984212	-0.766574	0.618881	0.171320	-0.633543	-0.772430	-0.044451	0	0	0
13849	0	0	0	0	0	9.655079	1.633361	-0.209967	0.103695	-0.066344	-0.151218	-0.315918	-1.244141	-0.636719	0.647715	0.365016	-0.624023	0.240464	104.689394	-79.712981	-53.770752	0.105543	-0.144053	0.983926	-0.767062	0.617880	0.172742	-0.632832	-0.772964	-0.045284	0	0	0
13850	0	0	0	0	0	9.674047	1.745935	-0.215078	0.106419	-0.066489	-0.149676	-0.323975	-1.248535	-0.632080	0.647492	0.365895	-0.623846	0.240190	104.835362	-79.621519	-53.858250	0.106250	-0.145482	0.983639	-0.767567	0.616859	0.174145	-0.632101	-0.773512	-0.046126	0	0	0
13851	0	0	0	0	0	9.620817	1.862380	-0.233932	0.097962	-0.069924	-0.148324	-0.319092	-1.245605	-0.633057	0.647272	0.366747	-0.623691	0.239888	104.985160	-79.530131	-53.954558	0.106928	-0.146929	0.983351	-0.768018	0.615901	0.175539	-0.631438	-0.774001	-0.046987	0	0	0
13852	0	0	0	0	0	9.654672	1.857299	-0.268204	0.083390	-0.076863	-0.153262	-0.324463	-1.250000	-0.626221	0.647061	0.367574	-0.623567	0.239511	105.141838	-79.435059	-54.066420	0.107598	-0.148458	0.983048	-0.768371	0.615047	0.176984	-0.630896	-0.774388	-0.047893	0	0	0
13853	0	0	0	0	0	9.653820	1.747906	-0.413576	0.073950	-0.078502	-0.152748	-0.321533	-1.245850	-0.621826	0.646863	0.368372	-0.623459	0.239103	105.295264	-79.339841	-54.180474	0.108259	-0.149996	0.982742	-0.768663	0.614264	0.178431	-0.630427	-0.774714	-0.048797	0	0	0
13854	0	0	0	0	0	9.629512	1.619444	-0.345377	0.080712	-0.079583	-0.152415	-0.321289	-1.252441	-0.628174	0.646646	0.369191	-0.623347	0.238715	105.454302	-79.244714	-54.296370	0.108907	-0.151540	0.982433	-0.768996	0.613427	0.179867	-0.629908	-0.775076	-0.049727	0	0	0
13855	0	0	0	0	0	9.642143	1.605577	-0.310521	0.073640	-0.081178	-0.159504	-0.305176	-1.249756	-0.619141	0.646447	0.370011	-0.623235	0.238279	105.605096	-79.145246	-54.408000	0.109604	-0.153138	0.982108	-0.769277	0.612630	0.181378	-0.629445	-0.775392	-0.050659	0	0	0
13856	0	0	0	0	0	9.600208	1.576241	-0.389218	0.083098	-0.083052	-0.161128	-0.312988	-1.249756	-0.614014	0.646225	0.370868	-0.623114	0.237863	105.763650	-79.044660	-54.522087	0.110299	-0.154760	0.981776	-0.769613	0.611756	0.182896	-0.628912	-0.775761	-0.051629	0	0	0
13857	0	0	0	0	0	9.649898	1.499700	-0.300357	0.099006	-0.081445	-0.166946	-0.318359	-1.252930	-0.600098	0.645985	0.371793	-0.622957	0.237481	105.918896	-78.940941	-54.623523	0.111054	-0.156404	0.981430	-0.770041	0.610745	0.184465	-0.628254	-0.776227	-0.052612	0	0	0
13858	0	0	0	0	0	9.598554	1.404624	-0.296732	0.139203	-0.081009	-0.175382	-0.316895	-1.246094	-0.604004	0.645681	0.372873	-0.622736	0.237198	106.087404	-78.832709	-54.715074	0.111875	-0.158094	0.981066	-0.770710	0.609406	0.186090	-0.627288	-0.776936	-0.053668	0	0	0
13859	0	0	0	0	0	9.629611	1.427584	-0.356102	0.165138	-0.092240	-0.184229	-0.313477	-1.248535	-0.603027	0.645303	0.374077	-0.622501	0.236945	106.291393	-78.717649	-54.827653	0.112698	-0.159924	0.980675	-0.771529	0.607847	0.187788	-0.626133	-0.777783	-0.054883	0	0	0
13860	0	0	0	0	0	9.593821	1.590588	-0.384183	0.185427	-0.095433	-0.183291	-0.323242	-1.249512	-0.603271	0.644874	0.375346	-0.622255	0.236752	106.513929	-78.602615	-54.947368	0.113495	-0.161771	0.980280	-0.772472	0.606128	0.189461	-0.624824	-0.778742	-0.056171	0	0	0
13861	0	0	0	0	0	9.628802	1.696635	-0.407533	0.199001	-0.094305	-0.184943	-0.310303	-1.247070	-0.600586	0.644425	0.376662	-0.621983	0.236598	106.735734	-78.486671	-55.058421	0.114317	-0.163616	0.979878	-0.773495	0.604294	0.191142	-0.623408	-0.779781	-0.057475	0	0	0
13862	0	0	0	0	0	9.618717	1.764044	-0.466371	0.212307	-0.081061	-0.188809	-0.325684	-1.239990	-0.582275	0.643995	0.378017	-0.621646	0.236497	106.924103	-78.370823	-55.127638	0.115252	-0.165379	0.979473	-0.774591	0.602345	0.192847	-0.621873	-0.780916	-0.058680	0	0	0
13863	0	0	0	0	0	9.583236	1.738955	-0.493386	0.216388	-0.094315	-0.180709	-0.318359	-1.255615	-0.585449	0.643505	0.379374	-0.621359	0.236409	107.153068	-78.257043	-55.235922	0.116048	-0.167194	0.979070	-0.775716	0.600371	0.194469	-0.620320	-0.782049	-0.060024	0	0	0
13864	0	0	0	0	0	9.607818	1.822549	-0.515859	0.227881	-0.108194	-0.189761	-0.314697	-1.240234	-0.572754	0.642959	0.380812	-0.621086	0.236301	107.414851	-78.135950	-55.371081	0.116829	-0.169170	0.978638	-0.776898	0.598287	0.196167	-0.618692	-0.783220	-0.061531	0	0	0
13865	0	0	0	0	0	9.608841	1.825961	-0.419746	0.244507	-0.109753	-0.194608	-0.314453	-1.247314	-0.581055	0.642381	0.382320	-0.620786	0.236226	107.681497	-78.011722	-55.501506	0.117645	-0.171184	0.978190	-0.778172	0.596058	0.197899	-0.616935	-0.784482	-0.063087	0	0	0
13866	0	0	0	0	0	9.595715	1.875134	-0.425088	0.263211	-0.106177	-0.188589	-0.324951	-1.243896	-0.576172	0.641769	0.383863	-0.620463	0.236234	107.951283	-77.891370	-55.624272	0.118437	-0.173131	0.977752	-0.779561	0.593685	0.199554	-0.615026	-0.785852	-0.064652	0	0	0
13867	0	0	0	0	0	9.551016	1.881428	-0.445095	0.275836	-0.108719	-0.183013	-0.323242	-1.250732	-0.552979	0.641117	0.385432	-0.620142	0.236293	108.234730	-77.773394	-55.753640	0.119179	-0.175062	0.977318	-0.781029	0.591215	0.201144	-0.613017	-0.787285	-0.066268	0	0	0
13868	0	0	0	0	0	9.628571	1.869722	-0.602224	0.295914	-0.105128	-0.176263	-0.321777	-1.248779	-0.551758	0.640427	0.387038	-0.619797	0.236443	108.523061	-77.659687	-55.876318	0.119892	-0.176922	0.976895	-0.782620	0.588592	0.202646	-0.610845	-0.788834	-0.067895	0	0	0
13869	0	0	0	0	0	9.591398	1.987000	-0.555802	0.317033	-0.091442	-0.161882	-0.319824	-1.253662	-0.546631	0.639720	0.388651	-0.619409	0.236730	108.797369	-77.556088	-55.972274	0.120583	-0.178586	0.976507	-0.784350	0.585819	0.203991	-0.608486	-0.790521	-0.069434	0	0	0
13870	0	0	0	0	0	9.481579	2.213398	-0.510926	0.326339	-0.112026	-0.161956	-0.316406	-1.249268	-0.537842	0.638929	0.390316	-0.619074	0.237005	109.124677	-77.448590	-56.117119	0.121153	-0.180411	0.976101	-0.786127	0.582965	0.205321	-0.606075	-0.792215	-0.071198	0	0	0
13871	0	0	0	0	0	9.495439	2.325926	-0.530808	0.319784	-0.131221	-0.158397	-0.316895	-1.254639	-0.536377	0.638085	0.391971	-0.618812	0.237232	109.492785	-77.339110	-56.307657	0.121587	-0.182364	0.975684	-0.787860	0.580160	0.206618	-0.603732	-0.793825	-0.073138	0	0	0
13872	0	0	0	0	0	9.494687	2.369191	-0.520697	0.302973	-0.128359	-0.158999	-0.322754	-1.254150	-0.531738	0.637280	0.393569	-0.618558	0.237410	109.839906	-77.229681	-56.486661	0.122045	-0.184296	0.975264	-0.789484	0.577480	0.207923	-0.601515	-0.795331	-0.075021	0	0	0
13873	0	0	0	0	0	9.505495	2.288683	-0.588203	0.292670	-0.138200	-0.155575	-0.315918	-1.249756	-0.520752	0.636460	0.395134	-0.618351	0.237547	110.202114	-77.119836	-56.687245	0.122426	-0.186285	0.974838	-0.791042	0.574881	0.209199	-0.599386	-0.796750	-0.076979	0	0	0
13874	0	0	0	0	0	9.570702	2.162285	-0.636367	0.298227	-0.138130	-0.152504	-0.324707	-1.246582	-0.506592	0.635623	0.396706	-0.618143	0.237711	110.565974	-77.011460	-56.886370	0.122785	-0.188253	0.974415	-0.792631	0.572236	0.210432	-0.597210	-0.798190	-0.078954	0	0	0
13875	0	0	0	0	0	9.572519	2.112160	-0.694634	0.323839	-0.137614	-0.140518	-0.323975	-1.252197	-0.507324	0.634721	0.398321	-0.617924	0.237992	110.948432	-76.909235	-57.089581	0.123061	-0.190147	0.974012	-0.794380	0.569401	0.211524	-0.594825	-0.799766	-0.080978	0	0	0
13876	0	0	0	0	0	9.479422	2.094927	-0.776624	0.342000	-0.145081	-0.139899	-0.315430	-1.249756	-0.501221	0.633756	0.399998	-0.617706	0.238315	111.355024	-76.805570	-57.306999	0.123290	-0.192095	0.973601	-0.796229	0.566416	0.212585	-0.592299	-0.801419	-0.083119	0	0	0
13877	0	0	0	0	0	9.491519	2.188341	-0.743972	0.358917	-0.158620	-0.135264	-0.324707	-1.248047	-0.494141	0.632708	0.401729	-0.617517	0.238677	111.800382	-76.701071	-57.554353	0.123412	-0.194124	0.973183	-0.798175	0.563294	0.213580	-0.589649	-0.803129	-0.085428	0	0	0
13878	0	0	0	0	0	9.512405	2.303975	-0.717287	0.360891	-0.166450	-0.130844	-0.326904	-1.250732	-0.492432	0.631623	0.403461	-0.617358	0.239043	112.263656	-76.596875	-57.819092	0.123456	-0.196190	0.972763	-0.800129	0.560157	0.214520	-0.586986	-0.804819	-0.087822	0	0	0
13879	0	0	0	0	0	9.489096	2.237605	-0.617614	0.335394	-0.171678	-0.123928	-0.333740	-1.252441	-0.481934	0.630563	0.405095	-0.617256	0.239339	112.723941	-76.494618	-58.095864	0.123424	-0.198257	0.972348	-0.801932	0.557229	0.215409	-0.584527	-0.806343	-0.090213	0	0	0
13880	0	0	0	0	0	9.485206	2.247351	-0.641512	0.340282	-0.172404	-0.126368	-0.324463	-1.262695	-0.473389	0.629491	0.406751	-0.617144	0.239642	113.181539	-76.390484	-58.367138	0.123411	-0.200344	0.971922	-0.803752	0.554251	0.216306	-0.582024	-0.807879	-0.092626	0	0	0
13881	0	0	0	0	0	9.520449	2.392524	-0.712468	0.361200	-0.176671	-0.126637	-0.324463	-1.259033	-0.472412	0.628361	0.408478	-0.617016	0.239998	113.653771	-76.284639	-58.641232	0.123385	-0.202465	0.971486	-0.805685	0.551094	0.217179	-0.579351	-0.809508	-0.095126	0	0	0
13882	0	0	0	0	0	9.539013	2.453024	-0.838003	0.347927	-0.184339	-0.123274	-0.332031	-1.254639	-0.458984	0.627228	0.410160	-0.616934	0.240307	114.132982	-76.178326	-58.930492	0.123291	-0.204629	0.971044	-0.807537	0.548044	0.218021	-0.576788	-0.811034	-0.097676	0	0	0
13883	0	0	0	0	0	9.518577	2.391964	-0.975013	0.345256	-0.194712	-0.117257	-0.331299	-1.251953	-0.447021	0.626059	0.411826	-0.616895	0.240604	114.631665	-76.072029	-59.241492	0.123100	-0.206842	0.970599	-0.809371	0.545019	0.218799	-0.574252	-0.812509	-0.100321	0	0	0
13884	0	0	0	0	0	9.474838	2.391636	-1.240879	0.363667	-0.204246	-0.110774	-0.328125	-1.250488	-0.439941	0.624811	0.413538	-0.616877	0.240958	115.161604	-75.966221	-59.573999	0.122805	-0.209099	0.970153	-0.811310	0.541851	0.219484	-0.571572	-0.814049	-0.103102	0	0	0
13885	0	0	0	0	0	9.459928	2.400903	-1.144722	0.301261	-0.216883	-0.102441	-0.326172	-1.260986	-0.445068	0.623641	0.415045	-0.616986	0.241118	115.682870	-75.860794	-59.934556	0.122381	-0.211412	0.969705	-0.812895	0.539201	0.220146	-0.569407	-0.815210	-0.105868	0	0	0
13886	0	0	0	0	0	9.536516	2.178882	-0.972119	0.269917	-0.224603	-0.101531	-0.327637	-1.262207	-0.433594	0.622509	0.416457	-0.617159	0.241167	116.197034	-75.753202	-60.306506	0.121908	-0.213783	0.969245	-0.814298	0.536803	0.220820	-0.567502	-0.816173	-0.108643	0	0	0
13887	0	0	0	0	0	9.526922	2.012533	-0.826149	0.268323	-0.226588	-0.105417	-0.327393	-1.268799	-0.427490	0.621377	0.417879	-0.617327	0.241194	116.703006	-75.642210	-60.671102	0.121464	-0.216191	0.968766	-0.815681	0.534405	0.221529	-0.565606	-0.817112	-0.111432	0	0	0
13888	0	0	0	0	0	9.545073	2.042183	-0.837441	0.259406	-0.218945	-0.109818	-0.337402	-1.263672	-0.414551	0.620290	0.419275	-0.617474	0.241196	117.178410	-75.530277	-61.009617	0.121102	-0.218560	0.968280	-0.817005	0.532066	0.222280	-0.563770	-0.818008	-0.114131	0	0	0
13889	0	0	0	0	0	9.488582	2.139243	-0.914026	0.279867	-0.218666	-0.114880	-0.328857	-1.258545	-0.406982	0.619165	0.420749	-0.617580	0.241244	117.652825	-75.415065	-61.335149	0.120792	-0.220953	0.967775	-0.818433	0.529542	0.223052	-0.561762	-0.819002	-0.116871	0	0	0
13890	0	0	0	0	0	9.448508	2.308111	-0.882231	0.271086	-0.217817	-0.117821	-0.327637	-1.264893	-0.400635	0.618063	0.422202	-0.617688	0.241258	118.112076	-75.298012	-61.650402	0.120513	-0.223353	0.967259	-0.819803	0.527080	0.223851	-0.559820	-0.819939	-0.119586	0	0	0
13891	0	0	0	0	0	9.423648	2.354350	-1.012001	0.188367	-0.221231	-0.125218	-0.334717	-1.263184	-0.399658	0.617132	0.423426	-0.617887	0.240985	118.516143	-75.175624	-61.957752	0.120284	-0.225820	0.966715	-0.820698	0.525273	0.224817	-0.558557	-0.820423	-0.122148	0	0	0
13892	0	0	0	0	0	9.479816	2.229532	-1.170805	0.138763	-0.217482	-0.120214	-0.336670	-1.262451	-0.393555	0.616310	0.424475	-0.618145	0.240582	118.884994	-75.056334	-62.258264	0.120035	-0.228228	0.966180	-0.821320	0.523882	0.225788	-0.557696	-0.820645	-0.124565	0	0	0
13893	0	0	0	0	0	9.482874	2.150927	-1.440679	0.177941	-0.228975	-0.120199	-0.339111	-1.266357	-0.390381	0.615369	0.425659	-0.618388	0.240275	119.291547	-74.933253	-62.574718	0.119728	-0.230730	0.965624	-0.822160	0.522166	0.226708	-0.556524	-0.821040	-0.127179	0	0	0
13894	0	0	0	0	0	9.437963	2.164613	-1.618300	0.231354	-0.232190	-0.132080	-0.334473	-1.266113	-0.379395	0.614315	0.427045	-0.618552	0.240089	119.716991	-74.802825	-62.879249	0.119502	-0.233319	0.965029	-0.823279	0.519980	0.227666	-0.554915	-0.821695	-0.129948	0	0	0
13895	0	0	0	0	0	9.528820	1.976868	-1.865581	0.270101	-0.231373	-0.141904	-0.332031	-1.268066	-0.375977	0.613193	0.428579	-0.618642	0.239993	120.145882	-74.667086	-63.164513	0.119370	-0.235950	0.964406	-0.824598	0.517446	0.228663	-0.552981	-0.822543	-0.132796	0	0	0
13896	0	0	0	0	0	9.678739	1.806245	-2.273383	0.321648	-0.216713	-0.146236	-0.340332	-1.258789	-0.371094	0.612006	0.430265	-0.618615	0.240075	120.567957	-74.532972	-63.412277	0.119359	-0.238482	0.963784	-0.826191	0.514473	0.229622	-0.550602	-0.823677	-0.135625	0	0	0
13897	0	0	0	0	0	9.667535	1.655824	-2.506726	0.337607	-0.194979	-0.161759	-0.337891	-1.261475	-0.362061	0.610870	0.432020	-0.618465	0.240203	120.938166	-74.397055	-63.596860	0.119606	-0.240912	0.963149	-0.827844	0.511322	0.230701	-0.548058	-0.824931	-0.138281	0	0	0
13898	0	0	0	0	0	9.688809	1.877077	-2.699932	0.340568	-0.175867	-0.179974	-0.334717	-1.268066	-0.357910	0.609805	0.433815	-0.618212	0.240326	121.253522	-74.257638	-63.722854	0.120114	-0.243276	0.962491	-0.829483	0.508096	0.231939	-0.545463	-0.826229	-0.140764	0	0	0
13899	0	0	0	0	0	9.846625	1.940681	-2.899230	0.306018	-0.143073	-0.194178	-0.341064	-1.261963	-0.349365	0.608931	0.435508	-0.617867	0.240368	121.473545	-74.120814	-63.770409	0.120927	-0.245436	0.961841	-0.830907	0.505112	0.233357	-0.543111	-0.827419	-0.142853	0	0	0
13900	0	0	0	0	0	9.837007	1.950389	-2.826174	0.276703	-0.112563	-0.215761	-0.330566	-1.261475	-0.336670	0.608238	0.437139	-0.617415	0.240320	121.600638	-73.982635	-63.738832	0.122088	-0.247449	0.961178	-0.832137	0.502311	0.235014	-0.540964	-0.828525	-0.144585	0	0	0
13901	0	0	0	0	0	9.754130	2.200298	-2.759559	0.261563	-0.079696	-0.227050	-0.330811	-1.259766	-0.338623	0.607692	0.438719	-0.616855	0.240262	121.650837	-73.848749	-63.636219	0.123528	-0.249242	0.960531	-0.833263	0.499599	0.236799	-0.538900	-0.829626	-0.145969	0	0	0
13902	0	0	0	0	0	9.660188	2.370792	-2.411000	0.209440	-0.046559	-0.238207	-0.333984	-1.262451	-0.330566	0.607374	0.440134	-0.616231	0.240082	121.605255	-73.719465	-63.464905	0.125241	-0.250810	0.959901	-0.834086	0.497286	0.238760	-0.537229	-0.830543	-0.146916	0	0	0
13903	0	0	0	0	0	9.597241	2.490735	-2.020169	0.141493	-0.027964	-0.242140	-0.329102	-1.252197	-0.335205	0.607266	0.441332	-0.615621	0.239719	121.487459	-73.593667	-63.258781	0.127091	-0.252239	0.959283	-0.834533	0.495522	0.240858	-0.536100	-0.831164	-0.147526	0	0	0
13904	0	0	0	0	0	9.584817	2.235197	-1.774496	0.102026	-0.010560	-0.253952	-0.336914	-1.245117	-0.341064	0.607311	0.442423	-0.614979	0.239239	121.309313	-73.467237	-63.013186	0.129131	-0.253578	0.958657	-0.834747	0.494053	0.243124	-0.535278	-0.831631	-0.147876	0	0	0
13905	0	0	0	0	0	9.540444	2.076859	-1.414783	0.091287	-0.000434	-0.261648	-0.325195	-1.256348	-0.337646	0.607420	0.443494	-0.614301	0.238723	121.103784	-73.339706	-62.745261	0.131292	-0.254867	0.958021	-0.834887	0.492649	0.245479	-0.534533	-0.832069	-0.148105	0	0	0
13906	0	0	0	0	0	9.595765	2.322629	-1.406092	0.092405	0.005768	-0.265879	-0.329346	-1.255371	-0.343750	0.607549	0.444572	-0.613592	0.238211	120.888478	-73.211751	-62.466296	0.133520	-0.256122	0.957379	-0.835022	0.491223	0.247869	-0.533771	-0.832528	-0.148279	0	0	0
13907	0	0	0	0	0	9.389848	2.729577	-1.426003	0.081716	0.016598	-0.270192	-0.328857	-1.248779	-0.338623	0.607739	0.445618	-0.612852	0.237677	120.648868	-73.084431	-62.168132	0.135844	-0.257304	0.956735	-0.835086	0.489869	0.250317	-0.533083	-0.832960	-0.148325	0	0	0
13908	0	0	0	0	0	9.265206	3.020888	-1.471381	0.042644	0.011732	-0.270029	-0.317627	-1.249756	-0.337646	0.608000	0.446548	-0.612173	0.237013	120.399181	-72.955505	-61.882651	0.138139	-0.258522	0.956077	-0.834937	0.488839	0.252817	-0.532727	-0.833188	-0.148322	0	0	0
13909	0	0	0	0	0	9.224847	2.966914	-1.505060	-0.019979	0.004345	-0.258730	-0.322021	-1.251465	-0.340576	0.608364	0.447263	-0.611614	0.236174	120.139878	-72.829562	-61.624439	0.140301	-0.259745	0.955431	-0.834463	0.488356	0.255303	-0.532904	-0.833091	-0.148231	0	0	0
13910	0	0	0	0	0	9.157431	2.680549	-1.449257	-0.054270	0.007472	-0.259590	-0.322266	-1.244141	-0.341553	0.608813	0.447870	-0.611084	0.235234	119.859194	-72.703838	-61.364254	0.142483	-0.260945	0.954781	-0.833800	0.488154	0.257843	-0.533363	-0.832834	-0.148022	0	0	0
13911	0	0	0	0	0	9.193190	2.575775	-1.382546	-0.078338	0.001046	-0.251369	-0.321289	-1.247070	-0.333252	0.609287	0.448387	-0.610618	0.234231	119.586028	-72.579893	-61.126199	0.144563	-0.262159	0.954135	-0.833014	0.488170	0.260342	-0.534031	-0.832444	-0.147811	0	0	0
13912	0	0	0	0	0	9.217976	2.458750	-1.277184	-0.065836	0.004731	-0.254406	-0.314453	-1.243408	-0.337646	0.609746	0.448945	-0.610119	0.233265	119.315298	-72.455251	-60.883043	0.146684	-0.263356	0.953482	-0.832285	0.488071	0.262846	-0.534589	-0.832124	-0.147595	0	0	0
13913	0	0	0	0	0	9.203159	2.503135	-1.210187	-0.040526	0.001969	-0.249434	-0.319824	-1.237793	-0.343018	0.610133	0.449569	-0.609609	0.232384	119.071067	-72.331883	-60.652292	0.148749	-0.264552	0.952831	-0.831693	0.487771	0.265267	-0.534940	-0.831921	-0.147470	0	0	0
13914	0	0	0	0	0	9.205677	2.669130	-1.161373	-0.031589	0.000561	-0.253242	-0.316406	-1.235352	-0.339355	0.610499	0.450231	-0.609083	0.231516	118.834368	-72.206038	-60.423928	0.150835	-0.265776	0.952162	-0.831138	0.487384	0.267707	-0.535218	-0.831757	-0.147382	0	0	0
13915	0	0	0	0	0	9.163067	2.831452	-1.081152	-0.039019	-0.007482	-0.253637	-0.313965	-1.233398	-0.344971	0.610857	0.450882	-0.608589	0.230605	118.608598	-72.077388	-60.211341	0.152882	-0.267070	0.951473	-0.830537	0.487054	0.270161	-0.535570	-0.831536	-0.147349	0	0	0
13916	0	0	0	0	0	9.270951	2.907594	-1.045083	-0.063518	-0.012772	-0.247699	-0.311279	-1.235840	-0.348389	0.611246	0.451444	-0.608151	0.229626	118.385336	-71.950140	-60.016011	0.154847	-0.268376	0.950787	-0.829809	0.486940	0.272592	-0.536134	-0.831182	-0.147300	0	0	0
13917	0	0	0	0	0	9.324930	2.642370	-1.165475	-0.080410	-0.024058	-0.250600	-0.302002	-1.231934	-0.338379	0.611642	0.451976	-0.607760	0.228560	118.170030	-71.818022	-59.839074	0.156776	-0.269792	0.950070	-0.828980	0.486955	0.275076	-0.536855	-0.830715	-0.147309	0	0	0
13918	0	0	0	0	0	9.346566	2.624209	-1.094173	-0.090522	-0.031482	-0.249036	-0.314941	-1.225586	-0.347168	0.612034	0.452480	-0.607406	0.227452	117.964647	-71.684605	-59.678569	0.158648	-0.271261	0.949341	-0.828094	0.487055	0.277555	-0.537671	-0.830178	-0.147359	0	0	0
13919	0	0	0	0	0	9.295364	2.360734	-1.139785	-0.090842	-0.035048	-0.258953	-0.303955	-1.234131	-0.350830	0.612427	0.453016	-0.607038	0.226303	117.758890	-71.544923	-59.517721	0.160582	-0.272808	0.948572	-0.827186	0.487126	0.280130	-0.538495	-0.829629	-0.147439	0	0	0
13920	0	0	0	0	0	9.359984	2.286448	-1.337711	-0.075396	-0.040598	-0.272541	-0.299072	-1.221924	-0.349121	0.612782	0.453646	-0.606639	0.225148	117.562623	-71.396800	-59.357428	0.162594	-0.274467	0.947751	-0.826332	0.487027	0.282806	-0.539201	-0.829140	-0.147613	0	0	0
13921	0	0	0	0	0	9.393760	2.449659	-1.375591	-0.069027	-0.036897	-0.287459	-0.305176	-1.224609	-0.351074	0.613150	0.454336	-0.606186	0.223973	117.355370	-71.241794	-59.181529	0.164749	-0.276167	0.946884	-0.825483	0.486829	0.285614	-0.539848	-0.828691	-0.147766	0	0	0
13922	0	0	0	0	0	9.344170	2.596739	-1.473041	-0.091493	-0.030509	-0.300368	-0.294189	-1.218750	-0.347656	0.613601	0.454988	-0.605708	0.222705	117.119317	-71.081769	-58.988651	0.167040	-0.277876	0.945982	-0.824484	0.486777	0.288574	-0.540670	-0.828150	-0.147793	0	0	0
13923	0	0	0	0	0	9.263479	2.544699	-1.567327	-0.118111	-0.028923	-0.312707	-0.297607	-1.224365	-0.354492	0.614129	0.455593	-0.605225	0.221321	116.859778	-70.915496	-58.786862	0.169439	-0.279633	0.945037	-0.823312	0.486904	0.291688	-0.541708	-0.827484	-0.147724	0	0	0
13924	0	0	0	0	0	9.250753	2.389911	-1.583931	-0.137011	-0.027763	-0.333194	-0.300537	-1.219727	-0.348389	0.614725	0.456198	-0.604711	0.219819	116.576890	-70.738821	-58.571622	0.172007	-0.281480	0.944025	-0.821994	0.487125	0.295019	-0.542900	-0.826728	-0.147585	0	0	0
13925	0	0	0	0	0	9.298133	2.198987	-1.581191	-0.140515	-0.030493	-0.350162	-0.304199	-1.213135	-0.362793	0.615337	0.456847	-0.604168	0.218248	116.287996	-70.552307	-58.351893	0.174697	-0.283433	0.942946	-0.820616	0.487318	0.298513	-0.544123	-0.825946	-0.147456	0	0	0
13926	0	0	0	0	0	9.248389	2.140063	-1.486334	-0.123218	-0.034189	-0.373627	-0.299561	-1.211914	-0.354980	0.615922	0.457621	-0.603563	0.216647	116.002761	-70.352515	-58.125281	0.177552	-0.285530	0.941779	-0.819281	0.487295	0.302196	-0.545210	-0.825237	-0.147409	0	0	0
13927	0	0	0	0	0	9.202089	2.271509	-1.465400	-0.103605	-0.030983	-0.397220	-0.294189	-1.202393	-0.355225	0.616494	0.458521	-0.602869	0.215039	115.712745	-70.140910	-57.881349	0.180614	-0.287715	0.940531	-0.817998	0.487033	0.306070	-0.546130	-0.824633	-0.147386	0	0	0
13928	0	0	0	0	0	9.254999	2.492300	-1.401363	-0.100461	-0.031594	-0.419867	-0.291016	-1.205078	-0.360352	0.617079	0.459498	-0.602120	0.213369	115.415886	-69.917101	-57.627893	0.183851	-0.290014	0.939197	-0.816677	0.486670	0.310146	-0.547026	-0.824041	-0.147373	0	0	0
13929	0	0	0	0	0	9.292261	2.530237	-1.466592	-0.089522	-0.031153	-0.443899	-0.290771	-1.208008	-0.347168	0.617663	0.460579	-0.601299	0.211658	115.114653	-69.680439	-57.362719	0.187282	-0.292425	0.937770	-0.815357	0.486137	0.314426	-0.547831	-0.823504	-0.147386	0	0	0
13930	0	0	0	0	0	9.272952	2.784377	-1.565358	-0.076931	-0.022226	-0.459933	-0.285645	-1.202393	-0.358154	0.618259	0.461734	-0.600397	0.209954	114.804536	-69.437181	-57.079961	0.190885	-0.294836	0.936288	-0.814060	0.485442	0.318831	-0.548516	-0.823054	-0.147351	0	0	0
13931	0	0	0	0	0	9.363604	3.097721	-1.627593	-0.082113	-0.022031	-0.473061	-0.288330	-1.191650	-0.356445	0.618877	0.462911	-0.599467	0.208193	114.489687	-69.186547	-56.794854	0.194590	-0.297307	0.934742	-0.812691	0.484739	0.323360	-0.549243	-0.822579	-0.147293	0	0	0
13932	0	0	0	0	0	9.410033	3.361742	-1.625471	-0.117004	-0.020441	-0.479186	-0.281250	-1.197754	-0.352783	0.619584	0.463993	-0.598550	0.206312	114.156273	-68.932576	-56.510804	0.198346	-0.299791	0.933158	-0.811101	0.484293	0.327989	-0.550250	-0.821940	-0.147103	0	0	0
13933	0	0	0	0	0	9.329840	3.377527	-1.604770	-0.149186	-0.013411	-0.483164	-0.281250	-1.186523	-0.366211	0.620386	0.464977	-0.597632	0.204336	113.799840	-68.677500	-56.221348	0.202166	-0.302235	0.931549	-0.809305	0.484086	0.332695	-0.551502	-0.821167	-0.146735	0	0	0
13934	0	0	0	0	0	9.237793	3.314508	-1.599359	-0.157036	-0.022558	-0.482022	-0.272705	-1.190186	-0.363037	0.621175	0.465940	-0.596749	0.202319	113.459424	-68.420345	-55.953434	0.205916	-0.304748	0.929907	-0.807449	0.483934	0.337393	-0.552834	-0.820327	-0.146419	0	0	0
13935	0	0	0	0	0	9.345889	3.358131	-1.594399	-0.162878	-0.014152	-0.479523	-0.279297	-1.188965	-0.367188	0.621995	0.466866	-0.595848	0.200309	113.112953	-68.165771	-55.682126	0.209684	-0.307179	0.928264	-0.805545	0.483825	0.342069	-0.554193	-0.819484	-0.145996	0	0	0
13936	0	0	0	0	0	9.400561	3.352275	-1.636723	-0.171714	-0.008757	-0.485005	-0.271973	-1.177734	-0.367676	0.622854	0.467772	-0.594922	0.198268	112.758553	-67.908956	-55.407247	0.213515	-0.309592	0.926587	-0.803560	0.483758	0.346799	-0.555610	-0.818615	-0.145486	0	0	0
13937	0	0	0	0	0	9.541287	3.328338	-1.678463	-0.169053	-0.005476	-0.489356	-0.273438	-1.179443	-0.375000	0.623716	0.468693	-0.593969	0.196228	112.406127	-67.649877	-55.132346	0.217391	-0.311998	0.924877	-0.801559	0.483642	0.351557	-0.556995	-0.817770	-0.144945	0	0	0
13938	0	0	0	0	0	9.674822	3.460382	-1.726603	-0.164781	0.006640	-0.492649	-0.263184	-1.179932	-0.374756	0.624604	0.469623	-0.592963	0.194217	112.046151	-67.391090	-54.846120	0.221350	-0.314321	0.923150	-0.799554	0.483469	0.356329	-0.558316	-0.816982	-0.144300	0	0	0
13939	0	0	0	0	0	9.786575	3.336884	-1.797727	-0.167959	0.013399	-0.498878	-0.262207	-1.168701	-0.372314	0.625520	0.470551	-0.591920	0.192191	111.679797	-67.129694	-54.554405	0.225388	-0.316617	0.921387	-0.797495	0.483289	0.361155	-0.559644	-0.816202	-0.143573	0	0	0
13940	0	0	0	0	0	9.925464	3.240708	-2.070057	-0.160151	0.016106	-0.526540	-0.256592	-1.167969	-0.378174	0.626449	0.471579	-0.590791	0.190108	111.308402	-66.853450	-54.251780	0.229649	-0.319024	0.919502	-0.795395	0.482945	0.366212	-0.560900	-0.815468	-0.142842	0	0	0
13941	0	0	0	0	0	9.883813	2.770598	-1.818756	-0.196668	0.028015	-0.531826	-0.254883	-1.167725	-0.380615	0.627499	0.472494	-0.589643	0.187926	110.906741	-66.576003	-53.938353	0.234009	-0.321359	0.917588	-0.793052	0.482867	0.371360	-0.562413	-0.814597	-0.141859	0	0	0
13942	0	0	0	0	0	9.998842	2.993695	-1.976809	-0.203782	0.040206	-0.560093	-0.252197	-1.156738	-0.377197	0.628622	0.473454	-0.588392	0.185662	110.481443	-66.285030	-53.602916	0.238649	-0.323730	0.915558	-0.790575	0.482743	0.376763	-0.563948	-0.813731	-0.140727	0	0	0
13943	0	0	0	0	0	10.264514	2.018179	-1.472559	-0.186836	0.062026	-0.610375	-0.252686	-1.155273	-0.391846	0.629811	0.474590	-0.586932	0.183340	110.026251	-65.970310	-53.223387	0.243795	-0.326165	0.913335	-0.788043	0.482302	0.382588	-0.565290	-0.813020	-0.139449	0	0	0
13944	0	0	0	0	0	10.055740	2.137606	-1.506545	-0.129596	0.094957	-0.660414	-0.240479	-1.152344	-0.387451	0.630999	0.476018	-0.585190	0.181104	109.553697	-65.633792	-52.787909	0.249507	-0.328570	0.910927	-0.785676	0.481216	0.388774	-0.566092	-0.812695	-0.138082	0	0	0
13945	0	0	0	0	0	10.259412	2.270475	-1.383568	-0.072304	0.110944	-0.721554	-0.234131	-1.158691	-0.382813	0.632146	0.477785	-0.583194	0.178879	109.082230	-65.265806	-52.316326	0.255774	-0.331128	0.908259	-0.783438	0.479447	0.395418	-0.566396	-0.812702	-0.136788	0	0	0
13946	0	0	0	0	0	10.301386	2.521400	-1.456999	-0.048752	0.145512	-0.773602	-0.227783	-1.140625	-0.393311	0.633374	0.479741	-0.580934	0.176638	108.577366	-64.874310	-51.791590	0.262629	-0.333641	0.905379	-0.781152	0.477295	0.402481	-0.566416	-0.812941	-0.135273	0	0	0
13947	0	0	0	0	0	10.222886	2.609444	-1.577094	-0.048244	0.174983	-0.831688	-0.227539	-1.139160	-0.391602	0.634727	0.481833	-0.578432	0.174283	108.033183	-64.454575	-51.221292	0.270083	-0.336172	0.902244	-0.778659	0.474925	0.410044	-0.566343	-0.813286	-0.133494	0	0	0
13948	0	0	0	0	0	10.156976	2.653580	-1.788376	-0.063670	0.199010	-0.872948	-0.225586	-1.130859	-0.395264	0.636211	0.483965	-0.575757	0.171806	107.456393	-64.014088	-50.622543	0.277974	-0.338683	0.898902	-0.775902	0.472521	0.417971	-0.566309	-0.813645	-0.131436	0	0	0
13949	0	0	0	0	0	10.190172	2.672892	-2.062693	-0.066849	0.218639	-0.920991	-0.216064	-1.123779	-0.385986	0.637787	0.486198	-0.572893	0.169212	106.859474	-63.548077	-50.001087	0.286321	-0.341237	0.895308	-0.772921	0.469958	0.426301	-0.566227	-0.814062	-0.129191	0	0	0
13950	0	0	0	0	0	10.278868	2.653081	-2.277390	-0.071151	0.239816	-0.973323	-0.217285	-1.116943	-0.394287	0.639463	0.488538	-0.569825	0.166485	106.241337	-63.053791	-49.356031	0.295165	-0.343840	0.891432	-0.769685	0.467226	0.435069	-0.566095	-0.814539	-0.126740	0	0	0
13951	0	0	0	0	0	10.445116	2.816904	-2.444949	-0.071177	0.263427	-1.023706	-0.201904	-1.110840	-0.389893	0.641231	0.490988	-0.566544	0.163651	105.605681	-62.532458	-48.688395	0.304493	-0.346456	0.887272	-0.766209	0.464297	0.444243	-0.565869	-0.815105	-0.124082	0	0	0
13952	0	0	0	0	0	10.666774	2.926803	-2.402051	-0.066239	0.289342	-1.073471	-0.199951	-1.103027	-0.394775	0.643083	0.493560	-0.563035	0.160730	104.955735	-61.983995	-47.998155	0.314314	-0.349059	0.882816	-0.762509	0.461128	0.453807	-0.565496	-0.815794	-0.121221	0	0	0
13953	0	0	0	0	0	10.627956	3.060802	-2.301811	-0.091357	0.309743	-1.115971	-0.185303	-1.090088	-0.403320	0.645066	0.496138	-0.559360	0.157648	104.285211	-61.411443	-47.297299	0.324527	-0.351653	0.878079	-0.758426	0.457988	0.463721	-0.565219	-0.816447	-0.118073	0	0	0
13954	0	0	0	0	0	10.839245	2.861489	-2.140519	-0.138177	0.319656	-1.160166	-0.177979	-1.094238	-0.401367	0.647207	0.498664	-0.555559	0.154310	103.593826	-60.811584	-46.599325	0.335085	-0.354334	0.873021	-0.753815	0.455045	0.474021	-0.565226	-0.816934	-0.114624	0	0	0
13955	0	0	0	0	0	11.071927	2.481477	-1.928433	-0.168277	0.339098	-1.215866	-0.170654	-1.078369	-0.406738	0.649494	0.501212	-0.551560	0.150752	102.881645	-60.179365	-45.893083	0.346111	-0.357073	0.867586	-0.748721	0.452121	0.484771	-0.565352	-0.817365	-0.110864	0	0	0
13956	0	0	0	0	0	11.291917	2.178621	-1.768517	-0.164893	0.366191	-1.275284	-0.165771	-1.062744	-0.404053	0.651865	0.503894	-0.547296	0.147070	102.161941	-59.512737	-45.171279	0.357674	-0.359819	0.861742	-0.743299	0.448921	0.495960	-0.565310	-0.817924	-0.106886	0	0	0
13957	0	0	0	0	0	11.531017	1.868055	-1.580152	-0.147257	0.391137	-1.347623	-0.151367	-1.055908	-0.406006	0.654281	0.506789	-0.542732	0.143259	101.445935	-58.804290	-44.436918	0.369837	-0.362638	0.855403	-0.737564	0.445285	0.507662	-0.564995	-0.818667	-0.102786	0	0	0
13958	0	0	0	0	0	11.688251	1.702418	-1.382937	-0.113945	0.418328	-1.429090	-0.151611	-1.046387	-0.413086	0.656712	0.509968	-0.537819	0.139331	100.741505	-58.048100	-43.688013	0.382676	-0.365540	0.848493	-0.731542	0.441039	0.519934	-0.564275	-0.819674	-0.098633	0	0	0
13959	0	0	0	0	0	11.693599	1.862993	-1.141686	-0.098779	0.425406	-1.507900	-0.145264	-1.037842	-0.410400	0.659138	0.513373	-0.532641	0.135197	100.060442	-57.243966	-42.950132	0.396029	-0.368660	0.840982	-0.725115	0.436341	0.532744	-0.563356	-0.820790	-0.094517	0	0	0
13960	0	0	0	0	0	11.759549	1.798242	-1.070654	-0.165092	0.421350	-1.587480	-0.134521	-1.033203	-0.403809	0.661736	0.516742	-0.527281	0.130604	99.367134	-56.389395	-42.236073	0.409835	-0.372086	0.832819	-0.717787	0.431841	0.546165	-0.562865	-0.821624	-0.090095	0	0	0
