// General information: 
//  MT Manager version: 2022.2.0 
//  XDA version: 2022.2.0 build 7381 rev 124627 built on 2023-07-19
// Device information: 
//  DeviceId: 10B426DB
//  ProductCode: MTW2-3A7G6
//  Firmware Version: 4.14.0
//  Hardware Version: 3.0.0
// Device settings: 
//  Filter Profile: human(46.1)
//  Option Flags: Orientation Smoother Disabled, Position/Velocity Smoother Disabled, Continuous Zero Rotation Update Disabled, AHS Disabled, ICC Disabled
// Coordinate system: ENU
PacketCounter	SampleTimeFine	Year	Month	Day	Second	Acc_X	Acc_Y	Acc_Z	Gyr_X	Gyr_Y	Gyr_Z	Mag_X	Mag_Y	Mag_Z	Quat_q0	Quat_q1	Quat_q2	Quat_q3	Roll	Pitch	Yaw	Mat[1][1]	Mat[2][1]	Mat[3][1]	Mat[1][2]	Mat[2][2]	Mat[3][2]	Mat[1][3]	Mat[2][3]	Mat[3][3]	Vel_E	Vel_N	Vel_U
13511	0	0	0	0	0	9.854946	-0.138933	0.213331	0.005483	-0.004001	0.002961	-0.739990	0.499512	-0.437744	0.599775	-0.390243	-0.580037	-0.389278	-36.251060	-88.398655	-30.655746	0.024040	-0.014249	0.999609	0.919669	0.392346	-0.016525	-0.391957	0.919708	0.022536	0	0	0
13512	0	0	0	0	0	9.857823	-0.108095	0.198336	0.004887	-0.002292	0.002820	-0.733398	0.497559	-0.433594	0.599772	-0.390245	-0.580054	-0.389256	-36.322854	-88.400181	-30.581968	0.024035	-0.014204	0.999610	0.919656	0.392377	-0.016537	-0.391989	0.919695	0.022494	0	0	0
13513	0	0	0	0	0	9.806836	-0.113991	0.216945	0.007466	0.000649	0.002969	-0.745117	0.497314	-0.430908	0.599787	-0.390228	-0.580069	-0.389228	-36.352336	-88.400177	-30.548156	0.024044	-0.014190	0.999610	0.919626	0.392447	-0.016549	-0.392059	0.919665	0.022485	0	0	0
13514	0	0	0	0	0	9.835930	-0.099317	0.173346	0.008698	0.001024	0.003815	-0.739258	0.498291	-0.431152	0.599802	-0.390215	-0.580081	-0.389199	-36.398134	-88.399831	-30.498200	0.024061	-0.014172	0.999610	0.919597	0.392513	-0.016570	-0.392126	0.919637	0.022477	0	0	0
13515	0	0	0	0	0	9.824775	-0.102453	0.206121	0.009335	0.003108	0.004519	-0.736816	0.491455	-0.432373	0.599826	-0.390197	-0.580088	-0.389171	-36.423021	-88.398439	-30.468894	0.024089	-0.014172	0.999609	0.919566	0.392585	-0.016594	-0.392196	0.919607	0.022489	0	0	0
13516	0	0	0	0	0	9.839837	-0.121803	0.210154	0.007436	0.006042	0.005640	-0.737793	0.496338	-0.434814	0.599857	-0.390183	-0.580079	-0.389149	-36.438499	-88.395158	-30.449994	0.024143	-0.014193	0.999608	0.919542	0.392640	-0.016635	-0.392250	0.919583	0.022531	0	0	0
13517	0	0	0	0	0	9.831547	-0.093710	0.228835	0.007140	0.010533	0.000303	-0.736816	0.493408	-0.434814	0.599894	-0.390140	-0.580070	-0.389150	-36.301909	-88.391654	-30.582467	0.024163	-0.014280	0.999606	0.919514	0.392707	-0.016617	-0.392315	0.919553	0.022620	0	0	0
13518	0	0	0	0	0	9.821832	-0.134551	0.223140	0.008187	0.010317	0.004800	-0.737305	0.498535	-0.436768	0.599937	-0.390113	-0.580051	-0.389137	-36.251837	-88.386684	-30.628712	0.024226	-0.014344	0.999604	0.919487	0.392769	-0.016648	-0.392374	0.919525	0.022704	0	0	0
13519	0	0	0	0	0	9.780507	-0.099811	0.249296	0.003216	0.005025	0.000853	-0.743652	0.493896	-0.422363	0.599952	-0.390093	-0.580050	-0.389135	-36.194213	-88.385440	-30.684259	0.024231	-0.014378	0.999603	0.919472	0.392802	-0.016638	-0.392407	0.919511	0.022738	0	0	0
13520	0	0	0	0	0	9.809612	-0.084962	0.206125	0.004448	0.005401	0.001698	-0.734619	0.495117	-0.422363	0.599968	-0.390078	-0.580045	-0.389133	-36.154820	-88.383791	-30.721965	0.024246	-0.014409	0.999602	0.919461	0.392830	-0.016640	-0.392434	0.919498	0.022773	0	0	0
13521	0	0	0	0	0	9.817871	-0.113563	0.188786	0.003739	0.004918	0.003101	-0.739502	0.497559	-0.420166	0.599977	-0.390078	-0.580034	-0.389136	-36.141446	-88.382238	-30.735688	0.024266	-0.014429	0.999601	0.919463	0.392824	-0.016650	-0.392428	0.919500	0.022799	0	0	0
13522	0	0	0	0	0	9.828560	-0.126040	0.247099	0.002477	0.009936	0.004925	-0.744873	0.492920	-0.432129	0.600009	-0.390069	-0.580006	-0.389139	-36.101988	-88.377399	-30.774587	0.024329	-0.014488	0.999599	0.919458	0.392834	-0.016684	-0.392435	0.919495	0.022878	0	0	0
13523	0	0	0	0	0	9.824627	-0.104900	0.211891	0.005013	0.009086	0.004510	-0.735840	0.502441	-0.438477	0.600037	-0.390057	-0.579984	-0.389139	-36.059005	-88.373423	-30.816502	0.024378	-0.014542	0.999597	0.919450	0.392852	-0.016708	-0.392451	0.919487	0.022947	0	0	0
13524	0	0	0	0	0	9.847949	-0.152669	0.198263	0.006088	0.003478	0.006338	-0.743408	0.497314	-0.435059	0.600060	-0.390055	-0.579979	-0.389114	-36.117471	-88.371096	-30.755368	0.024428	-0.014536	0.999596	0.919431	0.392895	-0.016755	-0.392493	0.919468	0.022963	0	0	0
13525	0	0	0	0	0	9.839662	-0.124675	0.216549	0.004448	0.005401	0.001698	-0.735107	0.500488	-0.425293	0.600079	-0.390034	-0.579977	-0.389109	-36.071094	-88.369374	-30.799280	0.024443	-0.014570	0.999595	0.919414	0.392935	-0.016755	-0.392532	0.919451	0.023001	0	0	0
13526	0	0	0	0	0	9.843543	-0.146445	0.253277	0.001912	0.006252	0.002113	-0.745361	0.499023	-0.434326	0.600093	-0.390027	-0.579963	-0.389114	-36.030311	-88.367189	-30.839829	0.024465	-0.014607	0.999594	0.919412	0.392939	-0.016761	-0.392534	0.919449	0.023043	0	0	0
13527	0	0	0	0	0	9.842530	-0.094065	0.203107	0.001839	0.007854	0.004220	-0.742188	0.499512	-0.437744	0.600113	-0.390025	-0.579940	-0.389121	-36.001478	-88.363666	-30.869154	0.024510	-0.014651	0.999592	0.919415	0.392932	-0.016785	-0.392525	0.919451	0.023101	0	0	0
13528	0	0	0	0	0	9.832810	-0.135147	0.197222	0.000535	0.009080	0.005480	-0.736328	0.502197	-0.422607	0.600140	-0.390025	-0.579909	-0.389125	-35.983017	-88.359035	-30.888162	0.024575	-0.014701	0.999590	0.919417	0.392923	-0.016825	-0.392515	0.919454	0.023172	0	0	0
13529	0	0	0	0	0	9.846367	-0.116521	0.241120	0.001359	0.011754	0.002532	-0.743164	0.502930	-0.426758	0.600167	-0.390013	-0.579875	-0.389146	-35.882673	-88.354218	-30.989338	0.024621	-0.014787	0.999587	0.919422	0.392911	-0.016834	-0.392500	0.919458	0.023270	0	0	0
13530	0	0	0	0	0	9.821571	-0.138611	0.231952	0.001882	0.011648	0.004781	-0.738037	0.506836	-0.433594	0.600202	-0.390002	-0.579840	-0.389154	-35.822729	-88.348628	-31.049074	0.024689	-0.014863	0.999585	0.919420	0.392915	-0.016867	-0.392501	0.919455	0.023366	0	0	0
13531	0	0	0	0	0	9.854576	-0.145586	0.225638	0.003301	0.012613	0.001975	-0.743408	0.488770	-0.435791	0.600233	-0.389984	-0.579807	-0.389174	-35.706287	-88.343561	-31.165738	0.024734	-0.014959	0.999582	0.919421	0.392912	-0.016871	-0.392496	0.919454	0.023472	0	0	0
13532	0	0	0	0	0	9.821503	-0.139157	0.234494	0.003938	0.014699	0.002679	-0.737793	0.499023	-0.437012	0.600277	-0.389955	-0.579772	-0.389188	-35.577340	-88.337246	-31.293328	0.024795	-0.015072	0.999579	0.919411	0.392935	-0.016882	-0.392515	0.919443	0.023600	0	0	0
13533	0	0	0	0	0	9.897250	-0.112209	0.227364	-0.000698	0.008707	0.004632	-0.740967	0.499756	-0.427246	0.600302	-0.389949	-0.579746	-0.389194	-35.539741	-88.333159	-31.330885	0.024846	-0.015125	0.999577	0.919410	0.392937	-0.016908	-0.392515	0.919441	0.023669	0	0	0
13534	0	0	0	0	0	9.824368	-0.108653	0.221792	-0.001741	0.008921	0.000134	-0.738281	0.492432	-0.430664	0.600314	-0.389941	-0.579721	-0.389220	-35.440495	-88.330376	-31.432017	0.024861	-0.015194	0.999575	0.919423	0.392907	-0.016895	-0.392483	0.919453	0.023738	0	0	0
13535	0	0	0	0	0	9.832622	-0.137377	0.204906	-0.000771	0.010309	0.006738	-0.739502	0.501709	-0.430176	0.600341	-0.389948	-0.579681	-0.389231	-35.425111	-88.324954	-31.449203	0.024937	-0.015251	0.999573	0.919434	0.392879	-0.016943	-0.392452	0.919464	0.023819	0	0	0
13536	0	0	0	0	0	9.799554	-0.131167	0.213420	-0.001814	0.010524	0.002240	-0.742432	0.500977	-0.431885	0.600360	-0.389944	-0.579648	-0.389255	-35.342057	-88.320718	-31.534178	0.024977	-0.015327	0.999571	0.919447	0.392849	-0.016952	-0.392420	0.919475	0.023904	0	0	0
13537	0	0	0	0	0	9.821357	-0.140791	0.239607	-0.001177	0.012609	0.002944	-0.738037	0.497559	-0.433350	0.600386	-0.389938	-0.579606	-0.389284	-35.243708	-88.315375	-31.634796	0.025030	-0.015419	0.999568	0.919462	0.392813	-0.016964	-0.392382	0.919489	0.024010	0	0	0
13538	0	0	0	0	0	9.817486	-0.119467	0.204500	-0.001220	0.008815	0.002382	-0.735596	0.496338	-0.431152	0.600402	-0.389936	-0.579579	-0.389302	-35.182641	-88.311884	-31.697435	0.025065	-0.015479	0.999566	0.919472	0.392788	-0.016974	-0.392355	0.919499	0.024077	0	0	0
13539	0	0	0	0	0	9.821301	-0.141217	0.241629	-0.001104	0.011008	0.000837	-0.743896	0.493408	-0.423584	0.600422	-0.389922	-0.579549	-0.389330	-35.066632	-88.307918	-31.814862	0.025092	-0.015567	0.999564	0.919482	0.392766	-0.016965	-0.392331	0.919507	0.024168	0	0	0
13540	0	0	0	0	0	9.821274	-0.141261	0.242689	-0.002336	0.010633	-0.000010	-0.738525	0.498291	-0.431641	0.600437	-0.389912	-0.579518	-0.389362	-34.948740	-88.304354	-31.934990	0.025112	-0.015652	0.999562	0.919497	0.392731	-0.016951	-0.392294	0.919520	0.024254	0	0	0
13541	0	0	0	0	0	9.828017	-0.131882	0.265003	-0.000626	0.007107	0.002524	-0.733398	0.495850	-0.438477	0.600445	-0.389915	-0.579496	-0.389380	-34.903875	-88.301908	-31.981872	0.025135	-0.015695	0.999561	0.919511	0.392699	-0.016956	-0.392260	0.919533	0.024302	0	0	0
13542	0	0	0	0	0	9.834758	-0.122565	0.287233	0.003258	0.008823	0.001414	-0.738770	0.501221	-0.420898	0.600468	-0.389896	-0.579479	-0.389389	-34.826022	-88.298719	-32.058737	0.025161	-0.015758	0.999559	0.919504	0.392715	-0.016955	-0.392275	0.919525	0.024371	0	0	0
13543	0	0	0	0	0	9.839198	-0.129520	0.234079	0.001316	0.007965	0.001969	-0.744385	0.501953	-0.432129	0.600484	-0.389888	-0.579458	-0.389403	-34.764469	-88.295811	-32.121007	0.025187	-0.015813	0.999558	0.919508	0.392704	-0.016957	-0.392263	0.919529	0.024431	0	0	0
13544	0	0	0	0	0	9.817368	-0.120313	0.209609	0.001274	0.004170	0.001408	-0.745361	0.500488	-0.432617	0.600489	-0.389884	-0.579451	-0.389408	-34.739156	-88.294811	-32.146447	0.025195	-0.015833	0.999557	0.919509	0.392702	-0.016957	-0.392260	0.919529	0.024453	0	0	0
13545	0	0	0	0	0	9.827936	-0.132453	0.267733	0.001390	0.006363	-0.000138	-0.735596	0.499512	-0.434326	0.600496	-0.389873	-0.579441	-0.389426	-34.660403	-88.293474	-32.225804	0.025193	-0.015880	0.999556	0.919514	0.392693	-0.016936	-0.392250	0.919532	0.024495	0	0	0
13546	0	0	0	0	0	9.810582	-0.129974	0.189302	0.001910	0.006256	0.002112	-0.735596	0.503906	-0.432373	0.600510	-0.389865	-0.579427	-0.389431	-34.623178	-88.291259	-32.262797	0.025215	-0.015917	0.999555	0.919512	0.392697	-0.016942	-0.392253	0.919530	0.024538	0	0	0
13547	0	0	0	0	0	9.821135	-0.142261	0.247673	0.004489	0.009200	0.002260	-0.734375	0.502441	-0.428711	0.600538	-0.389845	-0.579409	-0.389436	-34.552261	-88.287517	-32.332258	0.025251	-0.015983	0.999553	0.919501	0.392721	-0.016949	-0.392275	0.919519	0.024613	0	0	0
13548	0	0	0	0	0	9.809014	-0.092560	0.229923	-0.001379	0.002830	0.003365	-0.734863	0.499268	-0.427246	0.600539	-0.389857	-0.579397	-0.389440	-34.574143	-88.286510	-32.312003	0.025271	-0.015983	0.999553	0.919512	0.392695	-0.016968	-0.392248	0.919530	0.024621	0	0	0
13549	0	0	0	0	0	9.837562	-0.092909	0.276882	0.002951	0.006043	0.006610	-0.737549	0.495605	-0.427246	0.600559	-0.389866	-0.579374	-0.389435	-34.609472	-88.282964	-32.277017	0.025333	-0.016001	0.999551	0.919513	0.392690	-0.017019	-0.392242	0.919532	0.024661	0	0	0
13550	0	0	0	0	0	9.812784	-0.115078	0.267167	-0.000626	0.007108	0.002523	-0.739502	0.497070	-0.435303	0.600572	-0.389865	-0.579352	-0.389448	-34.571224	-88.280213	-32.316487	0.025363	-0.016044	0.999550	0.919521	0.392671	-0.017029	-0.392221	0.919539	0.024712	0	0	0
13551	0	0	0	0	0	9.845813	-0.122006	0.260244	0.000563	0.003689	0.002809	-0.736816	0.493896	-0.437500	0.600577	-0.389868	-0.579343	-0.389451	-34.567250	-88.279122	-32.321034	0.025378	-0.016056	0.999549	0.919525	0.392662	-0.017038	-0.392211	0.919543	0.024729	0	0	0
13552	0	0	0	0	0	9.832291	-0.141367	0.217687	-0.000148	0.003206	0.004211	-0.734863	0.491699	-0.434326	0.600582	-0.389878	-0.579331	-0.389450	-34.597537	-88.277663	-32.291665	0.025407	-0.016057	0.999548	0.919531	0.392647	-0.017066	-0.392196	0.919549	0.024741	0	0	0
13553	0	0	0	0	0	9.857037	-0.119911	0.228354	-0.001900	0.002938	0.001115	-0.728271	0.499268	-0.430664	0.600582	-0.389876	-0.579327	-0.389458	-34.572058	-88.277357	-32.317753	0.025405	-0.016071	0.999548	0.919535	0.392638	-0.017058	-0.392186	0.919553	0.024753	0	0	0
13554	0	0	0	0	0	9.845775	-0.122718	0.261339	-0.003088	0.006358	0.000828	-0.739258	0.497803	-0.433350	0.600585	-0.389880	-0.579307	-0.389482	-34.516932	-88.275510	-32.375520	0.025416	-0.016114	0.999547	0.919553	0.392596	-0.017052	-0.392143	0.919570	0.024796	0	0	0
13555	0	0	0	0	0	9.817216	-0.122831	0.215205	-0.005593	0.001811	-0.001427	-0.739014	0.498291	-0.435303	0.600564	-0.389892	-0.579298	-0.389512	-34.472925	-88.276500	-32.423714	0.025388	-0.016126	0.999548	0.919582	0.392528	-0.017024	-0.392076	0.919599	0.024795	0	0	0
13556	0	0	0	0	0	9.860799	-0.141534	0.265808	-0.001146	0.007216	0.000273	-0.743408	0.493408	-0.433350	0.600572	-0.389887	-0.579280	-0.389534	-34.398895	-88.274423	-32.499281	0.025397	-0.016179	0.999547	0.919593	0.392504	-0.017012	-0.392051	0.919608	0.024847	0	0	0
13557	0	0	0	0	0	9.805938	-0.125493	0.248838	-0.008087	0.006460	-0.000455	-0.737793	0.488770	-0.437988	0.600564	-0.389896	-0.579254	-0.389575	-34.316376	-88.273091	-32.586765	0.025392	-0.016230	0.999546	0.919627	0.392425	-0.016989	-0.391971	0.919641	0.024890	0	0	0
13558	0	0	0	0	0	9.838975	-0.132321	0.241760	-0.000786	0.001121	0.003508	-0.738037	0.493652	-0.435303	0.600561	-0.389911	-0.579249	-0.389574	-34.358447	-88.272849	-32.545971	0.025407	-0.016215	0.999546	0.919636	0.392404	-0.017010	-0.391950	0.919650	0.024881	0	0	0
13559	0	0	0	0	0	9.827703	-0.135284	0.274755	-0.002451	0.008444	0.001532	-0.735840	0.502197	-0.428711	0.600577	-0.389899	-0.579228	-0.389592	-34.278896	-88.269869	-32.626200	0.025428	-0.016278	0.999544	0.919640	0.392394	-0.017005	-0.391938	0.919653	0.024948	0	0	0
13560	0	0	0	0	0	9.823900	-0.113749	0.239261	-0.001783	0.005131	-0.000431	-0.738770	0.498291	-0.435547	0.600576	-0.389898	-0.579216	-0.389613	-34.216928	-88.268999	-32.690064	0.025422	-0.016315	0.999544	0.919653	0.392363	-0.016986	-0.391907	0.919666	0.024979	0	0	0
13561	0	0	0	0	0	9.832185	-0.142096	0.221942	-0.001783	0.005131	-0.000431	-0.740723	0.501953	-0.427490	0.600573	-0.389897	-0.579202	-0.389637	-34.151404	-88.268154	-32.757854	0.025415	-0.016353	0.999543	0.919669	0.392327	-0.016966	-0.391871	0.919680	0.025010	0	0	0
13562	0	0	0	0	0	9.823881	-0.113646	0.240078	-0.001825	0.001335	-0.000991	-0.739502	0.494873	-0.434570	0.600560	-0.389901	-0.579203	-0.389653	-34.121128	-88.269261	-32.790036	0.025390	-0.016357	0.999544	0.919683	0.392296	-0.016942	-0.391840	0.919693	0.025003	0	0	0
13563	0	0	0	0	0	9.832178	-0.142152	0.222230	-0.003365	-0.001823	0.003358	-0.739990	0.502686	-0.429688	0.600541	-0.389929	-0.579201	-0.389657	-34.188376	-88.270627	-32.725951	0.025388	-0.016315	0.999545	0.919704	0.392245	-0.016958	-0.391790	0.919716	0.024964	0	0	0
13564	0	0	0	0	0	9.847216	-0.161232	0.225957	0.000042	0.003796	0.000561	-0.740967	0.489746	-0.433838	0.600542	-0.389927	-0.579194	-0.389667	-34.155150	-88.270069	-32.760013	0.025387	-0.016336	0.999544	0.919710	0.392232	-0.016949	-0.391777	0.919721	0.024982	0	0	0
13565	0	0	0	0	0	9.830610	-0.104433	0.262019	-0.003014	0.004756	-0.001278	-0.728760	0.501221	-0.442139	0.600534	-0.389926	-0.579184	-0.389696	-34.077159	-88.269832	-32.840612	0.025367	-0.016374	0.999544	0.919729	0.392190	-0.016917	-0.391735	0.919738	0.025008	0	0	0
13566	0	0	0	0	0	9.838900	-0.132674	0.244621	-0.000477	0.003903	-0.001689	-0.737061	0.502441	-0.429688	0.600530	-0.389919	-0.579180	-0.389714	-34.007784	-88.269943	-32.911137	0.025345	-0.016404	0.999544	0.919737	0.392172	-0.016886	-0.391716	0.919746	0.025027	0	0	0
13567	0	0	0	0	0	9.835928	-0.163754	0.259574	-0.001306	0.001228	0.001258	-0.742188	0.497314	-0.437744	0.600524	-0.389926	-0.579177	-0.389721	-34.010417	-88.270164	-32.909794	0.025343	-0.016401	0.999544	0.919746	0.392151	-0.016885	-0.391695	0.919755	0.025023	0	0	0
13568	0	0	0	0	0	9.832143	-0.142257	0.223726	0.003215	0.005029	0.000854	-0.735596	0.493652	-0.429199	0.600535	-0.389913	-0.579173	-0.389724	-33.966985	-88.268922	-32.952248	0.025349	-0.016432	0.999544	0.919739	0.392167	-0.016878	-0.391711	0.919747	0.025054	0	0	0
13569	0	0	0	0	0	9.856883	-0.120554	0.234554	0.004521	0.003802	-0.000404	-0.732910	0.494629	-0.437012	0.600543	-0.389891	-0.579179	-0.389723	-33.907588	-88.268784	-33.009480	0.025334	-0.016458	0.999544	0.919725	0.392202	-0.016853	-0.391745	0.919732	0.025073	0	0	0
13570	0	0	0	0	0	9.825383	-0.151646	0.203198	0.004638	0.005995	-0.001950	-0.740479	0.505859	-0.430176	0.600554	-0.389863	-0.579180	-0.389732	-33.809142	-88.267975	-33.106159	0.025318	-0.016509	0.999543	0.919713	0.392230	-0.016818	-0.391773	0.919719	0.025114	0	0	0
13571	0	0	0	0	0	9.805795	-0.125974	0.254144	0.001909	0.006258	0.002112	-0.729004	0.501221	-0.434326	0.600569	-0.389855	-0.579167	-0.389739	-33.769406	-88.265719	-33.145733	0.025340	-0.016548	0.999542	0.919712	0.392233	-0.016822	-0.391775	0.919717	0.025158	0	0	0
13572	0	0	0	0	0	9.823782	-0.113861	0.243992	0.006548	0.012253	0.000162	-0.738525	0.503418	-0.427490	0.600606	-0.389816	-0.579148	-0.389748	-33.637775	-88.261248	-33.274516	0.025368	-0.016647	0.999540	0.919692	0.392280	-0.016808	-0.391819	0.919695	0.025262	0	0	0
13573	0	0	0	0	0	9.838801	-0.132938	0.248420	0.005559	0.003588	0.004094	-0.741455	0.500732	-0.437256	0.600621	-0.389812	-0.579143	-0.389736	-33.659120	-88.259588	-33.251645	0.025399	-0.016653	0.999539	0.919681	0.392304	-0.016833	-0.391843	0.919685	0.025280	0	0	0
13574	0	0	0	0	0	9.835031	-0.111554	0.212498	0.003173	0.001234	0.000294	-0.734619	0.499023	-0.429443	0.600620	-0.389805	-0.579151	-0.389733	-33.647064	-88.260327	-33.262734	0.025385	-0.016651	0.999539	0.919675	0.392320	-0.016821	-0.391859	0.919678	0.025272	0	0	0
13575	0	0	0	0	0	9.847091	-0.161500	0.231127	0.000754	0.004279	-0.000842	-0.740234	0.506592	-0.432861	0.600620	-0.389796	-0.579147	-0.389748	-33.582093	-88.260007	-33.328279	0.025370	-0.016683	0.999539	0.919679	0.392311	-0.016795	-0.391850	0.919681	0.025296	0	0	0
13576	0	0	0	0	0	9.838777	-0.133173	0.249227	-0.000075	0.001604	0.002105	-0.738037	0.501709	-0.433105	0.600617	-0.389803	-0.579144	-0.389750	-33.596473	-88.259995	-33.314782	0.025374	-0.016677	0.999539	0.919685	0.392297	-0.016802	-0.391835	0.919688	0.025292	0	0	0
13577	0	0	0	0	0	9.856788	-0.121035	0.238285	0.001942	0.000858	-0.000554	-0.744629	0.505127	-0.429932	0.600608	-0.389801	-0.579150	-0.389757	-33.574241	-88.261182	-33.337475	0.025350	-0.016676	0.999540	0.919689	0.392289	-0.016780	-0.391829	0.919691	0.025281	0	0	0
13578	0	0	0	0	0	9.808693	-0.095521	0.242076	-0.000712	-0.000482	0.001402	-0.731689	0.495117	-0.431396	0.600597	-0.389812	-0.579153	-0.389759	-33.599724	-88.262389	-33.313235	0.025340	-0.016654	0.999540	0.919698	0.392269	-0.016780	-0.391809	0.919700	0.025256	0	0	0
13579	0	0	0	0	0	9.838771	-0.133410	0.249341	-0.004479	-0.000005	0.000964	-0.732666	0.503418	-0.427979	0.600575	-0.389835	-0.579147	-0.389778	-33.612313	-88.263605	-33.304733	0.025325	-0.016638	0.999541	0.919726	0.392203	-0.016774	-0.391744	0.919728	0.025235	0	0	0
13580	0	0	0	0	0	9.790673	-0.107935	0.253296	0.000042	0.003797	0.000560	-0.726563	0.497314	-0.439941	0.600576	-0.389833	-0.579140	-0.389788	-33.579392	-88.263036	-33.338491	0.025323	-0.016659	0.999541	0.919732	0.392190	-0.016765	-0.391730	0.919734	0.025253	0	0	0
13581	0	0	0	0	0	9.820737	-0.145634	0.261132	-0.001665	0.007325	-0.001978	-0.739746	0.495605	-0.434814	0.600580	-0.389821	-0.579124	-0.389818	-33.468319	-88.261367	-33.451311	0.025314	-0.016724	0.999540	0.919744	0.392162	-0.016732	-0.391702	0.919744	0.025310	0	0	0
13582	0	0	0	0	0	9.823702	-0.114444	0.246928	-0.006898	0.003041	-0.000172	-0.741211	0.496338	-0.436279	0.600564	-0.389840	-0.579108	-0.389850	-33.435802	-88.261388	-33.488644	0.025303	-0.016741	0.999540	0.919777	0.392085	-0.016717	-0.391624	0.919777	0.025319	0	0	0
13583	0	0	0	0	0	9.832001	-0.143010	0.229377	-0.007091	0.002451	0.003479	-0.735352	0.500244	-0.431396	0.600554	-0.389865	-0.579089	-0.389867	-33.457359	-88.260655	-33.471232	0.025319	-0.016740	0.999539	0.919805	0.392018	-0.016734	-0.391557	0.919805	0.025323	0	0	0
13584	0	0	0	0	0	9.820704	-0.145981	0.262193	-0.004437	0.003792	0.001523	-0.734375	0.503662	-0.436035	0.600548	-0.389879	-0.579072	-0.389888	-33.442327	-88.259781	-33.489660	0.025326	-0.016757	0.999539	0.919828	0.391964	-0.016736	-0.391503	0.919828	0.025340	0	0	0
13585	0	0	0	0	0	9.847020	-0.162180	0.233652	-0.002419	0.003046	-0.001136	-0.736328	0.504395	-0.432861	0.600538	-0.389881	-0.579065	-0.389911	-33.389455	-88.260012	-33.544993	0.025307	-0.016779	0.999539	0.919846	0.391924	-0.016710	-0.391463	0.919844	0.025352	0	0	0
13586	0	0	0	0	0	9.813957	-0.155454	0.241442	0.001985	0.004655	0.000006	-0.734131	0.508057	-0.436768	0.600544	-0.389870	-0.579061	-0.389919	-33.337954	-88.259203	-33.596226	0.025304	-0.016809	0.999538	0.919844	0.391929	-0.016695	-0.391467	0.919842	0.025379	0	0	0
13587	0	0	0	0	0	9.846999	-0.162185	0.234552	0.000678	0.005883	0.001264	-0.742432	0.496582	-0.429932	0.600552	-0.389867	-0.579045	-0.389932	-33.294359	-88.257233	-33.640779	0.025319	-0.016848	0.999537	0.919851	0.391914	-0.016695	-0.391451	0.919848	0.025420	0	0	0
13588	0	0	0	0	0	9.805617	-0.127469	0.260198	0.008613	0.002628	0.005936	-0.743164	0.496094	-0.433838	0.600577	-0.389857	-0.579049	-0.389899	-33.353389	-88.255526	-33.577631	0.025362	-0.016837	0.999537	0.919821	0.391980	-0.016737	-0.391517	0.919820	0.025428	0	0	0
13589	0	0	0	0	0	9.830351	-0.106206	0.270875	0.008095	0.002735	0.003686	-0.731689	0.498779	-0.431641	0.600595	-0.389841	-0.579057	-0.389877	-33.367903	-88.254743	-33.559352	0.025379	-0.016836	0.999536	0.919795	0.392041	-0.016751	-0.391577	0.919794	0.025435	0	0	0
13590	0	0	0	0	0	9.845376	-0.125492	0.274717	0.004210	0.001020	0.004793	-0.735107	0.496094	-0.429932	0.600603	-0.389844	-0.579058	-0.389857	-33.428021	-88.254164	-33.497639	0.025406	-0.016814	0.999536	0.919784	0.392066	-0.016783	-0.391602	0.919783	0.025426	0	0	0
13591	0	0	0	0	0	9.827347	-0.138036	0.285907	0.009401	0.001507	0.002428	-0.742676	0.503418	-0.432617	0.600618	-0.389824	-0.579073	-0.389832	-33.438762	-88.254120	-33.482592	0.025411	-0.016808	0.999536	0.919754	0.392135	-0.016789	-0.391671	0.919754	0.025424	0	0	0
13592	0	0	0	0	0	9.820609	-0.147789	0.264714	0.010037	0.003594	0.003132	-0.730713	0.503174	-0.430664	0.600643	-0.389800	-0.579081	-0.389806	-33.442785	-88.252833	-33.473660	0.025432	-0.016816	0.999535	0.919720	0.392214	-0.016803	-0.391750	0.919720	0.025441	0	0	0
13593	0	0	0	0	0	9.852068	-0.116944	0.296954	0.016265	0.003869	0.005265	-0.740723	0.500244	-0.437500	0.600682	-0.389767	-0.579094	-0.389760	-33.472731	-88.250736	-33.436045	0.025474	-0.016820	0.999534	0.919667	0.392338	-0.016836	-0.391872	0.919667	0.025463	0	0	0
13594	0	0	0	0	0	9.813845	-0.158140	0.244215	0.015077	0.007292	0.004976	-0.736816	0.492676	-0.436035	0.600730	-0.389726	-0.579098	-0.389721	-33.464437	-88.247099	-33.436546	0.025527	-0.016855	0.999532	0.919613	0.392464	-0.016867	-0.391996	0.919613	0.025518	0	0	0
13595	0	0	0	0	0	9.853596	-0.155781	0.259139	0.011946	0.009856	0.005239	-0.738037	0.499756	-0.437500	0.600784	-0.389683	-0.579091	-0.389691	-33.426361	-88.242200	-33.467730	0.025589	-0.016916	0.999529	0.919565	0.392575	-0.016898	-0.392104	0.919564	0.025601	0	0	0
13596	0	0	0	0	0	9.805474	-0.130467	0.264089	0.012895	0.014725	0.000744	-0.732666	0.499023	-0.434326	0.600841	-0.389622	-0.579076	-0.389685	-33.277502	-88.236339	-33.610114	0.025632	-0.017036	0.999526	0.919520	0.392680	-0.016887	-0.392206	0.919517	0.025730	0	0	0
13597	0	0	0	0	0	9.851931	-0.118444	0.300894	0.010639	0.011088	0.006495	-0.740967	0.502930	-0.432129	0.600897	-0.389588	-0.579058	-0.389661	-33.251615	-88.230341	-33.630377	0.025713	-0.017103	0.999523	0.919480	0.392771	-0.016933	-0.392294	0.919477	0.025825	0	0	0
13598	0	0	0	0	0	9.844472	-0.075647	0.229426	0.008331	0.007125	0.000591	-0.727295	0.500488	-0.433838	0.600924	-0.389555	-0.579058	-0.389653	-33.181411	-88.228160	-33.696685	0.025725	-0.017154	0.999522	0.919454	0.392834	-0.016922	-0.392356	0.919449	0.025878	0	0	0
13599	0	0	0	0	0	9.806792	-0.062303	0.291613	0.006948	0.009960	0.003951	-0.737061	0.493652	-0.426270	0.600961	-0.389532	-0.579038	-0.389649	-33.133687	-88.223509	-33.741787	0.025779	-0.017219	0.999519	0.919435	0.392877	-0.016945	-0.392396	0.919430	0.025960	0	0	0
13600	0	0	0	0	0	9.815066	-0.091040	0.275034	0.007703	0.014241	0.003106	-0.729492	0.503418	-0.437988	0.601011	-0.389494	-0.579010	-0.389650	-33.031569	-88.217120	-33.840385	0.025841	-0.017326	0.999516	0.919410	0.392934	-0.016959	-0.392450	0.919403	0.026083	0	0	0
13601	0	0	0	0	0	9.815026	-0.091243	0.276401	0.005243	0.013489	0.001410	-0.737305	0.497559	-0.431152	0.601051	-0.389461	-0.578982	-0.389664	-32.909350	-88.211619	-33.960815	0.025885	-0.017434	0.999513	0.919398	0.392964	-0.016956	-0.392477	0.919389	0.026200	0	0	0
13602	0	0	0	0	0	9.830006	-0.110398	0.281517	0.006396	0.015473	0.004361	-0.738525	0.491455	-0.440918	0.601105	-0.389429	-0.578945	-0.389667	-32.816515	-88.204236	-34.050874	0.025964	-0.017546	0.999509	0.919378	0.393010	-0.016983	-0.392519	0.919367	0.026336	0	0	0
13603	0	0	0	0	0	9.836660	-0.101259	0.304605	0.002036	0.017662	0.003774	-0.738037	0.499756	-0.433105	0.601158	-0.389397	-0.578898	-0.389687	-32.686761	-88.196081	-34.179575	0.026042	-0.017685	0.999504	0.919369	0.393028	-0.017000	-0.392532	0.919356	0.026494	0	0	0
13604	0	0	0	0	0	9.829908	-0.111130	0.284618	0.002587	0.012151	0.003364	-0.731689	0.498291	-0.425781	0.601193	-0.389379	-0.578866	-0.389698	-32.614997	-88.190598	-34.250738	0.026099	-0.017771	0.999501	0.919365	0.393038	-0.017019	-0.392540	0.919350	0.026596	0	0	0
13605	0	0	0	0	0	9.823169	-0.120779	0.264493	-0.001577	0.014927	-0.000875	-0.732666	0.500000	-0.431641	0.601216	-0.389361	-0.578823	-0.389745	-32.452185	-88.185193	-34.416398	0.026125	-0.017899	0.999498	0.919384	0.392994	-0.016993	-0.392492	0.919367	0.026724	0	0	0
13606	0	0	0	0	0	9.814809	-0.092397	0.283627	-0.000466	0.013111	0.001521	-0.740234	0.492676	-0.432129	0.601244	-0.389345	-0.578786	-0.389772	-32.345979	-88.179802	-34.523771	0.026169	-0.018002	0.999495	0.919392	0.392976	-0.016994	-0.392471	0.919373	0.026835	0	0	0
13607	0	0	0	0	0	9.823100	-0.120711	0.267063	-0.002135	0.011233	-0.003681	-0.740723	0.488037	-0.434326	0.601252	-0.389323	-0.578761	-0.389819	-32.174328	-88.177052	-34.697841	0.026154	-0.018108	0.999494	0.919409	0.392937	-0.016939	-0.392432	0.919387	0.026926	0	0	0
13608	0	0	0	0	0	9.820040	-0.151613	0.283021	0.000246	0.013594	0.000119	-0.732178	0.503418	-0.435791	0.601281	-0.389300	-0.578726	-0.389849	-32.043085	-88.171836	-34.829856	0.026187	-0.018221	0.999491	0.919414	0.392926	-0.016926	-0.392417	0.919390	0.027042	0	0	0
13609	0	0	0	0	0	9.841083	-0.108339	0.258541	0.002783	0.012741	-0.000288	-0.735107	0.493408	-0.437256	0.601312	-0.389267	-0.578702	-0.389871	-31.905346	-88.167232	-34.966517	0.026209	-0.018329	0.999488	0.919407	0.392944	-0.016903	-0.392433	0.919380	0.027151	0	0	0
13610	0	0	0	0	0	9.831332	-0.148976	0.253053	0.002069	0.012260	0.001113	-0.740967	0.502197	-0.436768	0.601342	-0.389244	-0.578673	-0.389890	-31.802164	-88.162347	-35.069412	0.026246	-0.018425	0.999486	0.919405	0.392949	-0.016899	-0.392436	0.919376	0.027253	0	0	0
13611	0	0	0	0	0	9.829650	-0.111072	0.293416	0.003376	0.011030	-0.000142	-0.741943	0.499756	-0.433350	0.601370	-0.389212	-0.578655	-0.389907	-31.683936	-88.158483	-35.186147	0.026263	-0.018517	0.999484	0.919395	0.392974	-0.016878	-0.392458	0.919363	0.027346	0	0	0
13612	0	0	0	0	0	9.811563	-0.123243	0.305596	0.006549	0.012266	0.000153	-0.743652	0.497559	-0.437500	0.601407	-0.389173	-0.578636	-0.389916	-31.564676	-88.153869	-35.302561	0.026291	-0.018617	0.999481	0.919375	0.393020	-0.016864	-0.392502	0.919341	0.027449	0	0	0
13613	0	0	0	0	0	9.822907	-0.120766	0.274058	0.004365	0.007020	0.003802	-0.739746	0.497314	-0.433838	0.601430	-0.389160	-0.578623	-0.389912	-31.543831	-88.150923	-35.321824	0.026327	-0.018656	0.999479	0.919364	0.393046	-0.016880	-0.392526	0.919330	0.027499	0	0	0
13614	0	0	0	0	0	9.822874	-0.121102	0.275088	0.001991	0.013869	0.003214	-0.734375	0.496582	-0.425293	0.601469	-0.389140	-0.578585	-0.389929	-31.459411	-88.144602	-35.405993	0.026390	-0.018758	0.999476	0.919361	0.393051	-0.016897	-0.392528	0.919325	0.027618	0	0	0
13615	0	0	0	0	0	9.804783	-0.133620	0.287143	0.004365	0.007021	0.003802	-0.728760	0.495361	-0.432861	0.601489	-0.389132	-0.578569	-0.389929	-31.441837	-88.141675	-35.422857	0.026426	-0.018796	0.999474	0.919356	0.393063	-0.016916	-0.392538	0.919319	0.027667	0	0	0
13616	0	0	0	0	0	9.834205	-0.119117	0.244222	0.003730	0.004932	0.003100	-0.728516	0.509277	-0.430664	0.601505	-0.389124	-0.578562	-0.389923	-31.437511	-88.139754	-35.425893	0.026452	-0.018816	0.999473	0.919347	0.393084	-0.016931	-0.392558	0.919310	0.027697	0	0	0
13617	0	0	0	0	0	9.826427	-0.143551	0.313473	0.001907	0.006267	0.002104	-0.739502	0.505859	-0.435547	0.601517	-0.389122	-0.578544	-0.389934	-31.408138	-88.137346	-35.456038	0.026476	-0.018855	0.999472	0.919352	0.393072	-0.016939	-0.392545	0.919314	0.027741	0	0	0
13618	0	0	0	0	0	9.855850	-0.128999	0.270704	0.003771	0.008734	0.003654	-0.738037	0.495117	-0.437256	0.601545	-0.389108	-0.578524	-0.389934	-31.377320	-88.133400	-35.485557	0.026523	-0.018908	0.999469	0.919342	0.393093	-0.016960	-0.392564	0.919304	0.027809	0	0	0
13619	0	0	0	0	0	9.816080	-0.132247	0.257295	0.003651	0.006540	0.005203	-0.736328	0.492188	-0.428711	0.601569	-0.389103	-0.578508	-0.389926	-31.384756	-88.130123	-35.476933	0.026572	-0.018937	0.999468	0.919333	0.393113	-0.016993	-0.392582	0.919295	0.027856	0	0	0
13620	0	0	0	0	0	9.819669	-0.154090	0.294350	0.002663	0.010551	0.001257	-0.734863	0.500977	-0.432373	0.601596	-0.389082	-0.578485	-0.389940	-31.302319	-88.126002	-35.558733	0.026603	-0.019017	0.999465	0.919329	0.393124	-0.016990	-0.392591	0.919289	0.027941	0	0	0
13621	0	0	0	0	0	9.817963	-0.116532	0.334409	0.000399	0.006913	0.007008	-0.742188	0.496582	-0.432373	0.601615	-0.389094	-0.578456	-0.389941	-31.335895	-88.122128	-35.526435	0.026669	-0.019041	0.999463	0.919336	0.393104	-0.017042	-0.392568	0.919297	0.027989	0	0	0
13622	0	0	0	0	0	9.851012	-0.123644	0.327688	0.006980	0.004560	0.001294	-0.732178	0.492676	-0.431641	0.601633	-0.389072	-0.578459	-0.389931	-31.306279	-88.120926	-35.552912	0.026677	-0.019066	0.999462	0.919314	0.393155	-0.017038	-0.392618	0.919275	0.028016	0	0	0
13623	0	0	0	0	0	9.844332	-0.133415	0.306571	0.002379	0.002362	0.003800	-0.741211	0.497314	-0.433594	0.601638	-0.389074	-0.578456	-0.389924	-31.329580	-88.120273	-35.529271	0.026695	-0.019062	0.999462	0.919312	0.393160	-0.017055	-0.392624	0.919272	0.028019	0	0	0
13624	0	0	0	0	0	9.841261	-0.164714	0.321523	0.004401	0.001613	0.001145	-0.737061	0.505127	-0.430908	0.601642	-0.389065	-0.578464	-0.389916	-31.325990	-88.120559	-35.531187	0.026690	-0.019060	0.999462	0.919300	0.393187	-0.017051	-0.392651	0.919261	0.028016	0	0	0
13625	0	0	0	0	0	9.840710	-0.112369	0.270733	0.006145	0.001886	0.004244	-0.739990	0.488525	-0.436523	0.601652	-0.389064	-0.578466	-0.389900	-31.362181	-88.119946	-35.493261	0.026711	-0.019048	0.999462	0.919288	0.393215	-0.017074	-0.392678	0.919249	0.028014	0	0	0
13626	0	0	0	0	0	9.837633	-0.143711	0.285854	0.004444	0.005415	0.001698	-0.737061	0.496582	-0.435059	0.601668	-0.389049	-0.578461	-0.389897	-31.332304	-88.118206	-35.521454	0.026726	-0.019079	0.999461	0.919276	0.393242	-0.017076	-0.392704	0.919237	0.028049	0	0	0
13627	0	0	0	0	0	9.822613	-0.125118	0.282523	0.003608	0.002740	0.004648	-0.742676	0.492920	-0.437500	0.601682	-0.389044	-0.578460	-0.389881	-31.360627	-88.117087	-35.491138	0.026752	-0.019076	0.999460	0.919262	0.393274	-0.017100	-0.392736	0.919223	0.028057	0	0	0
13628	0	0	0	0	0	9.840666	-0.113103	0.272042	0.005279	0.008090	-0.001252	-0.739014	0.500488	-0.429199	0.601701	-0.389013	-0.578455	-0.389891	-31.262224	-88.114916	-35.587414	0.026751	-0.019143	0.999459	0.919248	0.393309	-0.017071	-0.392769	0.919207	0.028119	0	0	0
13629	0	0	0	0	0	9.797843	-0.146907	0.273333	0.010867	0.006278	0.000188	-0.742188	0.497314	-0.444580	0.601727	-0.388972	-0.578463	-0.389879	-31.191592	-88.113444	-35.652969	0.026750	-0.019189	0.999458	0.919213	0.393391	-0.017050	-0.392850	0.919171	0.028162	0	0	0
13630	0	0	0	0	0	9.822551	-0.125475	0.284518	0.004285	0.008633	0.005901	-0.735596	0.500000	-0.428955	0.601760	-0.388964	-0.578440	-0.389870	-31.195562	-88.108878	-35.647386	0.026817	-0.019232	0.999455	0.919201	0.393417	-0.017093	-0.392874	0.919159	0.028229	0	0	0
13631	0	0	0	0	0	9.815862	-0.135452	0.263874	0.006308	0.007883	0.003247	-0.735840	0.496582	-0.438965	0.601790	-0.388941	-0.578429	-0.389863	-31.159395	-88.105549	-35.680665	0.026853	-0.019282	0.999453	0.919181	0.393464	-0.017105	-0.392919	0.919138	0.028289	0	0	0
13632	0	0	0	0	0	9.829158	-0.116678	0.307413	0.007494	0.004458	0.003543	-0.742432	0.495850	-0.438477	0.601813	-0.388924	-0.578430	-0.389844	-31.164048	-88.103729	-35.672560	0.026881	-0.019297	0.999452	0.919157	0.393520	-0.017124	-0.392974	0.919114	0.028315	0	0	0
13633	0	0	0	0	0	9.807489	-0.107588	0.282442	0.006223	0.000278	0.002142	-0.736572	0.492676	-0.434326	0.601821	-0.388909	-0.578446	-0.389823	-31.177221	-88.104456	-35.655904	0.026876	-0.019281	0.999453	0.919133	0.393576	-0.017124	-0.393030	0.919090	0.028300	0	0	0
13634	0	0	0	0	0	9.840562	-0.114473	0.275190	0.004994	-0.000099	0.001293	-0.733643	0.493164	-0.435547	0.601821	-0.388902	-0.578460	-0.389809	-31.190817	-88.105538	-35.640284	0.026866	-0.019263	0.999453	0.919119	0.393608	-0.017121	-0.393063	0.919077	0.028280	0	0	0
13635	0	0	0	0	0	9.818899	-0.105227	0.250141	0.003808	0.003326	0.000996	-0.732910	0.500732	-0.441406	0.601829	-0.388887	-0.578463	-0.389806	-31.161554	-88.105147	-35.667758	0.026863	-0.019280	0.999453	0.919107	0.393637	-0.017110	-0.393091	0.919064	0.028294	0	0	0
13636	0	0	0	0	0	9.822482	-0.126867	0.286263	0.001065	-0.005619	0.001846	-0.736084	0.493896	-0.437256	0.601807	-0.388904	-0.578485	-0.389791	-31.235190	-88.108769	-35.594318	0.026836	-0.019209	0.999455	0.919108	0.393633	-0.017113	-0.393090	0.919067	0.028218	0	0	0
13637	0	0	0	0	0	9.833904	-0.124297	0.253572	-0.001822	0.001335	-0.000997	-0.734131	0.499023	-0.434326	0.601797	-0.388902	-0.578487	-0.389805	-31.198903	-88.109760	-35.631741	0.026809	-0.019216	0.999456	0.919117	0.393614	-0.017087	-0.393072	0.919075	0.028214	0	0	0
13638	0	0	0	0	0	9.829141	-0.117350	0.307680	0.000636	0.002090	0.000700	-0.738037	0.493408	-0.429932	0.601794	-0.388902	-0.578487	-0.389810	-31.186545	-88.109944	-35.644588	0.026803	-0.019220	0.999456	0.919120	0.393607	-0.017079	-0.393064	0.919078	0.028215	0	0	0
13639	0	0	0	0	0	9.845317	-0.121641	0.221304	0.001308	-0.001232	-0.001253	-0.736328	0.500977	-0.437744	0.601776	-0.388903	-0.578501	-0.389816	-31.169496	-88.112495	-35.662223	0.026760	-0.019203	0.999457	0.919125	0.393597	-0.017047	-0.393056	0.919083	0.028182	0	0	0
13640	0	0	0	0	0	9.840561	-0.114759	0.275095	0.001107	-0.001816	0.002398	-0.741943	0.500000	-0.433594	0.601766	-0.388914	-0.578510	-0.389807	-31.217295	-88.114090	-35.614610	0.026754	-0.019164	0.999458	0.919126	0.393594	-0.017056	-0.393053	0.919085	0.028144	0	0	0
13641	0	0	0	0	0	9.833902	-0.124621	0.253497	0.003565	-0.001061	0.004095	-0.743652	0.492432	-0.432373	0.601765	-0.388922	-0.578518	-0.389790	-31.277735	-88.114895	-35.553274	0.026763	-0.019127	0.999459	0.919120	0.393608	-0.017079	-0.393068	0.919079	0.028114	0	0	0
13642	0	0	0	0	0	9.833899	-0.125055	0.253416	0.004793	-0.000683	0.004944	-0.733398	0.500732	-0.436035	0.601771	-0.388927	-0.578525	-0.389764	-31.351180	-88.115174	-35.477888	0.026784	-0.019089	0.999459	0.919106	0.393639	-0.017112	-0.393099	0.919067	0.028088	0	0	0
13643	0	0	0	0	0	9.815813	-0.137673	0.264544	0.003607	0.002742	0.004647	-0.735352	0.501953	-0.442627	0.601782	-0.388928	-0.578522	-0.389752	-31.383399	-88.114028	-35.444567	0.026811	-0.019085	0.999458	0.919098	0.393657	-0.017139	-0.393116	0.919059	0.028096	0	0	0
13644	0	0	0	0	0	9.851960	-0.113763	0.242610	-0.000201	-0.000584	0.003651	-0.735596	0.495361	-0.433594	0.601775	-0.388944	-0.578522	-0.389746	-31.439587	-88.114640	-35.389311	0.026821	-0.019053	0.999459	0.919104	0.393642	-0.017161	-0.393102	0.919066	0.028070	0	0	0
13645	0	0	0	0	0	9.822456	-0.128982	0.286216	-0.000873	0.002738	0.005604	-0.739990	0.495605	-0.437988	0.601782	-0.388958	-0.578508	-0.389741	-31.489166	-88.113007	-35.340651	0.026861	-0.019047	0.999458	0.919109	0.393627	-0.017200	-0.393086	0.919073	0.028079	0	0	0
13646	0	0	0	0	0	9.825526	-0.098343	0.271756	0.000557	0.003700	0.002801	-0.733887	0.500732	-0.440918	0.601788	-0.388961	-0.578499	-0.389743	-31.493389	-88.111778	-35.336953	0.026879	-0.019058	0.999457	0.919112	0.393619	-0.017213	-0.393077	0.919076	0.028096	0	0	0
13647	0	0	0	0	0	9.825512	-0.098710	0.272137	-0.002695	0.004074	0.004606	-0.738281	0.494385	-0.445557	0.601794	-0.388974	-0.578481	-0.389747	-31.515653	-88.109808	-35.316382	0.026914	-0.019068	0.999456	0.919123	0.393592	-0.017242	-0.393049	0.919087	0.028119	0	0	0
13648	0	0	0	0	0	9.829074	-0.120608	0.308563	-0.003966	-0.000107	0.003206	-0.741943	0.496582	-0.432129	0.601781	-0.388999	-0.578473	-0.389754	-31.562996	-88.110316	-35.272134	0.026922	-0.019042	0.999456	0.919144	0.393543	-0.017260	-0.393000	0.919109	0.028097	0	0	0
13649	0	0	0	0	0	9.792432	-0.092639	0.279413	-0.007775	-0.003432	0.002210	-0.740967	0.498779	-0.438965	0.601751	-0.389034	-0.578473	-0.389766	-31.618431	-88.112866	-35.221147	0.026902	-0.018992	0.999458	0.919175	0.393471	-0.017264	-0.392930	0.919141	0.028042	0	0	0
13650	0	0	0	0	0	9.807433	-0.111754	0.282781	-0.005238	-0.004287	0.001806	-0.738037	0.502930	-0.433105	0.601720	-0.389067	-0.578479	-0.389772	-31.684056	-88.115831	-35.159335	0.026880	-0.018933	0.999459	0.919201	0.393409	-0.017269	-0.392870	0.919168	0.027979	0	0	0
13651	0	0	0	0	0	9.822439	-0.130843	0.285959	-0.007818	-0.007235	0.001658	-0.739990	0.496094	-0.435059	0.601674	-0.389114	-0.578488	-0.389783	-31.771590	-88.120361	-35.077347	0.026843	-0.018850	0.999462	0.919240	0.393320	-0.017270	-0.392782	0.919209	0.027885	0	0	0
13652	0	0	0	0	0	9.858609	-0.106865	0.263447	-0.004088	-0.002300	0.004755	-0.734131	0.500000	-0.432129	0.601657	-0.389148	-0.578483	-0.389781	-31.862512	-88.121462	-34.989566	0.026856	-0.018797	0.999463	0.919261	0.393269	-0.017304	-0.392732	0.919231	0.027841	0	0	0
13653	0	0	0	0	0	9.833867	-0.128989	0.252690	-0.008490	-0.003912	0.003611	-0.746582	0.494873	-0.435547	0.601623	-0.389197	-0.578477	-0.389795	-31.948923	-88.123808	-34.909149	0.026849	-0.018736	0.999464	0.919302	0.393172	-0.017325	-0.392637	0.919274	0.027780	0	0	0
13654	0	0	0	0	0	9.818885	-0.110359	0.248471	-0.008411	-0.005521	0.001509	-0.740723	0.493164	-0.434326	0.601582	-0.389241	-0.578480	-0.389809	-32.024304	-88.127451	-34.839396	0.026819	-0.018667	0.999466	0.919340	0.393082	-0.017328	-0.392548	0.919314	0.027704	0	0	0
13655	0	0	0	0	0	9.827216	-0.139042	0.230321	-0.006546	-0.003054	0.003058	-0.742920	0.494141	-0.431641	0.601554	-0.389276	-0.578480	-0.389818	-32.088563	-88.129738	-34.779377	0.026806	-0.018616	0.999467	0.919369	0.393013	-0.017337	-0.392481	0.919344	0.027651	0	0	0
13656	0	0	0	0	0	9.825566	-0.101314	0.269222	-0.005831	-0.002573	0.001657	-0.739014	0.495117	-0.434326	0.601527	-0.389307	-0.578479	-0.389829	-32.137589	-88.131901	-34.734514	0.026790	-0.018574	0.999469	0.919398	0.392946	-0.017341	-0.392415	0.919374	0.027604	0	0	0
13657	0	0	0	0	0	9.848883	-0.148841	0.254894	-0.005239	-0.004285	0.001805	-0.740234	0.499756	-0.438965	0.601495	-0.389339	-0.578486	-0.389838	-32.196213	-88.135123	-34.679746	0.026761	-0.018516	0.999470	0.919425	0.392884	-0.017339	-0.392354	0.919402	0.027538	0	0	0
13658	0	0	0	0	0	9.825577	-0.101757	0.268659	-0.003966	-0.000106	0.003206	-0.739502	0.499268	-0.430908	0.601481	-0.389364	-0.578478	-0.389844	-32.244322	-88.135614	-34.634731	0.026769	-0.018490	0.999471	0.919446	0.392834	-0.017358	-0.392305	0.919424	0.027517	0	0	0
13659	0	0	0	0	0	9.836982	-0.099451	0.236247	-0.004559	0.001607	0.003058	-0.741699	0.502686	-0.440430	0.601470	-0.389387	-0.578465	-0.389858	-32.268891	-88.135440	-34.613769	0.026778	-0.018482	0.999471	0.919470	0.392776	-0.017371	-0.392247	0.919448	0.027512	0	0	0
13660	0	0	0	0	0	9.815801	-0.143168	0.262057	-0.004167	-0.000690	0.006856	-0.737305	0.499512	-0.429443	0.601462	-0.389425	-0.578451	-0.389853	-32.376920	-88.135093	-34.508918	0.026817	-0.018437	0.999470	0.919491	0.392725	-0.017426	-0.392196	0.919471	0.027484	0	0	0
13661	0	0	0	0	0	9.822463	-0.134121	0.283582	-0.008324	0.002086	0.002614	-0.739014	0.505615	-0.438477	0.601444	-0.389458	-0.578429	-0.389881	-32.393616	-88.134787	-34.498137	0.026825	-0.018435	0.999470	0.919531	0.392630	-0.017437	-0.392101	0.919512	0.027483	0	0	0
13662	0	0	0	0	0	9.851947	-0.119673	0.240279	-0.003330	0.001984	0.003907	-0.741455	0.498779	-0.434326	0.601439	-0.389480	-0.578415	-0.389888	-32.432086	-88.134047	-34.462401	0.026847	-0.018425	0.999470	0.919549	0.392587	-0.017463	-0.392057	0.919530	0.027483	0	0	0
13663	0	0	0	0	0	9.833859	-0.132147	0.251362	-0.005195	-0.000482	0.002357	-0.736572	0.497559	-0.435303	0.601420	-0.389507	-0.578408	-0.389901	-32.467203	-88.135030	-34.431222	0.026843	-0.018401	0.999470	0.919576	0.392523	-0.017470	-0.391994	0.919558	0.027457	0	0	0
13664	0	0	0	0	0	9.807460	-0.116114	0.280054	-0.005195	-0.000482	0.002357	-0.747559	0.498291	-0.429932	0.601401	-0.389534	-0.578401	-0.389913	-32.507035	-88.135957	-34.395194	0.026841	-0.018375	0.999471	0.919602	0.392462	-0.017481	-0.391933	0.919585	0.027432	0	0	0
13665	0	0	0	0	0	9.833858	-0.132534	0.251174	-0.005117	-0.002091	0.000255	-0.742920	0.501953	-0.431885	0.601371	-0.389559	-0.578403	-0.389931	-32.524270	-88.138564	-34.382095	0.026807	-0.018343	0.999472	0.919631	0.392395	-0.017464	-0.391868	0.919614	0.027388	0	0	0
13666	0	0	0	0	0	9.833858	-0.132738	0.251101	-0.006503	0.000750	0.003610	-0.737305	0.499268	-0.438477	0.601356	-0.389591	-0.578387	-0.389946	-32.571870	-88.138509	-34.339045	0.026822	-0.018324	0.999472	0.919662	0.392322	-0.017488	-0.391795	0.919645	0.027374	0	0	0
13667	0	0	0	0	0	9.809096	-0.154647	0.240756	-0.005073	0.001712	0.000809	-0.736572	0.503906	-0.436279	0.601341	-0.389609	-0.578377	-0.389968	-32.562501	-88.138952	-34.352295	0.026811	-0.018325	0.999473	0.919688	0.392260	-0.017479	-0.391733	0.919672	0.027371	0	0	0
13668	0	0	0	0	0	9.836953	-0.102282	0.236226	-0.009329	-0.006583	0.006556	-0.740723	0.506104	-0.441650	0.601305	-0.389673	-0.578371	-0.389967	-32.725330	-88.141522	-34.195574	0.026824	-0.018227	0.999474	0.919729	0.392161	-0.017533	-0.391635	0.919716	0.027283	0	0	0
13669	0	0	0	0	0	9.818876	-0.114704	0.246848	-0.008168	-0.001130	-0.001590	-0.740234	0.503418	-0.429443	0.601272	-0.389698	-0.578368	-0.389998	-32.710898	-88.143883	-34.215395	0.026784	-0.018213	0.999475	0.919767	0.392074	-0.017503	-0.391550	0.919753	0.027253	0	0	0
13670	0	0	0	0	0	9.807478	-0.117456	0.278863	-0.004770	-0.008190	0.003497	-0.736816	0.499268	-0.434814	0.601234	-0.389742	-0.578382	-0.389990	-32.841666	-88.148164	-34.088139	0.026763	-0.018112	0.999478	0.919791	0.392017	-0.017525	-0.391495	0.919780	0.027150	0	0	0
13671	0	0	0	0	0	9.833882	-0.133843	0.249556	-0.007576	-0.002842	-0.001443	-0.744141	0.493408	-0.437744	0.601194	-0.389773	-0.578383	-0.390020	-32.845984	-88.151517	-34.089687	0.026714	-0.018079	0.999480	0.919832	0.391923	-0.017495	-0.391402	0.919821	0.027100	0	0	0
13672	0	0	0	0	0	9.833893	-0.133883	0.249114	-0.004648	-0.005996	0.001949	-0.740967	0.495117	-0.432373	0.601160	-0.389808	-0.578395	-0.390021	-32.933176	-88.155216	-34.005959	0.026686	-0.018004	0.999482	0.919856	0.391866	-0.017502	-0.391348	0.919846	0.027019	0	0	0
13673	0	0	0	0	0	9.844161	-0.146060	0.306296	-0.004525	-0.003802	0.000402	-0.738770	0.499268	-0.426270	0.601130	-0.389829	-0.578406	-0.390029	-32.965275	-88.158600	-33.976615	0.026647	-0.017958	0.999484	0.919875	0.391822	-0.017485	-0.391305	0.919866	0.026960	0	0	0
13674	0	0	0	0	0	9.825610	-0.105683	0.265935	-0.002703	-0.005139	0.001397	-0.737793	0.500732	-0.431396	0.601101	-0.389855	-0.578420	-0.390028	-33.035305	-88.162054	-33.908944	0.026618	-0.017893	0.999486	0.919891	0.391783	-0.017485	-0.391269	0.919884	0.026888	0	0	0
13675	0	0	0	0	0	9.815840	-0.146358	0.258832	-0.005117	-0.002089	0.000255	-0.736328	0.499268	-0.436035	0.601069	-0.389884	-0.578419	-0.390049	-33.057141	-88.164594	-33.891951	0.026586	-0.017860	0.999487	0.919925	0.391705	-0.017471	-0.391192	0.919918	0.026844	0	0	0
13676	0	0	0	0	0	9.800861	-0.127621	0.254857	-0.006547	-0.003051	0.003055	-0.738281	0.498047	-0.429932	0.601042	-0.389922	-0.578416	-0.390058	-33.134195	-88.166524	-33.819457	0.026581	-0.017808	0.999488	0.919956	0.391631	-0.017488	-0.391119	0.919950	0.026792	0	0	0
13677	0	0	0	0	0	9.818953	-0.115657	0.243335	-0.003341	-0.007228	0.000695	-0.737793	0.499512	-0.433594	0.601003	-0.389952	-0.578436	-0.390057	-33.209500	-88.171282	-33.746944	0.026535	-0.017728	0.999491	0.919976	0.391586	-0.017478	-0.391076	0.919971	0.026700	0	0	0
13678	0	0	0	0	0	9.852033	-0.122605	0.235231	-0.002234	-0.009045	0.003091	-0.745361	0.500000	-0.438721	0.600967	-0.389989	-0.578459	-0.390042	-33.344226	-88.176065	-33.614276	0.026506	-0.017620	0.999493	0.919990	0.391552	-0.017495	-0.391045	0.919987	0.026589	0	0	0
13679	0	0	0	0	0	9.800906	-0.128010	0.252941	-0.004325	-0.003216	-0.003248	-0.734863	0.499268	-0.437988	0.600932	-0.389999	-0.578474	-0.390062	-33.319931	-88.180154	-33.641530	0.026438	-0.017593	0.999496	0.920011	0.391504	-0.017445	-0.390999	0.920008	0.026537	0	0	0
13680	0	0	0	0	0	9.840669	-0.125214	0.266565	-0.004055	-0.007708	0.002095	-0.739258	0.500977	-0.429199	0.600895	-0.390037	-0.578491	-0.390058	-33.428293	-88.184603	-33.536284	0.026406	-0.017502	0.999498	0.920033	0.391453	-0.017452	-0.390951	0.920032	0.026439	0	0	0
13681	0	0	0	0	0	9.814316	-0.109023	0.294567	-0.005800	-0.007978	-0.001003	-0.743896	0.507080	-0.434082	0.600846	-0.390070	-0.578512	-0.390068	-33.489032	-88.190191	-33.479735	0.026342	-0.017422	0.999501	0.920062	0.391385	-0.017426	-0.390886	0.920062	0.026339	0	0	0
13682	0	0	0	0	0	9.822635	-0.137476	0.275921	-0.004693	-0.009796	0.001392	-0.744629	0.503906	-0.431885	0.600800	-0.390111	-0.578535	-0.390063	-33.609130	-88.195850	-33.363114	0.026295	-0.017314	0.999504	0.920086	0.391328	-0.017427	-0.390832	0.920088	0.026220	0	0	0
13683	0	0	0	0	0	9.837642	-0.156566	0.278694	-0.007229	-0.008939	0.001797	-0.731201	0.510010	-0.429688	0.600748	-0.390163	-0.578549	-0.390071	-33.726028	-88.201108	-33.251992	0.026252	-0.017213	0.999507	0.920126	0.391234	-0.017429	-0.390741	0.920130	0.026108	0	0	0
13684	0	0	0	0	0	9.834056	-0.135163	0.241868	-0.009006	-0.003800	0.001358	-0.752441	0.496826	-0.431396	0.600711	-0.390205	-0.578546	-0.390091	-33.788533	-88.203908	-33.195466	0.026228	-0.017160	0.999509	0.920167	0.391138	-0.017431	-0.390647	0.920172	0.026049	0	0	0
13685	0	0	0	0	0	9.829389	-0.128263	0.295160	-0.005723	-0.009584	-0.003107	-0.745605	0.504639	-0.431641	0.600650	-0.390241	-0.578573	-0.390108	-33.837631	-88.211048	-33.151438	0.026137	-0.017072	0.999513	0.920203	0.391055	-0.017383	-0.390568	0.920209	0.025930	0	0	0
13686	0	0	0	0	0	9.840790	-0.125792	0.261783	-0.008735	-0.008292	0.006700	-0.741699	0.498047	-0.431641	0.600611	-0.390306	-0.578574	-0.390102	-34.027995	-88.214270	-32.966834	0.026144	-0.016957	0.999514	0.920242	0.390962	-0.017438	-0.390477	0.920251	0.025826	0	0	0
13687	0	0	0	0	0	9.812424	-0.126167	0.214401	-0.012103	-0.006638	-0.001042	-0.733398	0.501953	-0.433594	0.600551	-0.390358	-0.578578	-0.390136	-34.080354	-88.219390	-32.922711	0.026082	-0.016888	0.999517	0.920299	0.390829	-0.017412	-0.390346	0.920308	0.025736	0	0	0
13688	0	0	0	0	0	9.873881	-0.132849	0.253011	-0.012817	-0.007118	0.000358	-0.741699	0.499756	-0.434082	0.600495	-0.390415	-0.578580	-0.390163	-34.165293	-88.224074	-32.845925	0.026036	-0.016809	0.999520	0.920355	0.390697	-0.017404	-0.390217	0.920366	0.025642	0	0	0
13689	0	0	0	0	0	9.834138	-0.135833	0.238124	-0.013016	-0.007704	0.004007	-0.735107	0.507080	-0.433105	0.600444	-0.390483	-0.578576	-0.390179	-34.307179	-88.227855	-32.712125	0.026020	-0.016712	0.999522	0.920410	0.390567	-0.017430	-0.390089	0.920423	0.025545	0	0	0
13690	0	0	0	0	0	9.837238	-0.104953	0.222808	-0.011466	-0.004548	-0.000340	-0.743896	0.493164	-0.427490	0.600396	-0.390530	-0.578574	-0.390209	-34.354685	-88.231540	-32.672016	0.025978	-0.016659	0.999524	0.920461	0.390447	-0.017415	-0.389971	0.920475	0.025477	0	0	0
13691	0	0	0	0	0	9.819179	-0.117261	0.233233	-0.012302	-0.007222	0.002606	-0.740967	0.501221	-0.421143	0.600343	-0.390593	-0.578572	-0.390231	-34.471073	-88.235676	-32.563855	0.025948	-0.016572	0.999526	0.920517	0.390314	-0.017426	-0.389841	0.920533	0.025382	0	0	0
13692	0	0	0	0	0	9.834178	-0.136358	0.236188	-0.012818	-0.007115	0.000357	-0.743408	0.501221	-0.428955	0.600286	-0.390650	-0.578574	-0.390258	-34.557701	-88.240343	-32.485380	0.025902	-0.016492	0.999528	0.920573	0.390183	-0.017418	-0.389711	0.920590	0.025289	0	0	0
13693	0	0	0	0	0	9.831109	-0.167664	0.250024	-0.013654	-0.009789	0.003302	-0.742676	0.501953	-0.428955	0.600219	-0.390731	-0.578573	-0.390281	-34.716431	-88.245615	-32.336703	0.025867	-0.016376	0.999531	0.920641	0.390020	-0.017436	-0.389552	0.920661	0.025165	0	0	0
13694	0	0	0	0	0	9.789800	-0.132838	0.274328	-0.012303	-0.007220	0.002605	-0.745850	0.496338	-0.434082	0.600168	-0.390793	-0.578572	-0.390300	-34.839598	-88.249586	-32.221377	0.025842	-0.016287	0.999533	0.920695	0.389893	-0.017450	-0.389427	0.920716	0.025071	0	0	0
13695	0	0	0	0	0	9.851280	-0.139570	0.312902	-0.012621	-0.006525	-0.003294	-0.740234	0.502930	-0.426270	0.600105	-0.390836	-0.578581	-0.390340	-34.856922	-88.255393	-32.212059	0.025758	-0.016229	0.999536	0.920750	0.389764	-0.017400	-0.389301	0.920772	0.024982	0	0	0
13696	0	0	0	0	0	9.812545	-0.127250	0.208136	-0.009523	-0.003689	-0.000892	-0.742432	0.505127	-0.433594	0.600062	-0.390874	-0.578581	-0.390367	-34.887299	-88.258844	-32.187974	0.025714	-0.016186	0.999538	0.920794	0.389662	-0.017379	-0.389201	0.920816	0.024924	0	0	0
13697	0	0	0	0	0	9.814626	-0.111038	0.283252	-0.007062	-0.002940	0.000805	-0.740479	0.504883	-0.429688	0.600027	-0.390910	-0.578579	-0.390389	-34.931392	-88.261491	-32.149467	0.025686	-0.016144	0.999540	0.920832	0.389572	-0.017371	-0.389112	0.920855	0.024872	0	0	0
13698	0	0	0	0	0	9.827544	-0.146295	0.210991	-0.005878	-0.006365	0.001094	-0.738037	0.505615	-0.428711	0.599988	-0.390947	-0.578590	-0.390395	-35.019731	-88.265544	-32.065304	0.025650	-0.016068	0.999542	0.920861	0.389504	-0.017369	-0.389047	0.920885	0.024788	0	0	0
13699	0	0	0	0	0	9.809486	-0.158713	0.221431	-0.002188	-0.005243	0.003640	-0.739502	0.496094	-0.433594	0.599961	-0.390983	-0.578598	-0.390390	-35.132030	-88.268270	-31.955963	0.025640	-0.015994	0.999543	0.920881	0.389456	-0.017390	-0.389000	0.920906	0.024715	0	0	0
13700	0	0	0	0	0	9.842548	-0.165593	0.213496	-0.006395	-0.006258	-0.001155	-0.740479	0.510498	-0.432373	0.599916	-0.391015	-0.578612	-0.390405	-35.185372	-88.273007	-31.907110	0.025584	-0.015929	0.999546	0.920912	0.389383	-0.017366	-0.388930	0.920938	0.024631	0	0	0
13701	0	0	0	0	0	9.874063	-0.134580	0.244845	-0.003418	-0.005617	0.002791	-0.739746	0.500977	-0.425049	0.599887	-0.391047	-0.578623	-0.390401	-35.286305	-88.276142	-31.808882	0.025564	-0.015856	0.999547	0.920931	0.389339	-0.017378	-0.388887	0.920958	0.024556	0	0	0
13702	0	0	0	0	0	9.874077	-0.134794	0.244164	0.004191	-0.008189	0.001570	-0.744141	0.502197	-0.430664	0.599863	-0.391058	-0.578659	-0.390373	-35.397979	-88.280874	-31.695602	0.025525	-0.015762	0.999550	0.920920	0.389364	-0.017378	-0.388915	0.920949	0.024454	0	0	0
13703	0	0	0	0	0	9.856032	-0.146989	0.254407	-0.000092	-0.007598	-0.001121	-0.736084	0.500977	-0.432617	0.599824	-0.391077	-0.578689	-0.390371	-35.459690	-88.286416	-31.635421	0.025460	-0.015685	0.999553	0.920931	0.389339	-0.017348	-0.388892	0.920961	0.024357	0	0	0
13704	0	0	0	0	0	9.856049	-0.147069	0.253692	0.002885	-0.006957	0.002825	-0.740479	0.500000	-0.422852	0.599803	-0.391094	-0.578716	-0.390346	-35.579120	-88.290145	-31.515131	0.025437	-0.015597	0.999555	0.920926	0.389352	-0.017361	-0.388908	0.920957	0.024268	0	0	0
13705	0	0	0	0	0	9.823004	-0.140529	0.260848	0.001869	0.002460	0.001553	-0.745605	0.502441	-0.429932	0.599803	-0.391093	-0.578714	-0.390349	-35.569920	-88.290020	-31.524564	0.025436	-0.015602	0.999555	0.920927	0.389348	-0.017358	-0.388904	0.920959	0.024272	0	0	0
13706	0	0	0	0	0	9.819342	-0.119122	0.225275	0.000017	0.009203	0.003225	-0.735596	0.510010	-0.437012	0.599825	-0.391089	-0.578686	-0.390362	-35.517176	-88.286081	-31.578169	0.025480	-0.015662	0.999553	0.920932	0.389335	-0.017376	-0.388889	0.920963	0.024344	0	0	0
13707	0	0	0	0	0	9.834298	-0.138174	0.230025	-0.000970	0.013217	-0.000712	-0.743652	0.506348	-0.438965	0.599848	-0.391068	-0.578651	-0.390399	-35.355748	-88.281521	-31.741227	0.025503	-0.015777	0.999550	0.920944	0.389309	-0.017353	-0.388861	0.920972	0.024458	0	0	0
13708	0	0	0	0	0	9.811031	-0.090895	0.245118	-0.005026	0.005514	0.001374	-0.742676	0.497803	-0.427734	0.599845	-0.391080	-0.578628	-0.390425	-35.318502	-88.279913	-31.782218	0.025516	-0.015810	0.999549	0.920969	0.389250	-0.017353	-0.388800	0.920997	0.024492	0	0	0
13709	0	0	0	0	0	9.822366	-0.088415	0.213114	-0.001974	0.004550	0.003216	-0.744873	0.504639	-0.425537	0.599850	-0.391087	-0.578612	-0.390435	-35.311439	-88.278240	-31.790981	0.025538	-0.015829	0.999549	0.920980	0.389223	-0.017367	-0.388772	0.921008	0.024518	0	0	0
13710	0	0	0	0	0	9.825982	-0.110285	0.249835	-0.005618	0.007227	0.001230	-0.749023	0.501709	-0.426758	0.599851	-0.391098	-0.578583	-0.390466	-35.253573	-88.275878	-31.852941	0.025556	-0.015878	0.999547	0.921008	0.389157	-0.017366	-0.388705	0.921035	0.024569	0	0	0
13711	0	0	0	0	0	9.834231	-0.138798	0.232501	-0.001898	0.002944	0.001111	-0.739990	0.503906	-0.428711	0.599840	-0.391110	-0.578572	-0.390486	-35.234959	-88.275898	-31.874687	0.025550	-0.015888	0.999547	0.921029	0.389107	-0.017358	-0.388655	0.921056	0.024575	0	0	0
13712	0	0	0	0	0	9.819245	-0.120088	0.228985	-0.003964	-0.000105	0.003207	-0.748291	0.499756	-0.430176	0.599826	-0.391135	-0.578564	-0.390493	-35.287519	-88.276311	-31.825222	0.025557	-0.015862	0.999548	0.921050	0.389057	-0.017376	-0.388605	0.921077	0.024553	0	0	0
13713	0	0	0	0	0	9.801172	-0.132548	0.239963	-0.005195	-0.000478	0.002358	-0.743652	0.510498	-0.438721	0.599805	-0.391163	-0.578557	-0.390508	-35.325763	-88.277389	-31.791148	0.025551	-0.015837	0.999548	0.921078	0.388990	-0.017382	-0.388539	0.921106	0.024526	0	0	0
13714	0	0	0	0	0	9.827500	-0.148996	0.211149	-0.005787	0.001235	0.002213	-0.748291	0.500244	-0.430908	0.599790	-0.391189	-0.578544	-0.390525	-35.349228	-88.277503	-31.771836	0.025554	-0.015827	0.999548	0.921106	0.388923	-0.017391	-0.388472	0.921134	0.024517	0	0	0
13715	0	0	0	0	0	9.807884	-0.123504	0.261445	-0.003889	-0.001710	0.001102	-0.741943	0.501465	-0.433594	0.599769	-0.391209	-0.578546	-0.390535	-35.380178	-88.279436	-31.743794	0.025534	-0.015797	0.999549	0.921126	0.388876	-0.017384	-0.388426	0.921155	0.024480	0	0	0
13716	0	0	0	0	0	9.819244	-0.120756	0.228682	-0.005043	-0.003688	-0.001852	-0.746094	0.505615	-0.431885	0.599733	-0.391230	-0.578557	-0.390553	-35.394421	-88.283198	-31.733283	0.025481	-0.015758	0.999551	0.921152	0.388815	-0.017353	-0.388367	0.921181	0.024422	0	0	0
13717	0	0	0	0	0	9.819254	-0.120673	0.228268	-0.001991	-0.004654	-0.000010	-0.742676	0.502197	-0.426758	0.599704	-0.391247	-0.578574	-0.390555	-35.439889	-88.286898	-31.689717	0.025438	-0.015704	0.999553	0.921166	0.388784	-0.017334	-0.388338	0.921195	0.024356	0	0	0
13718	0	0	0	0	0	9.845591	-0.136870	0.199128	-0.003175	-0.001228	-0.000298	-0.747070	0.503662	-0.429932	0.599682	-0.391262	-0.578578	-0.390568	-35.450143	-88.288995	-31.682125	0.025409	-0.015682	0.999554	0.921184	0.388741	-0.017318	-0.388296	0.921214	0.024323	0	0	0
13719	0	0	0	0	0	9.825985	-0.111165	0.249294	-0.000638	-0.002086	-0.000705	-0.746338	0.498779	-0.430176	0.599658	-0.391272	-0.578589	-0.390577	-35.457144	-88.291853	-31.676952	0.025368	-0.015653	0.999556	0.921197	0.388711	-0.017292	-0.388268	0.921227	0.024280	0	0	0
13720	0	0	0	0	0	9.827535	-0.148808	0.209647	0.001974	-0.004549	-0.003217	-0.743164	0.508301	-0.433594	0.599631	-0.391270	-0.578619	-0.390577	-35.455815	-88.296471	-31.677998	0.025299	-0.015611	0.999558	0.921197	0.388715	-0.017244	-0.388274	0.921226	0.024215	0	0	0
13721	0	0	0	0	0	9.812568	-0.129697	0.205511	0.000546	-0.005512	-0.000417	-0.743408	0.497803	-0.435303	0.599603	-0.391281	-0.578644	-0.390572	-35.503717	-88.300731	-31.630655	0.025248	-0.015552	0.999560	0.921201	0.388705	-0.017221	-0.388266	0.921231	0.024140	0	0	0
13722	0	0	0	0	0	9.830648	-0.117366	0.193963	0.000029	-0.005404	-0.002666	-0.740723	0.502930	-0.427246	0.599570	-0.391288	-0.578672	-0.390574	-35.521922	-88.305564	-31.613273	0.025181	-0.015500	0.999563	0.921208	0.388691	-0.017180	-0.388255	0.921238	0.024066	0	0	0
13723	0	0	0	0	0	9.834300	-0.138730	0.229613	0.001973	-0.004549	-0.003217	-0.742188	0.504639	-0.424805	0.599544	-0.391282	-0.578703	-0.390574	-35.512974	-88.310298	-31.621655	0.025109	-0.015460	0.999565	0.921205	0.388700	-0.017128	-0.388266	0.921235	0.024002	0	0	0
13724	0	0	0	0	0	9.841038	-0.129006	0.250647	-0.002507	-0.004546	-0.002259	-0.746094	0.504883	-0.425781	0.599510	-0.391296	-0.578722	-0.390584	-35.529499	-88.314595	-31.607406	0.025049	-0.015415	0.999567	0.921222	0.388662	-0.017092	-0.388231	0.921251	0.023936	0	0	0
13725	0	0	0	0	0	9.812618	-0.128938	0.203586	0.003006	-0.004764	0.001280	-0.739502	0.496338	-0.433350	0.599487	-0.391310	-0.578743	-0.390575	-35.599636	-88.318038	-31.537666	0.025016	-0.015353	0.999569	0.921225	0.388655	-0.017086	-0.388226	0.921255	0.023866	0	0	0
13726	0	0	0	0	0	9.822995	-0.141023	0.260919	0.000789	-0.001124	-0.003505	-0.746094	0.496826	-0.434326	0.599467	-0.391304	-0.578761	-0.390586	-35.555797	-88.321155	-31.581919	0.024958	-0.015343	0.999571	0.921229	0.388648	-0.017036	-0.388220	0.921258	0.023835	0	0	0
13727	0	0	0	0	0	9.790923	-0.119221	0.177914	-0.000760	-0.004280	0.000839	-0.746094	0.503906	-0.428711	0.599446	-0.391313	-0.578781	-0.390578	-35.605686	-88.324422	-31.532069	0.024923	-0.015292	0.999572	0.921229	0.388647	-0.017024	-0.388221	0.921260	0.023774	0	0	0
13728	0	0	0	0	0	9.819365	-0.119334	0.224156	0.002414	-0.003051	0.001136	-0.739990	0.500244	-0.422852	0.599433	-0.391319	-0.578799	-0.390566	-35.656804	-88.326889	-31.480393	0.024900	-0.015247	0.999574	0.921226	0.388656	-0.017020	-0.388230	0.921257	0.023723	0	0	0
13729	0	0	0	0	0	9.804392	-0.100484	0.220033	0.002368	-0.006850	0.000575	-0.743408	0.499756	-0.430908	0.599403	-0.391334	-0.578827	-0.390554	-35.738841	-88.331527	-31.398662	0.024853	-0.015169	0.999576	0.921229	0.388650	-0.017007	-0.388227	0.921261	0.023633	0	0	0
13730	0	0	0	0	0	9.826119	-0.110060	0.244480	-0.002112	-0.006847	0.001534	-0.747559	0.500000	-0.424316	0.599370	-0.391362	-0.578847	-0.390547	-35.843104	-88.335621	-31.296413	0.024819	-0.015088	0.999578	0.921242	0.388617	-0.017008	-0.388196	0.921276	0.023544	0	0	0
13731	0	0	0	0	0	9.856109	-0.148013	0.250788	-0.002797	-0.012731	0.000268	-0.745850	0.498291	-0.435303	0.599315	-0.391400	-0.578886	-0.390537	-35.989208	-88.343133	-31.152962	0.024744	-0.014958	0.999582	0.921261	0.388573	-0.016991	-0.388156	0.921297	0.023395	0	0	0
13732	0	0	0	0	0	9.844817	-0.150764	0.281970	0.003505	-0.014072	0.000300	-0.749756	0.499512	-0.424316	0.599270	-0.391422	-0.578940	-0.390504	-36.156451	-88.350975	-30.984488	0.024671	-0.014815	0.999586	0.921254	0.388591	-0.016978	-0.388179	0.921291	0.023235	0	0	0
13733	0	0	0	0	0	9.841195	-0.129163	0.244325	-0.007324	-0.016525	0.000666	-0.747803	0.503418	-0.431885	0.599196	-0.391479	-0.578982	-0.390496	-36.356780	-88.360094	-30.788877	0.024584	-0.014649	0.999590	0.921287	0.388514	-0.016965	-0.388106	0.921326	0.023047	0	0	0
13734	0	0	0	0	0	9.852547	-0.126286	0.210446	-0.000658	-0.011286	-0.003933	-0.750488	0.503174	-0.432861	0.599143	-0.391496	-0.579029	-0.390493	-36.428151	-88.368063	-30.718701	0.024483	-0.014548	0.999594	0.921296	0.388494	-0.016911	-0.388090	0.921337	0.022914	0	0	0
13735	0	0	0	0	0	9.834518	-0.138312	0.220332	-0.005334	-0.011871	0.000675	-0.745361	0.501221	-0.425293	0.599088	-0.391538	-0.579060	-0.390488	-36.576510	-88.374903	-30.573998	0.024417	-0.014425	0.999598	0.921322	0.388434	-0.016899	-0.388034	0.921364	0.022774	0	0	0
13736	0	0	0	0	0	9.829978	-0.131661	0.273225	-0.005926	-0.010159	0.000532	-0.742920	0.492432	-0.419189	0.599036	-0.391581	-0.579084	-0.390489	-36.711600	-88.380818	-30.443097	0.024361	-0.014317	0.999601	0.921351	0.388365	-0.016891	-0.387968	0.921394	0.022652	0	0	0
13737	0	0	0	0	0	9.845865	-0.135629	0.186001	-0.006989	-0.004541	-0.001298	-0.748535	0.501709	-0.425781	0.598991	-0.391613	-0.579092	-0.390514	-36.743601	-88.385140	-30.416613	0.024302	-0.014268	0.999603	0.921389	0.388276	-0.016859	-0.387881	0.921433	0.022582	0	0	0
13738	0	0	0	0	0	9.859373	-0.116669	0.228348	-0.004574	-0.007592	-0.000164	-0.744629	0.499512	-0.422119	0.598948	-0.391645	-0.579112	-0.390517	-36.836613	-88.390106	-30.327034	0.024250	-0.014186	0.999605	0.921413	0.388220	-0.016843	-0.387828	0.921458	0.022485	0	0	0
13739	0	0	0	0	0	9.819605	-0.119262	0.213455	-0.004500	-0.009195	-0.002270	-0.751709	0.499023	-0.432861	0.598892	-0.391677	-0.579141	-0.390529	-36.910144	-88.396843	-30.257704	0.024165	-0.014097	0.999609	0.921442	0.388151	-0.016802	-0.387763	0.921488	0.022370	0	0	0
13740	0	0	0	0	0	9.852653	-0.125964	0.205643	-0.001305	0.001231	0.001257	-0.749268	0.499023	-0.430420	0.598884	-0.391686	-0.579138	-0.390537	-36.916966	-88.397274	-30.252474	0.024160	-0.014091	0.999609	0.921453	0.388126	-0.016800	-0.387737	0.921499	0.022362	0	0	0
13741	0	0	0	0	0	9.852651	-0.126330	0.205501	0.001507	-0.004121	0.006183	-0.746338	0.503662	-0.427734	0.598876	-0.391706	-0.579151	-0.390509	-37.057094	-88.398720	-30.111580	0.024173	-0.014019	0.999609	0.921448	0.388138	-0.016839	-0.387750	0.921495	0.022300	0	0	0
13742	0	0	0	0	0	9.834599	-0.139060	0.216219	0.005395	-0.002412	0.005079	-0.750000	0.498779	-0.417969	0.598878	-0.391713	-0.579165	-0.390479	-37.167670	-88.399494	-29.998715	0.024189	-0.013965	0.999610	0.921432	0.388174	-0.016874	-0.387787	0.921480	0.022257	0	0	0
13743	0	0	0	0	0	9.834595	-0.139727	0.215960	0.005200	-0.003001	0.008727	-0.745850	0.508545	-0.428955	0.598879	-0.391737	-0.579172	-0.390443	-37.340758	-88.399615	-29.824459	0.024229	-0.013890	0.999610	0.921422	0.388193	-0.016940	-0.387806	0.921473	0.022204	0	0	0
13744	0	0	0	0	0	9.838275	-0.162090	0.251934	0.006034	-0.000327	0.005784	-0.747314	0.497070	-0.417969	0.598890	-0.391741	-0.579179	-0.390412	-37.436640	-88.399179	-29.725929	0.024260	-0.013852	0.999610	0.921404	0.388235	-0.016982	-0.387849	0.921456	0.022182	0	0	0
13745	0	0	0	0	0	9.801545	-0.134129	0.223268	0.008691	0.001009	0.003831	-0.752930	0.509033	-0.434082	0.598901	-0.391732	-0.579190	-0.390389	-37.479110	-88.399079	-29.680360	0.024272	-0.013834	0.999610	0.921382	0.388285	-0.016999	-0.387898	0.921435	0.022171	0	0	0
13746	0	0	0	0	0	9.826345	-0.112938	0.233849	0.011153	0.001755	0.005527	-0.740234	0.507568	-0.420654	0.598927	-0.391715	-0.579201	-0.390348	-37.541813	-88.397780	-29.612088	0.024308	-0.013816	0.999609	0.921344	0.388375	-0.017037	-0.387988	0.921398	0.022170	0	0	0
13747	0	0	0	0	0	9.841319	-0.132315	0.237536	0.009282	-0.000703	0.003974	-0.744385	0.506104	-0.428467	0.598935	-0.391709	-0.579217	-0.390319	-37.609353	-88.398228	-29.541080	0.024319	-0.013782	0.999609	0.921320	0.388431	-0.017059	-0.388044	0.921375	0.022144	0	0	0
13748	0	0	0	0	0	9.841313	-0.132619	0.237650	0.012579	0.002718	0.002726	-0.738037	0.506104	-0.427002	0.598961	-0.391678	-0.579234	-0.390284	-37.613648	-88.397469	-29.530422	0.024333	-0.013784	0.999609	0.921277	0.388533	-0.017068	-0.388146	0.921332	0.022153	0	0	0
13749	0	0	0	0	0	9.841308	-0.132876	0.237682	0.014353	-0.002417	0.003155	-0.748291	0.500732	-0.429443	0.598975	-0.391656	-0.579267	-0.390237	-37.685718	-88.398877	-29.451566	0.024330	-0.013738	0.999610	0.921231	0.388642	-0.017081	-0.388255	0.921286	0.022112	0	0	0
13750	0	0	0	0	0	9.844389	-0.101948	0.222708	0.014427	-0.004022	0.001050	-0.748291	0.505859	-0.430176	0.598982	-0.391627	-0.579311	-0.390189	-37.746307	-88.401759	-29.383531	0.024303	-0.013685	0.999611	0.921180	0.388761	-0.017074	-0.388376	0.921237	0.022054	0	0	0
13751	0	0	0	0	0	9.837635	-0.111443	0.201072	0.015188	0.000257	0.000210	-0.742188	0.500244	-0.427734	0.599000	-0.391585	-0.579346	-0.390152	-37.732087	-88.403163	-29.389953	0.024280	-0.013675	0.999612	0.921128	0.388886	-0.017053	-0.388502	0.921184	0.022039	0	0	0
13752	0	0	0	0	0	9.844392	-0.102034	0.222555	0.014474	-0.000223	0.001610	-0.744385	0.500244	-0.426758	0.599020	-0.391551	-0.579378	-0.390109	-37.754136	-88.404127	-29.360448	0.024272	-0.013655	0.999612	0.921077	0.389006	-0.017052	-0.388622	0.921134	0.022019	0	0	0
13753	0	0	0	0	0	9.833092	-0.104820	0.255105	0.016418	0.000632	0.001057	-0.742432	0.498779	-0.424316	0.599043	-0.391506	-0.579412	-0.390066	-37.748689	-88.405040	-29.357398	0.024259	-0.013646	0.999613	0.921020	0.389142	-0.017040	-0.388759	0.921077	0.022008	0	0	0
13754	0	0	0	0	0	9.837628	-0.111737	0.201268	0.015113	0.001865	0.002313	-0.745850	0.500244	-0.432129	0.599071	-0.391468	-0.579438	-0.390024	-37.755539	-88.404812	-29.342731	0.024266	-0.013641	0.999612	0.920967	0.389268	-0.017045	-0.388885	0.921024	0.022009	0	0	0
13755	0	0	0	0	0	9.822645	-0.093009	0.197739	0.015705	0.000154	0.002456	-0.740234	0.496582	-0.429443	0.599095	-0.391430	-0.579470	-0.389977	-37.778281	-88.405462	-29.311701	0.024264	-0.013623	0.999613	0.920911	0.389401	-0.017047	-0.389018	0.920968	0.021994	0	0	0
13756	0	0	0	0	0	9.822640	-0.093235	0.197894	0.012578	0.002723	0.002721	-0.745117	0.501465	-0.431641	0.599121	-0.391399	-0.579487	-0.389943	-37.782393	-88.404701	-29.301227	0.024278	-0.013625	0.999612	0.920867	0.389504	-0.017056	-0.389120	0.920924	0.022003	0	0	0
13757	0	0	0	0	0	9.826312	-0.115004	0.234217	0.010707	0.000263	0.001170	-0.745850	0.502930	-0.437500	0.599135	-0.391369	-0.579513	-0.389913	-37.784656	-88.405681	-29.293160	0.024265	-0.013613	0.999613	0.920828	0.389597	-0.017047	-0.389214	0.920885	0.021989	0	0	0
13758	0	0	0	0	0	9.829392	-0.084127	0.219455	0.011816	-0.001553	0.003562	-0.746338	0.500244	-0.430420	0.599149	-0.391351	-0.579540	-0.389870	-37.856867	-88.406560	-29.214996	0.024270	-0.013572	0.999613	0.920787	0.389692	-0.017065	-0.389310	0.920845	0.021955	0	0	0
13759	0	0	0	0	0	9.840693	-0.081482	0.186852	0.007728	-0.000380	-0.002773	-0.751221	0.495117	-0.432861	0.599148	-0.391320	-0.579570	-0.389858	-37.804283	-88.409191	-29.263354	0.024218	-0.013570	0.999615	0.920759	0.389760	-0.017017	-0.389379	0.920817	0.021934	0	0	0
13760	0	0	0	0	0	9.844373	-0.102878	0.223010	0.004479	-0.000003	-0.000963	-0.750488	0.499756	-0.432129	0.599143	-0.391307	-0.579587	-0.389853	-37.787450	-88.410958	-29.278474	0.024188	-0.013562	0.999615	0.920748	0.389787	-0.016991	-0.389407	0.920805	0.021915	0	0	0
13761	0	0	0	0	0	9.836152	-0.074346	0.240897	0.003888	0.001709	-0.001107	-0.744629	0.504639	-0.430176	0.599143	-0.391287	-0.579602	-0.389851	-37.734826	-88.412257	-29.328944	0.024156	-0.013572	0.999616	0.920734	0.389821	-0.016957	-0.389442	0.920790	0.021913	0	0	0
13762	0	0	0	0	0	9.822631	-0.093151	0.198391	0.000883	0.006469	-0.002388	-0.742188	0.502197	-0.439697	0.599147	-0.391269	-0.579595	-0.389873	-37.614848	-88.411587	-29.449310	0.024138	-0.013628	0.999616	0.920738	0.389815	-0.016919	-0.389435	0.920792	0.021957	0	0	0
13763	0	0	0	0	0	9.840677	-0.080874	0.187962	0.001400	0.006364	-0.000140	-0.742676	0.500977	-0.424316	0.599159	-0.391251	-0.579586	-0.389885	-37.525203	-88.410118	-29.538447	0.024139	-0.013679	0.999615	0.920734	0.389824	-0.016900	-0.389443	0.920788	0.022004	0	0	0
13764	0	0	0	0	0	9.837583	-0.111960	0.203349	-0.001135	0.007221	0.000269	-0.750488	0.501953	-0.436523	0.599167	-0.391245	-0.579568	-0.389907	-37.440723	-88.408169	-29.624458	0.024148	-0.013732	0.999614	0.920745	0.389800	-0.016888	-0.389417	0.920797	0.022056	0	0	0
13765	0	0	0	0	0	9.855631	-0.099741	0.192838	-0.000470	0.003903	-0.001690	-0.745605	0.507080	-0.431152	0.599162	-0.391237	-0.579565	-0.389927	-37.358258	-88.408546	-29.708034	0.024122	-0.013764	0.999614	0.920753	0.389782	-0.016852	-0.389400	0.920804	0.022075	0	0	0
13766	0	0	0	0	0	9.837560	-0.111817	0.204526	-0.001727	0.008933	0.000124	-0.752441	0.503418	-0.421875	0.599173	-0.391229	-0.579541	-0.389954	-37.250689	-88.405859	-29.817482	0.024137	-0.013833	0.999613	0.920766	0.389752	-0.016839	-0.389368	0.920816	0.022144	0	0	0
13767	0	0	0	0	0	9.833876	-0.090265	0.169269	-0.004262	0.009791	0.000533	-0.742920	0.504395	-0.435791	0.599178	-0.391232	-0.579506	-0.389994	-37.137700	-88.402842	-29.934775	0.024154	-0.013909	0.999611	0.920795	0.389683	-0.016827	-0.389298	0.920844	0.022219	0	0	0
13768	0	0	0	0	0	9.848835	-0.109255	0.173891	-0.004262	0.009791	0.000533	-0.750244	0.504395	-0.429688	0.599187	-0.391232	-0.579474	-0.390029	-37.028436	-88.399611	-30.047372	0.024175	-0.013984	0.999610	0.920818	0.389630	-0.016819	-0.389243	0.920865	0.022296	0	0	0
13769	0	0	0	0	0	9.830751	-0.121471	0.186047	-0.001679	0.012733	0.000682	-0.743652	0.500000	-0.431641	0.599211	-0.391216	-0.579438	-0.390062	-36.878010	-88.395024	-30.199573	0.024207	-0.014089	0.999608	0.920830	0.389603	-0.016808	-0.389213	0.920875	0.022404	0	0	0
13770	0	0	0	0	0	9.830731	-0.121474	0.187090	-0.002957	0.008560	-0.000724	-0.748291	0.506348	-0.428955	0.599217	-0.391210	-0.579414	-0.390095	-36.763564	-88.392775	-30.316607	0.024212	-0.014158	0.999607	0.920847	0.389562	-0.016787	-0.389171	0.920892	0.022469	0	0	0
13771	0	0	0	0	0	9.805908	-0.143198	0.177527	-0.001210	0.008830	0.002372	-0.744141	0.502686	-0.425537	0.599232	-0.391207	-0.579386	-0.390115	-36.689856	-88.389440	-30.392036	0.024244	-0.014219	0.999605	0.920859	0.389534	-0.016793	-0.389142	0.920902	0.022538	0	0	0
13772	0	0	0	0	0	9.812630	-0.133784	0.199861	0.002753	0.008932	-0.000837	-0.744141	0.503174	-0.436279	0.599250	-0.391183	-0.579372	-0.390132	-36.566434	-88.387047	-30.514776	0.024249	-0.014292	0.999604	0.920854	0.389546	-0.016769	-0.389152	0.920896	0.022607	0	0	0
13773	0	0	0	0	0	9.845655	-0.140621	0.193235	0.001917	0.006261	0.002109	-0.743164	0.505371	-0.430176	0.599264	-0.391174	-0.579360	-0.390139	-36.518311	-88.384933	-30.562689	0.024269	-0.014331	0.999603	0.920853	0.389550	-0.016772	-0.389154	0.920894	0.022651	0	0	0
13774	0	0	0	0	0	9.819331	-0.124660	0.222768	0.001842	0.007868	0.004212	-0.745361	0.493652	-0.432861	0.599287	-0.391169	-0.579337	-0.390141	-36.491217	-88.381302	-30.589586	0.024317	-0.014375	0.999601	0.920851	0.389553	-0.016799	-0.389156	0.920892	0.022710	0	0	0
13775	0	0	0	0	0	9.812578	-0.134316	0.202049	0.003344	0.007221	-0.000693	-0.745850	0.508545	-0.425781	0.599302	-0.391144	-0.579331	-0.390152	-36.382908	-88.379741	-30.696480	0.024313	-0.014434	0.999600	0.920841	0.389576	-0.016772	-0.389179	0.920881	0.022763	0	0	0
13776	0	0	0	0	0	9.837363	-0.112815	0.213259	0.003786	0.008723	0.003659	-0.754639	0.503418	-0.433350	0.599331	-0.391130	-0.579312	-0.390152	-36.335840	-88.375900	-30.742244	0.024359	-0.014488	0.999598	0.920832	0.389598	-0.016793	-0.389198	0.920871	0.022831	0	0	0
13777	0	0	0	0	0	9.827512	-0.153709	0.207186	0.003738	0.004924	0.003101	-0.740967	0.500488	-0.427002	0.599343	-0.391124	-0.579303	-0.390150	-36.320837	-88.374182	-30.756580	0.024381	-0.014509	0.999597	0.920827	0.389609	-0.016805	-0.389208	0.920866	0.022860	0	0	0
13778	0	0	0	0	0	9.823866	-0.132376	0.171707	0.004500	0.009204	0.002258	-0.748291	0.498535	-0.433594	0.599372	-0.391103	-0.579286	-0.390154	-36.245190	-88.370594	-30.830526	0.024416	-0.014573	0.999596	0.920815	0.389637	-0.016812	-0.389234	0.920853	0.022932	0	0	0
13779	0	0	0	0	0	9.844037	-0.104175	0.236775	0.007504	0.004442	0.003541	-0.739746	0.507813	-0.432861	0.599394	-0.391084	-0.579288	-0.390135	-36.237823	-88.368906	-30.834264	0.024441	-0.014589	0.999595	0.920790	0.389695	-0.016826	-0.389292	0.920828	0.022958	0	0	0
13780	0	0	0	0	0	9.837298	-0.114012	0.215590	0.008687	0.001018	0.003832	-0.744141	0.501465	-0.435791	0.599410	-0.391071	-0.579300	-0.390106	-36.282936	-88.368565	-30.785001	0.024458	-0.014571	0.999595	0.920761	0.389762	-0.016848	-0.389359	0.920800	0.022950	0	0	0
13781	0	0	0	0	0	9.805756	-0.145635	0.183851	0.006667	0.001771	0.006487	-0.746338	0.495117	-0.426514	0.599431	-0.391068	-0.579301	-0.390075	-36.357505	-88.366912	-30.707159	0.024503	-0.014553	0.999594	0.920738	0.389815	-0.016895	-0.389411	0.920778	0.022951	0	0	0
13782	0	0	0	0	0	9.822314	-0.095973	0.212243	0.005635	0.001980	0.001991	-0.752930	0.502441	-0.435791	0.599440	-0.391057	-0.579309	-0.390061	-36.363023	-88.366750	-30.699257	0.024507	-0.014551	0.999594	0.920722	0.389853	-0.016899	-0.389449	0.920762	0.022952	0	0	0
13783	0	0	0	0	0	9.819197	-0.127416	0.227056	0.006028	-0.000316	0.005785	-0.741943	0.498779	-0.427979	0.599450	-0.391057	-0.579318	-0.390031	-36.447657	-88.366602	-30.611713	0.024532	-0.014515	0.999594	0.920701	0.389900	-0.016934	-0.389496	0.920743	0.022929	0	0	0
13784	0	0	0	0	0	9.822306	-0.096638	0.212296	0.003766	-0.000482	0.000441	-0.741211	0.506836	-0.430664	0.599445	-0.391052	-0.579332	-0.390023	-36.458585	-88.368102	-30.599470	0.024512	-0.014496	0.999594	0.920693	0.389921	-0.016923	-0.389517	0.920734	0.022905	0	0	0
13785	0	0	0	0	0	9.840382	-0.084569	0.201313	0.004405	0.001605	0.001143	-0.739502	0.506104	-0.432861	0.599448	-0.391044	-0.579339	-0.390017	-36.451111	-88.368452	-30.605563	0.024506	-0.014496	0.999595	0.920684	0.389943	-0.016916	-0.389540	0.920725	0.022902	0	0	0
13786	0	0	0	0	0	9.855343	-0.103537	0.205188	0.005119	0.002085	-0.000258	-0.747314	0.498047	-0.429199	0.599452	-0.391027	-0.579349	-0.390012	-36.419277	-88.369007	-30.635324	0.024490	-0.014504	0.999595	0.920670	0.389976	-0.016898	-0.389573	0.920711	0.022903	0	0	0
13787	0	0	0	0	0	9.837261	-0.115667	0.216397	0.003175	0.001230	0.000295	-0.748535	0.506836	-0.426025	0.599450	-0.391019	-0.579358	-0.390010	-36.401653	-88.369838	-30.651984	0.024473	-0.014503	0.999595	0.920664	0.389992	-0.016882	-0.389589	0.920704	0.022897	0	0	0
13788	0	0	0	0	0	9.852224	-0.134652	0.220169	0.001230	0.000375	0.000848	-0.742432	0.499512	-0.426514	0.599444	-0.391021	-0.579363	-0.390010	-36.410358	-88.370805	-30.643418	0.024461	-0.014491	0.999596	0.920665	0.389989	-0.016876	-0.389587	0.920705	0.022881	0	0	0
13789	0	0	0	0	0	9.837252	-0.115815	0.216725	0.006988	0.004548	0.001291	-0.742920	0.497314	-0.431641	0.599458	-0.391003	-0.579365	-0.390004	-36.369417	-88.369880	-30.682023	0.024465	-0.014516	0.999595	0.920649	0.390027	-0.016869	-0.389624	0.920689	0.022906	0	0	0
13790	0	0	0	0	0	9.804198	-0.109210	0.224484	0.000564	0.003696	0.002804	-0.747803	0.501221	-0.426514	0.599463	-0.391006	-0.579356	-0.390007	-36.370553	-88.368650	-30.681411	0.024483	-0.014526	0.999595	0.920652	0.390019	-0.016882	-0.389615	0.920692	0.022923	0	0	0
13791	0	0	0	0	0	9.852188	-0.135215	0.221423	0.002556	0.008351	0.002807	-0.743896	0.498779	-0.427246	0.599485	-0.390993	-0.579337	-0.390014	-36.307877	-88.365453	-30.743521	0.024516	-0.014582	0.999593	0.920648	0.390028	-0.016890	-0.389623	0.920687	0.022986	0	0	0
13792	0	0	0	0	0	9.819126	-0.128658	0.229407	0.002508	0.004551	0.002251	-0.742432	0.499512	-0.432861	0.599496	-0.390987	-0.579330	-0.390013	-36.288847	-88.364016	-30.761969	0.024533	-0.014602	0.999592	0.920644	0.390038	-0.016897	-0.389632	0.920683	0.023012	0	0	0
13793	0	0	0	0	0	9.843922	-0.107243	0.240193	0.003099	0.002839	0.002397	-0.747803	0.498291	-0.431885	0.599503	-0.390981	-0.579330	-0.390008	-36.284867	-88.363442	-30.764886	0.024540	-0.014609	0.999592	0.920636	0.390055	-0.016901	-0.389649	0.920676	0.023021	0	0	0
13794	0	0	0	0	0	9.825833	-0.119501	0.251436	0.003174	0.001230	0.000295	-0.748291	0.503174	-0.432617	0.599502	-0.390974	-0.579338	-0.390006	-36.273262	-88.364202	-30.775524	0.024526	-0.014606	0.999592	0.920630	0.390071	-0.016889	-0.389665	0.920669	0.023014	0	0	0
13795	0	0	0	0	0	9.830462	-0.126491	0.197620	-0.000075	0.001609	0.002102	-0.748779	0.509277	-0.430176	0.599499	-0.390978	-0.579337	-0.390008	-36.280018	-88.364336	-30.769425	0.024526	-0.014603	0.999593	0.920635	0.390060	-0.016890	-0.389654	0.920674	0.023010	0	0	0
13796	0	0	0	0	0	9.855262	-0.105160	0.208215	0.006150	0.001877	0.004239	-0.745850	0.499023	-0.427734	0.599513	-0.390972	-0.579341	-0.389986	-36.322783	-88.363459	-30.723965	0.024551	-0.014591	0.999592	0.920616	0.390103	-0.016917	-0.389697	0.920655	0.023010	0	0	0
13797	0	0	0	0	0	9.837169	-0.117492	0.219580	0.001993	0.004655	0.000003	-0.747803	0.506104	-0.424561	0.599516	-0.390963	-0.579336	-0.389998	-36.261943	-88.362896	-30.785082	0.024543	-0.014622	0.999592	0.920618	0.390099	-0.016898	-0.389693	0.920657	0.023036	0	0	0
13798	0	0	0	0	0	9.830434	-0.127155	0.198574	-0.001972	0.004555	0.003210	-0.747559	0.497070	-0.422852	0.599520	-0.390973	-0.579318	-0.390008	-36.260989	-88.361132	-30.788014	0.024569	-0.014639	0.999591	0.920631	0.390068	-0.016916	-0.389660	0.920670	0.023061	0	0	0
13799	0	0	0	0	0	9.832497	-0.110995	0.274649	0.003271	0.008831	0.001406	-0.750732	0.502686	-0.430176	0.599538	-0.390959	-0.579299	-0.390023	-36.173465	-88.358295	-30.875587	0.024589	-0.014702	0.999590	0.920631	0.390067	-0.016910	-0.389659	0.920669	0.023127	0	0	0
13800	0	0	0	0	0	9.837121	-0.118042	0.221438	0.001917	0.006264	0.002104	-0.747559	0.503906	-0.431641	0.599552	-0.390951	-0.579286	-0.390028	-36.132423	-88.356114	-30.916396	0.024611	-0.014739	0.999588	0.920629	0.390071	-0.016916	-0.389662	0.920667	0.023169	0	0	0
13801	0	0	0	0	0	9.843821	-0.108703	0.243644	0.003271	0.008832	0.001405	-0.747803	0.496094	-0.432373	0.599574	-0.390932	-0.579270	-0.390039	-36.042982	-88.353149	-31.005045	0.024633	-0.014804	0.999587	0.920624	0.390085	-0.016910	-0.389673	0.920660	0.023238	0	0	0
13802	0	0	0	0	0	9.810755	-0.102078	0.251695	0.005682	0.005782	0.002546	-0.747070	0.493164	-0.429688	0.599595	-0.390915	-0.579265	-0.390031	-36.012827	-88.351040	-31.032804	0.024657	-0.014835	0.999586	0.920607	0.390123	-0.016919	-0.389711	0.920643	0.023276	0	0	0
13803	0	0	0	0	0	9.843785	-0.109153	0.244900	0.003738	0.004928	0.003098	-0.743652	0.500488	-0.428711	0.599612	-0.390902	-0.579261	-0.390024	-35.991499	-88.349390	-31.052196	0.024677	-0.014858	0.999585	0.920594	0.390155	-0.016927	-0.389741	0.920629	0.023306	0	0	0
13804	0	0	0	0	0	9.837052	-0.118881	0.224037	0.003862	0.007120	0.001551	-0.739746	0.503662	-0.427734	0.599631	-0.390885	-0.579250	-0.390027	-35.930934	-88.346994	-31.111420	0.024697	-0.014905	0.999584	0.920584	0.390177	-0.016927	-0.389762	0.920619	0.023358	0	0	0
13805	0	0	0	0	0	9.828794	-0.090782	0.242356	0.008018	0.004343	0.005788	-0.743896	0.500977	-0.424316	0.599658	-0.390874	-0.579246	-0.390003	-35.964199	-88.344542	-31.074809	0.024743	-0.014911	0.999583	0.920561	0.390231	-0.016966	-0.389815	0.920596	0.023382	0	0	0
13806	0	0	0	0	0	9.825635	-0.122206	0.257796	0.000735	0.009691	0.001810	-0.739990	0.501221	-0.424072	0.599679	-0.390862	-0.579221	-0.390019	-35.879954	-88.340865	-31.159515	0.024776	-0.014981	0.999581	0.920564	0.390224	-0.016969	-0.389806	0.920598	0.023459	0	0	0
13807	0	0	0	0	0	9.830279	-0.129482	0.204663	0.004891	0.006914	0.006047	-0.751465	0.496094	-0.429932	0.599705	-0.390859	-0.579202	-0.390010	-35.890349	-88.337227	-31.148054	0.024834	-0.015009	0.999579	0.920555	0.390242	-0.017011	-0.389822	0.920590	0.023508	0	0	0
13808	0	0	0	0	0	9.807062	-0.082625	0.219522	0.002480	0.009964	0.004905	-0.747314	0.499512	-0.429199	0.599736	-0.390851	-0.579174	-0.390013	-35.851903	-88.332382	-31.185943	0.024896	-0.015069	0.999576	0.920551	0.390251	-0.017044	-0.389829	0.920585	0.023588	0	0	0
13809	0	0	0	0	0	9.869986	-0.127759	0.220613	0.001250	0.009589	0.004057	-0.743408	0.495361	-0.432617	0.599762	-0.390842	-0.579147	-0.390022	-35.796217	-88.328274	-31.241689	0.024943	-0.015131	0.999574	0.920550	0.390251	-0.017063	-0.389827	0.920584	0.023662	0	0	0
13810	0	0	0	0	0	9.869957	-0.128050	0.221712	0.003319	0.012636	0.001957	-0.744385	0.500244	-0.426514	0.599797	-0.390817	-0.579118	-0.390036	-35.680384	-88.323171	-31.356517	0.024988	-0.015227	0.999572	0.920543	0.390268	-0.017067	-0.389841	0.920575	0.023769	0	0	0
13811	0	0	0	0	0	9.854977	-0.109220	0.219348	0.003444	0.014828	0.000409	-0.740234	0.504639	-0.434814	0.599835	-0.390781	-0.579087	-0.390060	-35.507949	-88.317719	-31.527762	0.025024	-0.015351	0.999569	0.920535	0.390288	-0.017051	-0.389858	0.920565	0.023898	0	0	0
13812	0	0	0	0	0	9.818747	-0.133544	0.242480	0.003861	0.007122	0.001550	-0.749756	0.500977	-0.435059	0.599855	-0.390763	-0.579076	-0.390063	-35.449147	-88.315309	-31.585225	0.025044	-0.015398	0.999568	0.920526	0.390310	-0.017051	-0.389879	0.920555	0.023949	0	0	0
13813	0	0	0	0	0	9.854931	-0.109387	0.221310	0.007160	0.010545	0.000298	-0.745361	0.504883	-0.432129	0.599890	-0.390723	-0.579065	-0.390066	-35.323112	-88.311740	-31.707691	0.025064	-0.015485	0.999566	0.920501	0.390368	-0.017034	-0.389935	0.920529	0.024038	0	0	0
13814	0	0	0	0	0	9.825007	-0.071693	0.215096	-0.000523	0.014731	0.003613	-0.739258	0.503662	-0.430176	0.599927	-0.390710	-0.579019	-0.390090	-35.214832	-88.305082	-31.817167	0.025133	-0.015594	0.999562	0.920509	0.390350	-0.017056	-0.389913	0.920534	0.024165	0	0	0
13815	0	0	0	0	0	9.858019	-0.078935	0.209549	0.000164	0.020623	0.004866	-0.742432	0.507813	-0.434570	0.599983	-0.390688	-0.578953	-0.390123	-35.057456	-88.295269	-31.975672	0.025235	-0.015754	0.999557	0.920515	0.390333	-0.017088	-0.389892	0.920539	0.024352	0	0	0
13816	0	0	0	0	0	9.834776	-0.032117	0.225508	-0.002497	0.019291	0.006818	-0.747314	0.494873	-0.429688	0.600036	-0.390682	-0.578883	-0.390152	-34.952656	-88.285402	-32.082798	0.025351	-0.015892	0.999552	0.920529	0.390298	-0.017142	-0.389851	0.920552	0.024524	0	0	0
13817	0	0	0	0	0	9.824868	-0.073436	0.220808	-0.000630	0.021758	0.008366	-0.749756	0.507568	-0.433105	0.600102	-0.390668	-0.578807	-0.390177	-34.838639	-88.273975	-32.198016	0.025488	-0.016049	0.999546	0.920535	0.390280	-0.017207	-0.389827	0.920556	0.024722	0	0	0
13818	0	0	0	0	0	9.803517	-0.117282	0.248831	0.000212	0.024431	0.005417	-0.745117	0.501221	-0.430908	0.600172	-0.390639	-0.578730	-0.390213	-34.657803	-88.262132	-32.379662	0.025612	-0.016241	0.999540	0.920539	0.390269	-0.017246	-0.389810	0.920558	0.024946	0	0	0
13819	0	0	0	0	0	9.814891	-0.115322	0.218750	0.000724	0.024331	0.007664	-0.741211	0.504395	-0.438232	0.600245	-0.390616	-0.578649	-0.390243	-34.509585	-88.249727	-32.528691	0.025752	-0.016424	0.999533	0.920543	0.390258	-0.017304	-0.389792	0.920559	0.025169	0	0	0
13820	0	0	0	0	0	9.818311	-0.137570	0.257423	-0.001096	0.025671	0.006666	-0.753662	0.508057	-0.428711	0.600319	-0.390593	-0.578563	-0.390281	-34.340395	-88.236863	-32.699437	0.025892	-0.016622	0.999527	0.920552	0.390235	-0.017356	-0.389762	0.920565	0.025405	0	0	0
13821	0	0	0	0	0	9.833166	-0.157168	0.263780	-0.001687	0.027387	0.006516	-0.744873	0.502686	-0.423096	0.600394	-0.390568	-0.578470	-0.390328	-34.149122	-88.223316	-32.892929	0.026034	-0.016837	0.999519	0.920565	0.390202	-0.017404	-0.389721	0.920575	0.025658	0	0	0
13822	0	0	0	0	0	9.809891	-0.110225	0.280313	-0.004066	0.025026	0.002716	-0.743164	0.500488	-0.430176	0.600453	-0.390543	-0.578388	-0.390385	-33.933249	-88.211990	-33.112085	0.026135	-0.017045	0.999513	0.920586	0.390151	-0.017418	-0.389664	0.920593	0.025888	0	0	0
13823	0	0	0	0	0	9.824749	-0.129626	0.286349	-0.006856	0.021502	0.006213	-0.740479	0.510010	-0.436768	0.600498	-0.390547	-0.578302	-0.390438	-33.806312	-88.201429	-33.244694	0.026249	-0.017206	0.999507	0.920623	0.390062	-0.017463	-0.389569	0.920628	0.026079	0	0	0
13824	0	0	0	0	0	9.836158	-0.127555	0.256209	-0.011084	0.025896	0.004067	-0.744873	0.500244	-0.433105	0.600547	-0.390546	-0.578201	-0.390514	-33.610922	-88.189219	-33.447383	0.026366	-0.017416	0.999501	0.920671	0.389947	-0.017492	-0.389447	0.920673	0.026316	0	0	0
13825	0	0	0	0	0	9.846156	-0.140221	0.316707	-0.015598	0.031322	0.007668	-0.744629	0.505371	-0.428711	0.600611	-0.390556	-0.578067	-0.390603	-33.416122	-88.173260	-33.652062	0.026535	-0.017665	0.999492	0.920736	0.389791	-0.017555	-0.389282	0.920734	0.026608	0	0	0
13826	0	0	0	0	0	9.864183	-0.129108	0.308987	-0.019522	0.035035	0.011416	-0.748047	0.506836	-0.429443	0.600685	-0.390583	-0.577908	-0.390698	-33.251513	-88.154320	-33.828795	0.026755	-0.017930	0.999481	0.920815	0.389599	-0.017660	-0.389080	0.920810	0.026934	0	0	0
13827	0	0	0	0	0	9.893887	-0.168397	0.320132	-0.023447	0.038751	0.015162	-0.741211	0.511475	-0.431885	0.600764	-0.390630	-0.577720	-0.390807	-33.108991	-88.132600	-33.986655	0.027020	-0.018216	0.999469	0.920915	0.389356	-0.017800	-0.388825	0.920907	0.027296	0	0	0
13828	0	0	0	0	0	9.898634	-0.176870	0.270095	-0.022810	0.040849	0.015858	-0.742188	0.500000	-0.429688	0.600857	-0.390669	-0.577528	-0.390910	-32.962979	-88.109451	-34.146670	0.027303	-0.018518	0.999456	0.921006	0.389135	-0.017950	-0.388591	0.920995	0.027680	0	0	0
13829	0	0	0	0	0	9.898595	-0.231166	0.325296	-0.027118	0.046868	0.015804	-0.742432	0.509521	-0.437256	0.600956	-0.390711	-0.577307	-0.391041	-32.763327	-88.083489	-34.363457	0.027606	-0.018877	0.999441	0.921117	0.388864	-0.018098	-0.388305	0.921102	0.028123	0	0	0
13830	0	0	0	0	0	9.916563	-0.220765	0.319331	-0.027024	0.054495	0.016902	-0.742188	0.509766	-0.437256	0.601082	-0.390738	-0.577064	-0.391180	-32.518713	-88.053398	-34.624551	0.027952	-0.019301	0.999423	0.921224	0.388605	-0.018260	-0.388028	0.921202	0.028642	0	0	0
13831	0	0	0	0	0	9.853494	-0.230208	0.375723	-0.036655	0.066746	0.012292	-0.735107	0.505127	-0.434570	0.601215	-0.390757	-0.576773	-0.391385	-32.110877	-88.018681	-35.054612	0.028302	-0.019858	0.999402	0.921369	0.388253	-0.018378	-0.387656	0.921339	0.029285	0	0	0
13832	0	0	0	0	0	9.881249	-0.231881	0.429571	-0.046203	0.077736	0.017218	-0.735596	0.500977	-0.442139	0.601371	-0.390797	-0.576421	-0.391623	-31.700592	-87.977079	-35.492485	0.028740	-0.020495	0.999377	0.921550	0.387817	-0.018549	-0.387195	0.921508	0.030033	0	0	0
13833	0	0	0	0	0	9.862647	-0.245971	0.448506	-0.058716	0.088097	0.018180	-0.739990	0.508301	-0.429932	0.601538	-0.390853	-0.576013	-0.391912	-31.236270	-87.929898	-35.990862	0.029227	-0.021227	0.999347	0.921773	0.387278	-0.018732	-0.386628	0.921719	0.030886	0	0	0
13834	0	0	0	0	0	9.812777	-0.238225	0.385247	-0.067889	0.096475	0.015240	-0.740479	0.504883	-0.427979	0.601701	-0.390916	-0.575566	-0.392255	-30.699006	-87.879427	-36.568257	0.029718	-0.022045	0.999315	0.922037	0.386641	-0.018891	-0.385960	0.921967	0.031817	0	0	0
13835	0	0	0	0	0	9.767535	-0.235683	0.434833	-0.076835	0.114696	0.011850	-0.743164	0.508301	-0.434326	0.601888	-0.390964	-0.575051	-0.392676	-30.008241	-87.820872	-37.305438	0.030245	-0.023045	0.999277	0.922343	0.385905	-0.019017	-0.385188	0.922251	0.032927	0	0	0
13836	0	0	0	0	0	9.717493	-0.279865	0.424921	-0.088787	0.128493	0.003932	-0.738770	0.506348	-0.430420	0.602080	-0.390995	-0.574488	-0.393175	-29.164300	-87.757152	-38.201767	0.030754	-0.024202	0.999234	0.922689	0.385073	-0.019071	-0.384316	0.922569	0.034174	0	0	0
13837	0	0	0	0	0	9.707073	-0.320848	0.429990	-0.091669	0.126326	-0.002179	-0.739746	0.510254	-0.438477	0.602244	-0.391022	-0.573936	-0.393701	-28.304653	-87.695841	-39.116146	0.031193	-0.025365	0.999191	0.923052	0.384202	-0.019063	-0.383408	0.922901	0.035397	0	0	0
13838	0	0	0	0	0	9.705142	-0.389541	0.415897	-0.085432	0.102727	-0.009121	-0.740723	0.507080	-0.442627	0.602342	-0.391055	-0.573482	-0.394179	-27.557124	-87.647695	-39.914131	0.031481	-0.026335	0.999157	0.923388	0.383397	-0.018988	-0.382574	0.923208	0.036387	0	0	0
13839	0	0	0	0	0	9.769626	-0.471234	0.386275	-0.083404	0.092780	-0.015006	-0.734863	0.505859	-0.439453	0.602405	-0.391081	-0.573075	-0.394649	-26.824027	-87.605726	-40.696176	0.031673	-0.027240	0.999127	0.923716	0.382615	-0.018851	-0.381767	0.923506	0.037281	0	0	0
13840	0	0	0	0	0	9.764996	-0.516798	0.333446	-0.080736	0.084920	-0.020181	-0.735107	0.502930	-0.444092	0.602439	-0.391103	-0.572705	-0.395112	-26.104544	-87.568725	-41.463446	0.031789	-0.028089	0.999100	0.924036	0.381849	-0.018666	-0.380981	0.923798	0.038094	0	0	0
13841	0	0	0	0	0	9.760511	-0.561980	0.280158	-0.072492	0.084447	-0.020647	-0.735840	0.510254	-0.438721	0.602491	-0.391093	-0.572357	-0.395549	-25.393763	-87.531594	-42.216279	0.031897	-0.028939	0.999072	0.924318	0.381176	-0.018469	-0.380288	0.924050	0.038907	0	0	0
13842	0	0	0	0	0	9.751096	-0.547445	0.230238	-0.066692	0.083230	-0.022826	-0.732422	0.505127	-0.433350	0.602542	-0.391068	-0.572025	-0.395976	-24.688214	-87.495321	-42.961590	0.031981	-0.029783	0.999045	0.924585	0.380539	-0.018253	-0.379631	0.924285	0.039706	0	0	0
13843	0	0	0	0	0	9.811005	-0.568164	0.202735	-0.065973	0.083754	-0.024242	-0.740723	0.499268	-0.440430	0.602592	-0.391035	-0.571695	-0.396408	-23.980748	-87.458707	-43.708596	0.032051	-0.030638	0.999017	0.924850	0.379904	-0.018021	-0.378979	0.924518	0.040512	0	0	0
13844	0	0	0	0	0	9.832710	-0.522678	0.185709	-0.063041	0.084414	-0.020288	-0.744385	0.510742	-0.440918	0.602658	-0.391004	-0.571361	-0.396819	-23.338085	-87.420460	-44.388906	0.032162	-0.031483	0.998987	0.925102	0.379301	-0.017829	-0.378355	0.924738	0.041324	0	0	0
13845	0	0	0	0	0	9.865827	-0.527479	0.187437	-0.062104	0.094797	-0.022121	-0.735596	0.507568	-0.447021	0.602753	-0.390939	-0.571005	-0.397252	-22.636128	-87.376907	-45.127441	0.032289	-0.032433	0.998952	0.925346	0.378715	-0.017614	-0.377747	0.924945	0.042240	0	0	0
13846	0	0	0	0	0	9.899562	-0.479220	0.139798	-0.061050	0.102251	-0.016517	-0.736572	0.505859	-0.434570	0.602881	-0.390877	-0.570614	-0.397681	-21.993654	-87.327682	-45.806466	0.032501	-0.033429	0.998913	0.925587	0.378131	-0.017461	-0.377136	0.925148	0.043231	0	0	0
13847	0	0	0	0	0	9.902281	-0.499484	0.186199	-0.066916	0.114153	-0.020724	-0.734619	0.504150	-0.439697	0.603025	-0.390793	-0.570185	-0.398161	-21.275012	-87.272622	-46.564669	0.032716	-0.034553	0.998867	0.925849	0.377498	-0.017266	-0.376474	0.925366	0.044341	0	0	0
13848	0	0	0	0	0	9.895923	-0.506990	0.175515	-0.066539	0.115701	-0.016401	-0.734375	0.508545	-0.447754	0.603180	-0.390721	-0.569741	-0.398631	-20.630893	-87.215445	-47.248550	0.032977	-0.035673	0.998819	0.926111	0.376862	-0.017117	-0.375807	0.925582	0.045465	0	0	0
13849	0	0	0	0	0	9.880154	-0.539860	0.233104	-0.071639	0.117511	-0.015696	-0.730713	0.509766	-0.444580	0.603335	-0.390656	-0.569283	-0.399113	-20.012723	-87.156723	-47.908559	0.033250	-0.036810	0.998769	0.926386	0.376193	-0.016976	-0.375105	0.925810	0.046609	0	0	0
13850	0	0	0	0	0	9.852756	-0.537851	0.196568	-0.069910	0.108552	-0.015842	-0.740723	0.507324	-0.441895	0.603464	-0.390609	-0.568853	-0.399577	-19.455802	-87.102607	-48.507135	0.033489	-0.037862	0.998722	0.926659	0.375525	-0.016836	-0.374408	0.926038	0.047661	0	0	0
13851	0	0	0	0	0	9.834362	-0.533285	0.292556	-0.093204	0.101913	-0.020724	-0.733154	0.509766	-0.448975	0.603520	-0.390629	-0.568407	-0.400107	-18.902524	-87.052696	-49.115013	0.033655	-0.038873	0.998677	0.927018	0.374647	-0.016657	-0.373504	0.926352	0.048645	0	0	0
13852	0	0	0	0	0	9.824511	-0.587099	0.218818	-0.064041	0.101968	-0.020685	-0.740479	0.504883	-0.443604	0.603632	-0.390563	-0.568018	-0.400556	-18.355578	-87.002473	-49.700286	0.033822	-0.039882	0.998632	0.927270	0.374031	-0.016468	-0.372862	0.926558	0.049632	0	0	0
13853	0	0	0	0	0	9.839198	-0.588887	0.308104	-0.089669	0.106096	-0.025641	-0.736572	0.507568	-0.440674	0.603698	-0.390547	-0.567577	-0.401096	-17.773056	-86.950558	-50.334973	0.033956	-0.040951	0.998584	0.927613	0.373190	-0.016238	-0.371997	0.926851	0.050659	0	0	0
13854	0	0	0	0	0	9.820763	-0.614021	0.253255	-0.067939	0.118671	-0.024881	-0.733643	0.499512	-0.451904	0.603841	-0.390447	-0.567137	-0.401600	-17.171537	-86.891326	-50.977193	0.034145	-0.042131	0.998528	0.927880	0.372536	-0.016011	-0.371313	0.927061	0.051813	0	0	0
13855	0	0	0	0	0	9.823891	-0.565229	0.326686	-0.089010	0.130476	-0.029624	-0.719971	0.504150	-0.445313	0.603969	-0.390366	-0.566633	-0.402197	-16.518015	-86.826029	-51.682388	0.034329	-0.043441	0.998466	0.928218	0.371703	-0.015742	-0.370449	0.927335	0.053083	0	0	0
13856	0	0	0	0	0	9.762365	-0.608923	0.347638	-0.074112	0.126272	-0.026082	-0.730225	0.505127	-0.445801	0.604118	-0.390266	-0.566159	-0.402737	-15.935082	-86.762071	-52.309613	0.034533	-0.044696	0.998404	0.928507	0.370990	-0.015507	-0.369705	0.927561	0.054312	0	0	0
13857	0	0	0	0	0	9.796041	-0.544723	0.378999	-0.081062	0.125642	-0.027007	-0.730225	0.499512	-0.434814	0.604254	-0.390180	-0.565678	-0.403294	-15.370187	-86.698093	-52.921773	0.034726	-0.045952	0.998340	0.928815	0.370228	-0.015266	-0.368912	0.927804	0.055537	0	0	0
13858	0	0	0	0	0	9.767735	-0.595147	0.393392	-0.090393	0.131969	-0.028553	-0.729980	0.505371	-0.444336	0.604381	-0.390110	-0.565158	-0.403898	-14.804873	-86.630667	-53.540774	0.034925	-0.047269	0.998271	0.929164	0.369362	-0.015018	-0.368013	0.928083	0.056821	0	0	0
13859	0	0	0	0	0	9.770957	-0.561253	0.391976	-0.075067	0.134456	-0.029588	-0.729248	0.500488	-0.448975	0.604542	-0.389984	-0.564665	-0.404467	-14.235071	-86.561793	-54.155464	0.035119	-0.048614	0.998200	0.929456	0.368637	-0.014747	-0.367256	0.928301	0.058131	0	0	0
13860	0	0	0	0	0	9.784168	-0.631169	0.458353	-0.080397	0.137069	-0.034838	-0.738037	0.501465	-0.452637	0.604690	-0.389856	-0.564162	-0.405071	-13.641791	-86.491690	-54.796834	0.035277	-0.050002	0.998126	0.929770	0.367859	-0.014432	-0.366448	0.928536	0.059467	0	0	0
13861	0	0	0	0	0	9.792744	-0.655949	0.453656	-0.060399	0.145617	-0.037667	-0.726074	0.503174	-0.454834	0.604901	-0.389631	-0.563685	-0.405637	-13.012513	-86.416766	-55.461098	0.035434	-0.051483	0.998045	0.929999	0.367292	-0.014072	-0.365850	0.928680	0.060894	0	0	0
13862	0	0	0	0	0	9.779676	-0.655878	0.499485	-0.072926	0.146907	-0.040197	-0.738525	0.509521	-0.443115	0.605080	-0.389444	-0.563177	-0.406255	-12.398216	-86.341020	-56.119340	0.035576	-0.052982	0.997962	0.930286	0.366579	-0.013702	-0.365106	0.928877	0.062330	0	0	0
13863	0	0	0	0	0	9.769780	-0.692554	0.505763	-0.043445	0.155292	-0.042424	-0.731934	0.494141	-0.454590	0.605336	-0.389140	-0.562710	-0.406810	-11.755885	-86.260399	-56.788064	0.035725	-0.054568	0.997871	0.930461	0.366150	-0.013288	-0.364646	0.928954	0.063854	0	0	0
13864	0	0	0	0	0	9.763781	-0.629040	0.525094	-0.053871	0.159696	-0.047015	-0.728516	0.507080	-0.449463	0.605574	-0.388850	-0.562215	-0.407420	-11.104300	-86.177338	-57.472852	0.035848	-0.056211	0.997775	0.930680	0.365609	-0.012840	-0.364074	0.929070	0.065420	0	0	0
13865	0	0	0	0	0	9.744685	-0.637250	0.550896	-0.020889	0.170791	-0.044442	-0.725342	0.501465	-0.460938	0.605915	-0.388436	-0.561752	-0.407944	-10.462343	-86.087228	-58.127711	0.036031	-0.057949	0.997669	0.930769	0.365398	-0.012391	-0.363828	0.929046	0.067103	0	0	0
13866	0	0	0	0	0	9.705081	-0.567059	0.577383	-0.051796	0.166863	-0.048631	-0.737305	0.503418	-0.465088	0.606172	-0.388120	-0.561241	-0.408566	-9.843266	-85.999301	-58.778864	0.036164	-0.059664	0.997563	0.930981	0.364873	-0.011927	-0.363273	0.929143	0.068742	0	0	0
13867	0	0	0	0	0	9.667333	-0.587523	0.613045	-0.018116	0.166924	-0.049092	-0.734131	0.497803	-0.448242	0.606502	-0.387686	-0.560807	-0.409083	-9.224662	-85.910697	-59.407842	0.036292	-0.061386	0.997454	0.931055	0.364700	-0.011432	-0.363070	0.929099	0.070389	0	0	0
13868	0	0	0	0	0	9.658985	-0.432415	0.623697	-0.050687	0.162766	-0.056487	-0.731934	0.501221	-0.456543	0.606733	-0.387353	-0.560325	-0.409717	-8.602579	-85.824836	-60.061511	0.036335	-0.063091	0.997346	0.931265	0.364179	-0.010890	-0.362526	0.929190	0.071987	0	0	0
13869	0	0	0	0	0	9.673177	-0.514675	0.617448	-0.002065	0.173931	-0.050851	-0.729492	0.494141	-0.457520	0.607101	-0.386861	-0.559901	-0.410218	-8.005564	-85.731826	-60.661735	0.036466	-0.064879	0.997227	0.931295	0.364120	-0.010365	-0.362437	0.929090	0.073700	0	0	0
13870	0	0	0	0	0	9.679514	-0.378317	0.632496	-0.036131	0.161033	-0.056685	-0.727295	0.496826	-0.456543	0.607354	-0.386486	-0.559453	-0.410807	-7.426504	-85.645999	-61.264048	0.036500	-0.066569	0.997114	0.931452	0.363732	-0.009813	-0.362029	0.929122	0.075282	0	0	0
13871	0	0	0	0	0	9.772370	-0.515373	0.520964	-0.035536	0.174840	-0.054321	-0.725098	0.491455	-0.464111	0.607653	-0.386081	-0.558964	-0.411411	-6.871583	-85.551733	-61.840932	0.036602	-0.068379	0.996988	0.931600	0.363365	-0.009279	-0.361636	0.929134	0.077002	0	0	0
13872	0	0	0	0	0	9.823366	-0.435851	0.549009	-0.056627	0.176043	-0.053097	-0.731934	0.490967	-0.467041	0.607915	-0.385747	-0.558421	-0.412075	-6.363457	-85.456274	-62.384020	0.036722	-0.070195	0.996857	0.931830	0.362788	-0.008780	-0.361031	0.929224	0.078732	0	0	0
13873	0	0	0	0	0	9.898239	-0.479963	0.649414	-0.024445	0.194470	-0.047803	-0.722656	0.494385	-0.461914	0.608305	-0.385282	-0.557883	-0.412662	-5.878915	-85.349562	-62.883456	0.036955	-0.072165	0.996708	0.931932	0.362537	-0.008304	-0.360744	0.929171	0.080650	0	0	0
13874	0	0	0	0	0	9.891288	-0.416317	0.673066	-0.025528	0.197315	-0.042301	-0.731445	0.498291	-0.459473	0.608707	-0.384838	-0.557317	-0.413246	-5.456575	-85.240672	-63.322748	0.037251	-0.074138	0.996552	0.932046	0.362254	-0.007890	-0.360420	0.929126	0.082594	0	0	0
13875	0	0	0	0	0	9.945321	-0.451582	0.749109	-0.015485	0.200206	-0.032959	-0.726563	0.493652	-0.468994	0.609156	-0.384383	-0.556746	-0.413779	-5.107476	-85.129453	-63.682657	0.037642	-0.076105	0.996389	0.932119	0.362073	-0.007559	-0.360191	0.929038	0.084568	0	0	0
13876	0	0	0	0	0	9.958046	-0.399199	0.800590	0.000857	0.220274	-0.028551	-0.718994	0.497070	-0.467529	0.609700	-0.383849	-0.556137	-0.414292	-4.784025	-85.006333	-64.007665	0.038148	-0.078241	0.996204	0.932133	0.362044	-0.007260	-0.360102	0.928871	0.086742	0	0	0
13877	0	0	0	0	0	9.989839	-0.403089	0.817815	0.003335	0.231998	-0.019262	-0.729248	0.493896	-0.468750	0.610301	-0.383306	-0.555481	-0.414789	-4.527528	-84.875913	-64.263609	0.038783	-0.080453	0.996004	0.932131	0.362053	-0.007050	-0.360039	0.928679	0.089034	0	0	0
13878	0	0	0	0	0	9.989190	-0.424095	0.878133	0.019313	0.259253	-0.010103	-0.727295	0.493652	-0.479736	0.611025	-0.382686	-0.554755	-0.415267	-4.319381	-84.729461	-64.462353	0.039601	-0.082884	0.995772	0.932071	0.362209	-0.006918	-0.360104	0.928404	0.091598	0	0	0
13879	0	0	0	0	0	9.951993	-0.394321	0.874852	0.037384	0.285852	-0.003546	-0.731445	0.492676	-0.478271	0.611871	-0.381970	-0.553973	-0.415724	-4.138936	-84.567493	-64.622519	0.040575	-0.085538	0.995508	0.931941	0.362545	-0.006833	-0.360332	0.928033	0.094426	0	0	0
13880	0	0	0	0	0	9.929604	-0.383967	0.877002	0.043153	0.285694	0.002332	-0.722656	0.480713	-0.481201	0.612738	-0.381255	-0.553189	-0.416148	-4.000407	-84.405316	-64.737703	0.041605	-0.088167	0.995236	0.931791	0.362932	-0.006801	-0.360603	0.927635	0.097253	0	0	0
13881	0	0	0	0	0	9.936836	-0.365835	0.950631	0.077349	0.299830	0.004627	-0.720703	0.484131	-0.489502	0.613713	-0.380409	-0.552429	-0.416494	-3.856525	-84.234972	-64.838323	0.042708	-0.090918	0.994942	0.931514	0.363643	-0.006756	-0.361189	0.927091	0.100222	0	0	0
13882	0	0	0	0	0	10.059987	-0.407804	1.052958	0.106034	0.341634	0.006945	-0.726563	0.485596	-0.486816	0.614860	-0.379395	-0.551594	-0.416834	-3.701946	-84.040585	-64.933492	0.043987	-0.094045	0.994596	0.931133	0.364617	-0.006704	-0.362016	0.926396	0.103607	0	0	0
13883	0	0	0	0	0	10.033894	-0.284145	1.015553	0.117390	0.338917	0.006443	-0.722412	0.488037	-0.482422	0.616019	-0.378349	-0.550790	-0.417137	-3.547083	-83.847772	-65.022362	0.045254	-0.097147	0.994241	0.930711	0.365696	-0.006630	-0.362946	0.925650	0.106965	0	0	0
13884	0	0	0	0	0	10.183778	-0.295976	1.022421	0.138562	0.336717	0.003096	-0.718506	0.490234	-0.489746	0.617202	-0.377233	-0.550041	-0.417388	-3.371124	-83.656279	-65.120359	0.046486	-0.100238	0.993877	0.930212	0.366966	-0.006497	-0.364068	0.924818	0.110302	0	0	0
13885	0	0	0	0	0	10.327078	-0.223648	1.134601	0.173671	0.387550	-0.008796	-0.713379	0.479248	-0.505615	0.618564	-0.375868	-0.549228	-0.417672	-3.110155	-83.436093	-65.283721	0.047796	-0.103839	0.993445	0.929588	0.368547	-0.006202	-0.365487	0.923791	0.114143	0	0	0
13886	0	0	0	0	0	10.207700	-0.228760	1.124027	0.209798	0.439867	-0.011908	-0.712891	0.477051	-0.505615	0.620128	-0.374271	-0.548333	-0.417963	-2.814761	-83.185938	-65.460961	0.049276	-0.107931	0.992936	0.928832	0.370456	-0.005826	-0.367210	0.922558	0.118505	0	0	0
13887	0	0	0	0	0	10.076268	-0.137065	1.158765	0.230464	0.449228	-0.010188	-0.709229	0.468750	-0.511963	0.621757	-0.372593	-0.547445	-0.418207	-2.530602	-82.930308	-65.615027	0.050814	-0.112097	0.992397	0.927994	0.372554	-0.005434	-0.369113	0.921215	0.122957	0	0	0
13888	0	0	0	0	0	9.963599	-0.054741	1.220533	0.264025	0.468376	-0.009835	-0.715820	0.471924	-0.507080	0.623496	-0.370769	-0.546563	-0.418391	-2.240768	-82.663588	-65.755541	0.052435	-0.116432	0.991813	0.927028	0.374958	-0.004993	-0.371307	0.919701	0.127597	0	0	0
13889	0	0	0	0	0	9.740736	0.050270	1.213995	0.293757	0.495331	-0.003278	-0.704102	0.472412	-0.512207	0.625374	-0.368812	-0.545643	-0.418520	-1.973411	-82.381251	-65.856281	0.054229	-0.120983	0.991172	0.925942	0.377638	-0.004566	-0.373752	0.918015	0.132502	0	0	0
13890	0	0	0	0	0	9.608599	0.163693	1.212977	0.326673	0.511201	0.008103	-0.700195	0.464600	-0.517822	0.627374	-0.366746	-0.544717	-0.418549	-1.745345	-82.089523	-65.898409	0.056200	-0.125628	0.990484	0.924718	0.380629	-0.004192	-0.376480	0.916155	0.137562	0	0	0
13891	0	0	0	0	0	9.548502	0.294792	1.191088	0.352153	0.538505	0.017428	-0.705811	0.465088	-0.527832	0.629508	-0.364565	-0.543736	-0.418525	-1.546595	-81.782023	-65.896207	0.058375	-0.130476	0.989731	0.923384	0.383859	-0.003858	-0.379413	0.914127	0.142887	0	0	0
13892	0	0	0	0	0	9.519477	0.465777	1.227892	0.389166	0.564516	0.030956	-0.702393	0.462891	-0.532959	0.631802	-0.362245	-0.542720	-0.418402	-1.383026	-81.459390	-65.837014	0.060790	-0.135499	0.988911	0.921889	0.387437	-0.003584	-0.382655	0.911884	0.148467	0	0	0
13893	0	0	0	0	0	9.531123	0.591500	1.223218	0.418135	0.576971	0.046869	-0.703613	0.456299	-0.542725	0.634208	-0.359847	-0.541690	-0.418166	-1.264345	-81.129477	-65.715560	0.063418	-0.140558	0.988039	0.920259	0.391295	-0.003402	-0.386136	0.909468	0.154165	0	0	0
13894	0	0	0	0	0	9.618011	0.722275	1.257894	0.448909	0.598579	0.063126	-0.694824	0.454590	-0.549316	0.636753	-0.357345	-0.540619	-0.417829	-1.183889	-80.786977	-65.537443	0.066299	-0.145733	0.987100	0.918483	0.395446	-0.003308	-0.389863	0.906854	0.160071	0	0	0
13895	0	0	0	0	0	9.508152	0.831304	1.306467	0.486519	0.595092	0.079505	-0.688477	0.448730	-0.553467	0.639381	-0.354770	-0.539601	-0.417326	-1.134714	-80.446365	-65.305600	0.069339	-0.150793	0.986131	0.916529	0.399954	-0.003287	-0.393911	0.904046	0.165938	0	0	0
13896	0	0	0	0	0	9.398679	0.939195	1.350436	0.476613	0.552129	0.098535	-0.690918	0.454590	-0.561035	0.641906	-0.352362	-0.538658	-0.416707	-1.150505	-80.130109	-65.013389	0.072405	-0.155368	0.985200	0.914580	0.404391	-0.003442	-0.397871	0.901293	0.171377	0	0	0
13897	0	0	0	0	0	9.270005	0.954685	1.350846	0.459348	0.491215	0.100224	-0.687744	0.450928	-0.565186	0.644232	-0.350137	-0.537865	-0.416017	-1.176128	-79.848764	-64.720966	0.075262	-0.159369	0.984346	0.912676	0.408667	-0.003618	-0.401693	0.898661	0.176210	0	0	0
13898	0	0	0	0	0	9.301353	0.997034	1.253943	0.427373	0.409936	0.093126	-0.680420	0.440918	-0.574951	0.646262	-0.348162	-0.537274	-0.415289	-1.195093	-79.613989	-64.453700	0.077744	-0.162654	0.983616	0.910888	0.412637	-0.003760	-0.405265	0.896256	0.180240	0	0	0
13899	0	0	0	0	0	9.481004	0.984309	1.128124	0.408085	0.344330	0.062978	-0.685547	0.444092	-0.575928	0.648015	-0.346301	-0.536904	-0.414592	-1.130621	-79.417228	-64.282335	0.079695	-0.165463	0.982991	0.909185	0.416378	-0.003624	-0.408696	0.894009	0.183620	0	0	0
13900	0	0	0	0	0	9.863937	1.113843	0.957738	0.399762	0.270358	0.018195	-0.675537	0.441650	-0.569824	0.649458	-0.344498	-0.536829	-0.413933	-0.938447	-79.263314	-64.245676	0.080948	-0.167790	0.982494	0.907537	0.419962	-0.003051	-0.412098	0.891896	0.186271	0	0	0
13901	0	0	0	0	0	10.156942	1.167619	0.668228	0.369240	0.199968	-0.044955	-0.676025	0.439697	-0.579834	0.650524	-0.342768	-0.537027	-0.413437	-0.579823	-79.150321	-64.396242	0.081344	-0.169749	0.982124	0.906053	0.423160	-0.001905	-0.415272	0.890012	0.188223	0	0	0
13902	0	0	0	0	0	10.416971	1.232168	0.374878	0.359405	0.146475	-0.104875	-0.679688	0.433594	-0.574707	0.651304	-0.341019	-0.537478	-0.413068	-0.055558	-79.067873	-64.721283	0.080983	-0.171486	0.981853	0.904647	0.426161	-0.000184	-0.418396	0.888245	0.189646	0	0	0
13903	0	0	0	0	0	10.425045	1.317312	0.294259	0.336780	0.112595	-0.154271	-0.676758	0.436279	-0.580811	0.651850	-0.339279	-0.538076	-0.412863	0.596273	-79.004189	-65.189533	0.080037	-0.173132	0.981641	0.903365	0.428868	0.001985	-0.421338	0.886621	0.190727	0	0	0
13904	0	0	0	0	0	10.289804	1.373217	0.327617	0.331194	0.095679	-0.193189	-0.684570	0.438721	-0.591553	0.652258	-0.337487	-0.538781	-0.412768	1.353060	-78.948616	-65.768081	0.078675	-0.174800	0.981456	0.902125	0.431450	0.004526	-0.424240	0.885040	0.191636	0	0	0
13905	0	0	0	0	0	10.100908	1.417350	0.428176	0.316097	0.091134	-0.213692	-0.675781	0.418701	-0.594971	0.652582	-0.335696	-0.539503	-0.412772	2.155461	-78.893933	-66.402014	0.077111	-0.176518	0.981272	0.900954	0.433854	0.007245	-0.427008	0.883523	0.192490	0	0	0
13906	0	0	0	0	0	9.901190	1.401852	0.558343	0.293908	0.067491	-0.218717	-0.680420	0.414063	-0.599609	0.652794	-0.334012	-0.540261	-0.412811	2.955384	-78.850811	-67.046502	0.075409	-0.178054	0.981127	0.899870	0.436045	0.009970	-0.429591	0.882135	0.193107	0	0	0
13907	0	0	0	0	0	9.811417	1.153811	0.541260	0.242113	0.048942	-0.206858	-0.682861	0.414795	-0.595215	0.652891	-0.332566	-0.540954	-0.412920	3.690054	-78.817207	-67.654789	0.073733	-0.179377	0.981013	0.898989	0.437794	0.012482	-0.431721	0.881000	0.193538	0	0	0
13908	0	0	0	0	0	9.734691	1.055983	0.557411	0.182658	0.054572	-0.186325	-0.671631	0.410156	-0.597412	0.652946	-0.331358	-0.541468	-0.413130	4.325356	-78.779628	-68.196603	0.072273	-0.180663	0.980886	0.898342	0.439051	0.014675	-0.433311	0.880111	0.194029	0	0	0
13909	0	0	0	0	0	9.585852	0.929572	0.653231	0.127553	0.080992	-0.170859	-0.679443	0.406982	-0.599609	0.653011	-0.330316	-0.541757	-0.413482	4.875401	-78.726785	-68.683740	0.071063	-0.182114	0.980706	0.897919	0.439848	0.016614	-0.434387	0.879414	0.194780	0	0	0
13910	0	0	0	0	0	9.465433	0.954951	0.751927	0.088791	0.069846	-0.156360	-0.680176	0.408203	-0.599121	0.653012	-0.329463	-0.541977	-0.413873	5.359080	-78.679990	-69.125958	0.069941	-0.183405	0.980546	0.897650	0.440327	0.018333	-0.435123	0.878905	0.195431	0	0	0
13911	0	0	0	0	0	9.363896	1.007673	0.723240	0.030447	0.064631	-0.152202	-0.683105	0.404785	-0.591797	0.652909	-0.328822	-0.542087	-0.414400	5.796406	-78.635927	-69.555034	0.068828	-0.184631	0.980395	0.897631	0.440298	0.019900	-0.435340	0.878663	0.196035	0	0	0
13912	0	0	0	0	0	9.289242	0.995517	0.806287	-0.030892	0.062571	-0.154183	-0.676514	0.404541	-0.594238	0.652697	-0.328380	-0.542078	-0.415095	6.200397	-78.592081	-69.986053	0.067694	-0.185848	0.980244	0.897878	0.439726	0.021363	-0.435008	0.878693	0.196636	0	0	0
13913	0	0	0	0	0	9.236001	0.913144	0.839436	-0.081257	0.060480	-0.143650	-0.682129	0.407227	-0.598633	0.652417	-0.328135	-0.541956	-0.415889	6.544696	-78.549781	-70.385643	0.066640	-0.186997	0.980098	0.898335	0.438728	0.022627	-0.434227	0.878948	0.197223	0	0	0
13914	0	0	0	0	0	9.253665	0.827807	0.892205	-0.135115	0.054013	-0.125907	-0.679932	0.406982	-0.594482	0.652068	-0.328126	-0.541711	-0.416760	6.806738	-78.511686	-70.732880	0.065720	-0.188013	0.979965	0.899012	0.437288	0.023606	-0.432965	0.879449	0.197764	0	0	0
13915	0	0	0	0	0	9.305520	0.743077	0.884377	-0.167137	0.047793	-0.109944	-0.679932	0.408203	-0.595459	0.651681	-0.328278	-0.541395	-0.417656	7.007410	-78.478207	-71.036217	0.064910	-0.188900	0.979849	0.899813	0.435594	0.024368	-0.431420	0.880099	0.198249	0	0	0
13916	0	0	0	0	0	9.341082	0.646536	0.964513	-0.198765	0.027039	-0.090894	-0.679199	0.404541	-0.598633	0.651227	-0.328628	-0.541047	-0.418540	7.141527	-78.457441	-71.290190	0.064186	-0.189522	0.979776	0.900735	0.433656	0.024876	-0.429601	0.880922	0.198543	0	0	0
13917	0	0	0	0	0	9.345208	0.489838	0.882340	-0.224298	-0.005963	-0.064190	-0.671875	0.406494	-0.588867	0.650694	-0.329202	-0.540710	-0.419351	7.199233	-78.457534	-71.481073	0.063553	-0.189733	0.979777	0.901744	0.431542	0.025076	-0.427572	0.881915	0.198517	0	0	0
13918	0	0	0	0	0	9.337854	0.451327	0.875658	-0.236723	-0.028668	-0.036795	-0.685303	0.411865	-0.592285	0.650138	-0.329937	-0.540373	-0.420069	7.180221	-78.472211	-71.600960	0.063077	-0.189627	0.979828	0.902785	0.429367	0.024979	-0.425442	0.882998	0.198276	0	0	0
13919	0	0	0	0	0	9.226401	0.316439	0.843075	-0.265019	-0.042289	-0.010530	-0.675049	0.401123	-0.592773	0.649551	-0.330863	-0.539980	-0.420755	7.078029	-78.496819	-71.652449	0.062774	-0.189285	0.979914	0.903923	0.426989	0.024573	-0.423064	0.884224	0.197903	0	0	0
13920	0	0	0	0	0	9.238588	0.395275	0.771190	-0.278612	-0.058305	0.006157	-0.671143	0.415039	-0.586914	0.648934	-0.331912	-0.539578	-0.421396	6.925272	-78.531430	-71.660328	0.062562	-0.188731	0.980034	0.905101	0.424519	0.023974	-0.420568	0.885530	0.197380	0	0	0
13921	0	0	0	0	0	9.248425	0.462692	0.675552	-0.296384	-0.093934	0.013513	-0.679443	0.408691	-0.590576	0.648203	-0.333112	-0.539244	-0.422001	6.754694	-78.587130	-71.660364	0.062262	-0.187827	0.980227	0.906343	0.421902	0.023274	-0.417931	0.886972	0.196504	0	0	0
13922	0	0	0	0	0	9.321964	0.478165	0.649645	-0.320778	-0.117748	0.016813	-0.671143	0.415283	-0.583008	0.647375	-0.334450	-0.538926	-0.422620	6.566325	-78.656286	-71.656559	0.061902	-0.186700	0.980465	0.907675	0.419070	0.022493	-0.415083	0.888551	0.195404	0	0	0
13923	0	0	0	0	0	9.341821	0.496338	0.572344	-0.329994	-0.132695	0.024403	-0.675537	0.409668	-0.587158	0.646502	-0.335869	-0.538625	-0.423214	6.356187	-78.734778	-71.635885	0.061546	-0.185402	0.980733	0.909032	0.416165	0.021627	-0.412156	0.890187	0.194150	0	0	0
13924	0	0	0	0	0	9.390350	0.587996	0.456552	-0.354250	-0.125849	0.032861	-0.678955	0.413574	-0.575195	0.645626	-0.337373	-0.538232	-0.423855	6.102459	-78.809539	-71.584999	0.061307	-0.184133	0.980987	0.910473	0.413053	0.020631	-0.408999	0.891898	0.192971	0	0	0
13925	0	0	0	0	0	9.432472	0.617786	0.452968	-0.373621	-0.117273	0.047309	-0.685547	0.420654	-0.583984	0.644765	-0.338959	-0.537747	-0.424515	5.792700	-78.880588	-71.488272	0.061231	-0.182876	0.981227	0.911973	0.409788	0.019465	-0.405655	0.893661	0.191870	0	0	0
13926	0	0	0	0	0	9.486746	0.718044	0.442708	-0.388164	-0.110244	0.059118	-0.683105	0.420410	-0.572754	0.643924	-0.340608	-0.537183	-0.425185	5.433907	-78.947811	-71.350150	0.061304	-0.181637	0.981453	0.913512	0.406408	0.018154	-0.402167	0.895456	0.190842	0	0	0
13927	0	0	0	0	0	9.518403	0.805541	0.361922	-0.408108	-0.086201	0.062398	-0.677734	0.427490	-0.570068	0.643115	-0.342277	-0.536495	-0.425938	5.046301	-79.001712	-71.194282	0.061500	-0.180595	0.981633	0.915114	0.402846	0.016781	-0.398478	0.897274	0.190040	0	0	0
13928	0	0	0	0	0	9.593919	0.837570	0.303988	-0.421678	-0.060178	0.074958	-0.677490	0.426758	-0.571045	0.642379	-0.343966	-0.535667	-0.426730	4.603144	-79.040742	-70.989833	0.061926	-0.179742	0.981763	0.916746	0.399178	0.015257	-0.394641	0.899083	0.189498	0	0	0
13929	0	0	0	0	0	9.578848	0.814510	0.391952	-0.432627	-0.033387	0.091711	-0.679199	0.425293	-0.555908	0.641725	-0.345676	-0.534701	-0.427541	4.097714	-79.065305	-70.728303	0.062607	-0.179061	0.981844	0.918395	0.395433	0.013555	-0.390681	0.900872	0.189205	0	0	0
13930	0	0	0	0	0	9.585550	0.711178	0.486910	-0.455589	-0.016139	0.108371	-0.675781	0.428955	-0.562744	0.641113	-0.347466	-0.533596	-0.428388	3.522989	-79.079735	-70.409680	0.063519	-0.178477	0.981892	0.920103	0.391502	0.011641	-0.386491	0.902703	0.189085	0	0	0
13931	0	0	0	0	0	9.591406	0.616763	0.524035	-0.472747	-0.000758	0.129277	-0.677734	0.439697	-0.558105	0.640551	-0.349332	-0.532369	-0.429237	2.874624	-79.085856	-70.026015	0.064677	-0.177949	0.981912	0.921844	0.387445	0.009495	-0.382127	0.904555	0.189100	0	0	0
13932	0	0	0	0	0	9.552755	0.642304	0.647860	-0.497325	0.001217	0.148971	-0.674072	0.434814	-0.549805	0.639992	-0.351323	-0.531042	-0.430090	2.151113	-79.090000	-69.580236	0.066034	-0.177374	0.981926	0.923642	0.383190	0.007104	-0.377524	0.906479	0.189133	0	0	0
13933	0	0	0	0	0	9.515546	0.532593	0.560363	-0.521205	-0.016952	0.168761	-0.673584	0.444824	-0.557861	0.639377	-0.353479	-0.529687	-0.430908	1.357965	-79.104277	-69.077418	0.067501	-0.176559	0.981973	0.925491	0.378743	0.004480	-0.372706	0.908505	0.188969	0	0	0
13934	0	0	0	0	0	9.488092	0.484821	0.441936	-0.530900	-0.052686	0.182931	-0.670898	0.443848	-0.551025	0.638680	-0.355778	-0.528392	-0.431639	0.514833	-79.137297	-68.529467	0.068979	-0.175378	0.982082	0.927338	0.374220	0.001693	-0.367811	0.910605	0.188449	0	0	0
13935	0	0	0	0	0	9.602560	0.418775	0.418282	-0.516847	-0.038777	0.180518	-0.676758	0.445313	-0.545166	0.638030	-0.357992	-0.527087	-0.432363	-0.315148	-79.161363	-67.986689	0.070483	-0.174335	0.982161	0.929108	0.369808	-0.001034	-0.363030	0.912606	0.188041	0	0	0
13936	0	0	0	0	0	9.728907	0.375853	0.543167	-0.477487	-0.029161	0.185083	-0.670654	0.456787	-0.543701	0.637486	-0.360070	-0.525821	-0.432982	-1.140495	-79.177872	-67.425777	0.072078	-0.173375	0.982215	0.930705	0.365752	-0.003737	-0.358599	0.914422	0.187723	0	0	0
13937	0	0	0	0	0	9.785859	0.308194	0.765449	-0.430316	-0.033660	0.179700	-0.674316	0.456787	-0.543457	0.636995	-0.361991	-0.524682	-0.433484	-1.923239	-79.196127	-66.880681	0.073601	-0.172394	0.982275	0.932115	0.362108	-0.006291	-0.354605	0.916056	0.187342	0	0	0
13938	0	0	0	0	0	9.797362	0.209419	0.896981	-0.385871	-0.065692	0.185209	-0.665527	0.452637	-0.542725	0.636513	-0.363853	-0.523724	-0.433792	-2.705385	-79.230623	-66.310391	0.075075	-0.171111	0.982387	0.933345	0.358872	-0.008820	-0.351042	0.917568	0.186648	0	0	0
13939	0	0	0	0	0	9.765058	0.257198	0.998493	-0.353547	-0.107212	0.190312	-0.667725	0.464355	-0.533203	0.635986	-0.365713	-0.522962	-0.433921	-3.494236	-79.287845	-65.714441	0.076448	-0.169426	0.982573	0.934443	0.355934	-0.011329	-0.347811	0.919024	0.185530	0	0	0
13940	0	0	0	0	0	9.661480	0.259613	0.912005	-0.321471	-0.151196	0.196935	-0.664063	0.465088	-0.536377	0.635417	-0.367583	-0.522390	-0.433863	-4.303726	-79.367797	-65.078995	0.077744	-0.167325	0.982832	0.935411	0.353292	-0.013846	-0.344910	0.920428	0.183984	0	0	0
13941	0	0	0	0	0	9.776960	0.318538	0.771745	-0.293510	-0.172077	0.201314	-0.667236	0.465088	-0.533203	0.634849	-0.369419	-0.521940	-0.433677	-5.125184	-79.458405	-64.415181	0.079006	-0.165011	0.983122	0.936268	0.350907	-0.016343	-0.342288	0.921757	0.182218	0	0	0
13942	0	0	0	0	0	10.038681	0.491614	0.646863	-0.245658	-0.156874	0.197342	-0.666504	0.471191	-0.520752	0.634401	-0.371058	-0.521545	-0.433407	-5.916504	-79.538211	-63.754391	0.080298	-0.162860	0.983376	0.936955	0.348949	-0.018717	-0.340100	0.922882	0.180613	0	0	0
13943	0	0	0	0	0	10.238636	0.619340	0.523934	-0.216724	-0.125911	0.182846	-0.670410	0.469727	-0.531006	0.634051	-0.372500	-0.521146	-0.433163	-6.644245	-79.600340	-63.141470	0.081554	-0.161040	0.983573	0.937548	0.347228	-0.020886	-0.338160	0.923850	0.179301	0	0	0
13944	0	0	0	0	0	10.405750	0.740497	0.463879	-0.176251	-0.102553	0.168216	-0.662354	0.469482	-0.520020	0.633808	-0.373724	-0.520782	-0.432902	-7.303597	-79.648198	-62.574680	0.082765	-0.159496	0.983723	0.938011	0.345852	-0.022844	-0.336579	0.924633	0.178234	0	0	0
13945	0	0	0	0	0	10.541161	0.840228	0.525191	-0.137952	-0.061675	0.152283	-0.659424	0.460205	-0.512695	0.633703	-0.374696	-0.520405	-0.432668	-7.877402	-79.673635	-62.072537	0.083955	-0.158379	0.983803	0.938354	0.344802	-0.024568	-0.335327	0.925217	0.177563	0	0	0
13946	0	0	0	0	0	10.382527	0.898030	0.542573	-0.106415	-0.040978	0.142735	-0.657959	0.473145	-0.523193	0.633695	-0.375498	-0.520043	-0.432421	-8.398245	-79.686551	-61.605963	0.085136	-0.157495	0.983843	0.938596	0.344027	-0.026148	-0.334350	0.925657	0.177113	0	0	0
13947	0	0	0	0	0	10.268633	0.922971	0.539749	-0.086735	-0.068037	0.131838	-0.662109	0.472168	-0.518066	0.633624	-0.376268	-0.519834	-0.432105	-8.886325	-79.715725	-61.161187	0.086114	-0.156391	0.983934	0.938779	0.343415	-0.027579	-0.333584	0.926071	0.176389	0	0	0
13948	0	0	0	0	0	10.185134	0.896463	0.365414	-0.084791	-0.098087	0.119005	-0.665039	0.475098	-0.517578	0.633455	-0.377063	-0.519744	-0.431769	-9.353106	-79.761670	-60.737049	0.086884	-0.155061	0.984077	0.938965	0.342799	-0.028887	-0.332861	0.926523	0.175380	0	0	0
13949	0	0	0	0	0	10.162045	0.841299	0.138200	-0.063526	-0.120127	0.105936	-0.662354	0.476074	-0.501709	0.633236	-0.377804	-0.519799	-0.431377	-9.780561	-79.821486	-60.340487	0.087447	-0.153563	0.984262	0.939090	0.342357	-0.030020	-0.332359	0.926936	0.174147	0	0	0
13950	0	0	0	0	0	10.367643	0.760689	0.228048	-0.017651	-0.104507	0.070130	-0.671387	0.475342	-0.506592	0.633071	-0.378272	-0.519965	-0.431008	-10.066520	-79.874815	-60.061114	0.087737	-0.152340	0.984426	0.939094	0.342285	-0.030728	-0.332273	0.927164	0.173093	0	0	0
13951	0	0	0	0	0	10.695757	0.554282	0.426041	0.048465	-0.100481	0.030110	-0.661865	0.472900	-0.502686	0.632950	-0.378419	-0.520342	-0.430601	-10.186075	-79.930538	-59.912257	0.087653	-0.151284	0.984597	0.938913	0.342764	-0.030920	-0.332806	0.927160	0.172086	0	0	0
13952	0	0	0	0	0	10.930850	0.376030	0.497823	0.130344	-0.095018	-0.017929	-0.668213	0.474121	-0.505127	0.632899	-0.378169	-0.520963	-0.430144	-10.105604	-79.987211	-59.918995	0.087147	-0.150451	0.984769	0.938500	0.343929	-0.030507	-0.334101	0.926864	0.171171	0	0	0
13953	0	0	0	0	0	11.153983	0.245489	0.530034	0.208490	-0.082713	-0.051709	-0.663330	0.478271	-0.510498	0.632950	-0.377557	-0.521783	-0.429612	-9.862061	-80.041134	-60.045772	0.086351	-0.149840	0.984932	0.937853	0.345767	-0.029621	-0.336119	0.926279	0.170386	0	0	0
13954	0	0	0	0	0	11.357101	0.160702	0.899981	0.295005	0.045119	-0.084069	-0.663818	0.462646	-0.504883	0.633432	-0.376312	-0.522438	-0.429198	-9.395257	-80.024971	-60.348973	0.085694	-0.150537	0.984883	0.936936	0.348356	-0.028277	-0.338833	0.925195	0.170895	0	0	0
13955	0	0	0	0	0	11.342673	-0.038697	1.301336	0.351517	0.005766	-0.115192	-0.663330	0.466553	-0.511230	0.633844	-0.374890	-0.523402	-0.428660	-8.814931	-80.034279	-60.734481	0.084601	-0.150970	0.984911	0.935844	0.351417	-0.026520	-0.342110	0.923967	0.171015	0	0	0
13956	0	0	0	0	0	11.732277	-0.386399	1.860345	0.494009	0.022414	-0.158409	-0.663330	0.468262	-0.504150	0.634476	-0.372865	-0.524691	-0.427915	-8.007067	-80.036104	-61.268196	0.083176	-0.151724	0.984917	0.934281	0.355721	-0.024102	-0.346699	0.922194	0.171341	0	0	0
13957	0	0	0	0	0	11.664097	-0.639347	2.701976	0.629222	0.048274	-0.210623	-0.662598	0.459961	-0.506836	0.635305	-0.370217	-0.526287	-0.427024	-6.939788	-80.026481	-61.986564	0.081345	-0.152901	0.984888	0.932261	0.361180	-0.020926	-0.352522	0.919875	0.171924	0	0	0
13958	0	0	0	0	0	11.372784	-0.960641	2.841299	0.691787	-0.069844	-0.262136	-0.671143	0.456543	-0.513916	0.635826	-0.367481	-0.528473	-0.425909	-5.713813	-80.084036	-62.829688	0.078635	-0.153201	0.985061	0.930016	0.367118	-0.017145	-0.359007	0.917471	0.171348	0	0	0
13959	0	0	0	0	0	10.895176	-0.914362	2.244617	0.662324	-0.135682	-0.259447	-0.676270	0.451416	-0.510010	0.636112	-0.364981	-0.530800	-0.424737	-4.517200	-80.176765	-63.659863	0.075699	-0.152896	0.985339	0.927825	0.372774	-0.013437	-0.365255	0.915239	0.170079	0	0	0
13960	0	0	0	0	0	10.282130	-0.484427	1.633738	0.553616	-0.134785	-0.200782	-0.676025	0.439697	-0.503906	0.636324	-0.362977	-0.532775	-0.423663	-3.562117	-80.263102	-64.308011	0.073321	-0.152404	0.985595	0.925944	0.377514	-0.010508	-0.370474	0.913376	0.168797	0	0	0
13961	0	0	0	0	0	9.924754	0.341527	1.318936	0.415322	-0.050023	-0.139739	-0.677734	0.444336	-0.507813	0.636631	-0.361394	-0.534078	-0.422915	-2.860494	-80.298204	-64.779194	0.071808	-0.152456	0.985698	0.924506	0.381076	-0.008410	-0.374343	0.911887	0.168310	0	0	0
13962	0	0	0	0	0	9.966331	1.103437	1.368052	0.271723	-0.016781	-0.133368	-0.680908	0.438721	-0.499268	0.636783	-0.360213	-0.534952	-0.422588	-2.256544	-80.312398	-65.234809	0.070491	-0.152800	0.985740	0.923587	0.383333	-0.006626	-0.376854	0.910883	0.168146	0	0	0
13963	0	0	0	0	0	10.586270	1.550902	1.513849	0.180452	-0.059704	-0.189724	-0.677002	0.434082	-0.509521	0.636530	-0.359262	-0.535877	-0.422606	-1.515292	-80.352146	-65.882627	0.068479	-0.152963	0.985856	0.923043	0.384670	-0.004432	-0.378552	0.910292	0.167534	0	0	0
