// General information: 
//  MT Manager version: 2022.2.0 
//  XDA version: 2022.2.0 build 7381 rev 124627 built on 2023-07-19
// Device information: 
//  DeviceId: 10B426F2
//  ProductCode: MTW2-3A7G6
//  Firmware Version: 4.14.0
//  Hardware Version: 3.0.0
// Device settings: 
//  Filter Profile: human(46.1)
//  Option Flags: Orientation Smoother Disabled, Position/Velocity Smoother Disabled, Continuous Zero Rotation Update Disabled, AHS Disabled, ICC Disabled
// Coordinate system: ENU
PacketCounter	SampleTimeFine	Year	Month	Day	Second	Acc_X	Acc_Y	Acc_Z	Gyr_X	Gyr_Y	Gyr_Z	Mag_X	Mag_Y	Mag_Z	Quat_q0	Quat_q1	Quat_q2	Quat_q3	Roll	Pitch	Yaw	Mat[1][1]	Mat[2][1]	Mat[3][1]	Mat[1][2]	Mat[2][2]	Mat[3][2]	Mat[1][3]	Mat[2][3]	Mat[3][3]	Vel_E	Vel_N	Vel_U
13511	0	0	0	0	0	9.733883	-0.688402	-1.099275	0.004075	-0.000690	-0.002034	-0.646973	0.520020	0.974365	0.195519	-0.725464	-0.167956	-0.638173	-147.551452	-82.577491	-2.598396	0.129052	-0.005857	0.991620	0.493242	-0.867126	-0.069313	0.860266	0.498054	-0.109016	0	0	0
13512	0	0	0	0	0	9.716748	-0.679756	-1.114357	0.002990	0.003494	-0.006253	-0.643066	0.517334	0.980469	0.195504	-0.725456	-0.167973	-0.638182	-147.566924	-82.579682	-2.582759	0.129016	-0.005820	0.991625	0.493249	-0.867126	-0.069263	0.860268	0.498054	-0.109003	0	0	0
13513	0	0	0	0	0	9.716805	-0.679419	-1.114059	0.008149	0.001857	-0.001971	-0.653320	0.516113	0.981201	0.195523	-0.725452	-0.167996	-0.638175	-147.567555	-82.579525	-2.578580	0.129019	-0.005810	0.991625	0.493303	-0.867096	-0.069264	0.860236	0.498108	-0.109006	0	0	0
13514	0	0	0	0	0	9.723520	-0.709514	-1.098670	0.005569	0.002675	-0.004112	-0.647949	0.518799	0.979492	0.195524	-0.725445	-0.168014	-0.638178	-147.575536	-82.580661	-2.569006	0.129001	-0.005788	0.991628	0.493329	-0.867083	-0.069238	0.860224	0.498130	-0.108999	0	0	0
13515	0	0	0	0	0	9.692593	-0.694467	-1.094567	0.007538	0.002151	-0.003380	-0.643799	0.514404	0.979736	0.195532	-0.725439	-0.168036	-0.638176	-147.581471	-82.581297	-2.560656	0.128990	-0.005769	0.991629	0.493367	-0.867063	-0.069221	0.860204	0.498166	-0.108997	0	0	0
13516	0	0	0	0	0	9.720298	-0.680505	-1.079171	0.003701	-0.002342	-0.002037	-0.644775	0.519287	0.977783	0.195529	-0.725452	-0.168045	-0.638160	-147.594651	-82.579368	-2.546918	0.129025	-0.005739	0.991625	0.493375	-0.867059	-0.069214	0.860194	0.498173	-0.109041	0	0	0
13517	0	0	0	0	0	9.709818	-0.702247	-1.079223	0.003601	0.003199	-0.004844	-0.643311	0.514404	0.977783	0.195519	-0.725447	-0.168058	-0.638165	-147.605936	-82.580699	-2.535342	0.129003	-0.005712	0.991628	0.493382	-0.867057	-0.069180	0.860193	0.498176	-0.109035	0	0	0
13518	0	0	0	0	0	9.695990	-0.722202	-1.113345	0.004822	0.002611	-0.002025	-0.644287	0.519775	0.975830	0.195524	-0.725443	-0.168067	-0.638166	-147.606749	-82.581162	-2.533428	0.128995	-0.005707	0.991629	0.493399	-0.867048	-0.069174	0.860184	0.498192	-0.109029	0	0	0
13519	0	0	0	0	0	9.720424	-0.679626	-1.078596	0.007912	0.000563	-0.005471	-0.655273	0.515381	0.986328	0.195528	-0.725441	-0.168101	-0.638158	-147.623840	-82.581430	-2.513136	0.128993	-0.005662	0.991629	0.493450	-0.867022	-0.069139	0.860156	0.498238	-0.109046	0	0	0
13520	0	0	0	0	0	9.727594	-0.655403	-1.112673	0.005196	0.001024	-0.004116	-0.645264	0.517090	0.989258	0.195526	-0.725440	-0.168119	-0.638155	-147.635953	-82.581766	-2.499611	0.128988	-0.005631	0.991630	0.493473	-0.867011	-0.069113	0.860143	0.498258	-0.109056	0	0	0
13521	0	0	0	0	0	9.734326	-0.685247	-1.097324	0.007675	0.002508	-0.006876	-0.647705	0.520508	0.991455	0.195515	-0.725434	-0.168145	-0.638159	-147.655113	-82.583465	-2.479319	0.128961	-0.005584	0.991634	0.493495	-0.867003	-0.069061	0.860135	0.498272	-0.109054	0	0	0
13522	0	0	0	0	0	9.727707	-0.654452	-1.112252	0.006554	0.000793	-0.004793	-0.654297	0.513916	0.982910	0.195516	-0.725432	-0.168170	-0.638155	-147.669516	-82.583896	-2.462700	0.128955	-0.005546	0.991635	0.493531	-0.866985	-0.069029	0.860115	0.498304	-0.109065	0	0	0
13523	0	0	0	0	0	9.713933	-0.647700	-1.093066	0.004448	0.000960	-0.002029	-0.642822	0.522461	0.975586	0.195509	-0.725437	-0.168171	-0.638151	-147.675866	-82.583393	-2.456854	0.128964	-0.005533	0.991634	0.493523	-0.866990	-0.069022	0.860118	0.498296	-0.109080	0	0	0
13524	0	0	0	0	0	9.703475	-0.669545	-1.092906	0.007911	0.003801	-0.003375	-0.651367	0.518799	0.975098	0.195522	-0.725425	-0.168193	-0.638155	-147.677141	-82.584845	-2.452690	0.128940	-0.005523	0.991637	0.493569	-0.866965	-0.069006	0.860096	0.498339	-0.109060	0	0	0
13525	0	0	0	0	0	9.720644	-0.704308	-1.130800	0.007538	0.002150	-0.003379	-0.644287	0.521484	0.988281	0.195540	-0.725417	-0.168224	-0.638150	-147.682006	-82.585380	-2.443745	0.128931	-0.005502	0.991638	0.493632	-0.866930	-0.068992	0.860061	0.498399	-0.109058	0	0	0
13526	0	0	0	0	0	9.714062	-0.647059	-1.092299	0.009133	-0.000025	-0.002651	-0.654297	0.519775	0.981201	0.195556	-0.725417	-0.168251	-0.638138	-147.688891	-82.584757	-2.433218	0.128943	-0.005479	0.991637	0.493687	-0.866899	-0.068984	0.860027	0.498453	-0.109076	0	0	0
13527	0	0	0	0	0	9.734587	-0.683595	-1.096035	0.005569	0.002673	-0.004112	-0.649658	0.521973	0.977051	0.195556	-0.725412	-0.168268	-0.638139	-147.697477	-82.585644	-2.423205	0.128929	-0.005456	0.991639	0.493711	-0.866888	-0.068960	0.860016	0.498474	-0.109073	0	0	0
13528	0	0	0	0	0	9.741320	-0.713599	-1.080606	0.007538	0.002149	-0.003379	-0.644287	0.524170	0.991699	0.195565	-0.725406	-0.168291	-0.638137	-147.702871	-82.586297	-2.415104	0.128918	-0.005437	0.991640	0.493753	-0.866865	-0.068943	0.859993	0.498514	-0.109070	0	0	0
13529	0	0	0	0	0	9.710815	-0.644478	-1.125993	0.008523	0.000268	-0.004060	-0.649658	0.523438	0.986328	0.195579	-0.725405	-0.168323	-0.638125	-147.714811	-82.585860	-2.399297	0.128927	-0.005402	0.991639	0.493812	-0.866833	-0.068925	0.859958	0.498570	-0.109091	0	0	0
13530	0	0	0	0	0	9.728027	-0.652532	-1.110579	0.008148	0.001856	-0.001969	-0.647705	0.526367	0.977539	0.195595	-0.725400	-0.168343	-0.638120	-147.715299	-82.585939	-2.395790	0.128926	-0.005394	0.991640	0.493858	-0.866807	-0.068923	0.859931	0.498615	-0.109090	0	0	0
13531	0	0	0	0	0	9.731429	-0.654174	-1.076051	-0.000237	0.001944	-0.001406	-0.652100	0.509766	0.975830	0.195591	-0.725403	-0.168341	-0.638119	-147.717778	-82.585621	-2.393750	0.128932	-0.005390	0.991639	0.493852	-0.866811	-0.068921	0.859934	0.498609	-0.109098	0	0	0
13532	0	0	0	0	0	9.720902	-0.702892	-1.129460	0.001731	0.001420	-0.000674	-0.648438	0.519531	0.976807	0.195588	-0.725407	-0.168336	-0.638116	-147.718142	-82.585092	-2.394075	0.128941	-0.005391	0.991638	0.493841	-0.866816	-0.068926	0.859939	0.498598	-0.109106	0	0	0
13533	0	0	0	0	0	9.741480	-0.712861	-1.079653	0.002104	0.003071	-0.000670	-0.649414	0.520264	0.984375	0.195584	-0.725406	-0.168328	-0.638121	-147.715105	-82.585472	-2.398170	0.128934	-0.005400	0.991638	0.493825	-0.866825	-0.068928	0.859950	0.498583	-0.109097	0	0	0
13534	0	0	0	0	0	9.717643	-0.674269	-1.109871	0.006417	0.000435	-0.001295	-0.647217	0.513916	0.983154	0.195595	-0.725408	-0.168341	-0.638112	-147.717415	-82.584657	-2.393825	0.128949	-0.005391	0.991637	0.493855	-0.866808	-0.068931	0.859930	0.498613	-0.109111	0	0	0
13535	0	0	0	0	0	9.703862	-0.667559	-1.090679	0.001869	0.001776	-0.004170	-0.649414	0.520020	0.984619	0.195575	-0.725411	-0.168343	-0.638115	-147.731078	-82.585158	-2.381668	0.128941	-0.005363	0.991638	0.493834	-0.866822	-0.068900	0.859943	0.498589	-0.109121	0	0	0
13536	0	0	0	0	0	9.731533	-0.680180	-1.128600	0.000510	0.002006	-0.003493	-0.650879	0.520264	0.983398	0.195559	-0.725412	-0.168344	-0.638118	-147.741261	-82.585776	-2.372797	0.128931	-0.005342	0.991639	0.493816	-0.866834	-0.068875	0.859955	0.498568	-0.109124	0	0	0
13537	0	0	0	0	0	9.717771	-0.673405	-1.109283	0.002852	0.003133	-0.002757	-0.645996	0.518311	0.982422	0.195553	-0.725409	-0.168347	-0.638122	-147.745294	-82.586539	-2.368992	0.128918	-0.005333	0.991641	0.493814	-0.866837	-0.068860	0.859958	0.498564	-0.109117	0	0	0
13538	0	0	0	0	0	9.724983	-0.622635	-1.089806	0.004448	0.000959	-0.002028	-0.643555	0.516602	0.979004	0.195555	-0.725411	-0.168356	-0.638118	-147.750227	-82.586202	-2.363141	0.128925	-0.005320	0.991640	0.493828	-0.866829	-0.068854	0.859949	0.498577	-0.109128	0	0	0
13539	0	0	0	0	0	9.731687	-0.652753	-1.074576	0.000748	0.000062	-0.002087	-0.650879	0.515381	0.989502	0.195541	-0.725421	-0.168352	-0.638111	-147.760457	-82.585130	-2.354469	0.128944	-0.005302	0.991638	0.493805	-0.866843	-0.068845	0.859960	0.498552	-0.109156	0	0	0
13540	0	0	0	0	0	9.735038	-0.681173	-1.093536	-0.002581	0.004056	-0.000049	-0.646484	0.518799	0.980469	0.195526	-0.725422	-0.168328	-0.638121	-147.754773	-82.585688	-2.363385	0.128934	-0.005321	0.991639	0.493756	-0.866871	-0.068850	0.859989	0.498505	-0.109141	0	0	0
13541	0	0	0	0	0	9.731751	-0.652604	-1.074085	-0.002954	0.002405	-0.000052	-0.641846	0.515137	0.977295	0.195502	-0.725431	-0.168298	-0.638126	-147.754490	-82.585225	-2.368216	0.128941	-0.005333	0.991638	0.493686	-0.866910	-0.068855	0.860028	0.498436	-0.109148	0	0	0
13542	0	0	0	0	0	9.745611	-0.659061	-1.092762	-0.002209	0.005706	-0.000045	-0.646729	0.520996	0.989258	0.195490	-0.725425	-0.168274	-0.638142	-147.744700	-82.586582	-2.381058	0.128916	-0.005361	0.991641	0.493641	-0.866935	-0.068861	0.860058	0.498392	-0.109116	0	0	0
13543	0	0	0	0	0	9.731791	-0.679408	-1.126841	0.000983	0.001358	0.001413	-0.651855	0.523438	0.982422	0.195487	-0.725435	-0.168255	-0.638137	-147.738877	-82.584975	-2.388607	0.128944	-0.005379	0.991637	0.493612	-0.866950	-0.068887	0.860070	0.498367	-0.109133	0	0	0
13544	0	0	0	0	0	9.735174	-0.681343	-1.092214	0.000370	0.004890	0.002098	-0.655273	0.521729	0.981934	0.195491	-0.725432	-0.168232	-0.638145	-147.721551	-82.585279	-2.407559	0.128936	-0.005421	0.991638	0.493586	-0.866962	-0.068917	0.860086	0.498344	-0.109107	0	0	0
13545	0	0	0	0	0	9.724696	-0.703637	-1.092019	0.001593	0.001065	0.002823	-0.644775	0.520020	0.978271	0.195503	-0.725439	-0.168219	-0.638137	-147.709548	-82.583518	-2.419649	0.128966	-0.005450	0.991634	0.493581	-0.866962	-0.068956	0.860085	0.498344	-0.109119	0	0	0
13546	0	0	0	0	0	9.724706	-0.703808	-1.091824	0.004073	0.002547	0.000063	-0.644531	0.526367	0.982666	0.195511	-0.725438	-0.168218	-0.638137	-147.703182	-82.583309	-2.425408	0.128969	-0.005463	0.991634	0.493589	-0.866956	-0.068971	0.860080	0.498354	-0.109114	0	0	0
13547	0	0	0	0	0	9.704207	-0.667266	-1.087786	0.006889	-0.000213	0.003612	-0.643799	0.523193	0.984131	0.195547	-0.725446	-0.168222	-0.638115	-147.688187	-82.580279	-2.436988	0.129020	-0.005491	0.991627	0.493635	-0.866925	-0.069027	0.860045	0.498408	-0.109140	0	0	0
13548	0	0	0	0	0	9.728520	-0.651954	-1.106589	0.004073	0.002547	0.000063	-0.641357	0.520264	0.987305	0.195556	-0.725444	-0.168221	-0.638115	-147.681824	-82.580071	-2.442744	0.129023	-0.005504	0.991626	0.493643	-0.866920	-0.069041	0.860040	0.498418	-0.109136	0	0	0
13549	0	0	0	0	0	9.669418	-0.705144	-1.068589	0.003700	0.000896	0.000060	-0.647461	0.517578	0.987549	0.195562	-0.725452	-0.168219	-0.638104	-147.680271	-82.578463	-2.443839	0.129051	-0.005508	0.991623	0.493648	-0.866915	-0.069059	0.860033	0.498425	-0.109157	0	0	0
13550	0	0	0	0	0	9.724751	-0.704384	-1.091048	0.004446	0.004197	0.000067	-0.649658	0.519775	0.982422	0.195573	-0.725445	-0.168217	-0.638109	-147.669801	-82.579052	-2.453522	0.129040	-0.005529	0.991624	0.493659	-0.866908	-0.069073	0.860029	0.498438	-0.109136	0	0	0
13551	0	0	0	0	0	9.735263	-0.682415	-1.090750	0.001969	-0.000524	0.000733	-0.645508	0.515381	0.975586	0.195570	-0.725459	-0.168206	-0.638098	-147.670378	-82.576920	-2.454214	0.129077	-0.005532	0.991619	0.493638	-0.866919	-0.069092	0.860035	0.498419	-0.109168	0	0	0
13552	0	0	0	0	0	9.749086	-0.688960	-1.109737	0.000373	0.001651	0.000003	-0.645264	0.512695	0.979004	0.195564	-0.725464	-0.168194	-0.638097	-147.668469	-82.576295	-2.457616	0.129087	-0.005540	0.991618	0.493614	-0.866931	-0.069102	0.860047	0.498397	-0.109175	0	0	0
13553	0	0	0	0	0	9.738605	-0.710958	-1.109734	-0.001969	0.000524	-0.000733	-0.636963	0.519287	0.979980	0.195542	-0.725477	-0.168174	-0.638095	-147.674317	-82.575228	-2.455281	0.129106	-0.005536	0.991615	0.493560	-0.866962	-0.069100	0.860075	0.498343	-0.109197	0	0	0
13554	0	0	0	0	0	9.724786	-0.704463	-1.090684	0.001969	-0.000524	0.000733	-0.646729	0.518555	0.980713	0.195542	-0.725488	-0.168166	-0.638084	-147.673896	-82.573327	-2.456261	0.129138	-0.005540	0.991611	0.493550	-0.866967	-0.069119	0.860077	0.498335	-0.109225	0	0	0
13555	0	0	0	0	0	9.704292	-0.667604	-1.086826	0.002107	-0.000169	-0.002764	-0.648438	0.517822	0.978760	0.195534	-0.725497	-0.168172	-0.638074	-147.686102	-82.572222	-2.444283	0.129159	-0.005513	0.991609	0.493546	-0.866970	-0.069106	0.860076	0.498330	-0.109256	0	0	0
13556	0	0	0	0	0	9.700957	-0.665661	-1.121085	0.004448	0.000958	-0.002027	-0.649902	0.513916	0.978760	0.195535	-0.725499	-0.168181	-0.638069	-147.691027	-82.571884	-2.438439	0.129165	-0.005500	0.991608	0.493560	-0.866962	-0.069099	0.860067	0.498344	-0.109267	0	0	0
13557	0	0	0	0	0	9.714801	-0.645410	-1.086689	-0.002480	-0.001482	0.002760	-0.647461	0.509033	0.976074	0.195522	-0.725520	-0.168150	-0.638058	-147.688581	-82.568908	-2.444481	0.129216	-0.005516	0.991601	0.493502	-0.866993	-0.069132	0.860092	0.498290	-0.109307	0	0	0
13558	0	0	0	0	0	9.700952	-0.665707	-1.121104	0.002480	0.001482	-0.002760	-0.648682	0.516602	0.981934	0.195515	-0.725521	-0.168155	-0.638057	-147.696124	-82.569047	-2.437134	0.129214	-0.005500	0.991601	0.493500	-0.866995	-0.069116	0.860094	0.498286	-0.109314	0	0	0
13559	0	0	0	0	0	9.735311	-0.682268	-1.090414	-0.001124	0.001527	0.004177	-0.645020	0.524170	0.983398	0.195509	-0.725534	-0.168116	-0.638055	-147.681208	-82.567082	-2.455784	0.129247	-0.005543	0.991597	0.493440	-0.867026	-0.069163	0.860124	0.498232	-0.109325	0	0	0
13560	0	0	0	0	0	9.718141	-0.674225	-1.105532	0.000373	0.001651	0.000003	-0.650635	0.519287	0.978760	0.195504	-0.725539	-0.168104	-0.638054	-147.679304	-82.566457	-2.459182	0.129257	-0.005551	0.991596	0.493416	-0.867039	-0.069172	0.860136	0.498210	-0.109332	0	0	0
13561	0	0	0	0	0	9.735308	-0.682665	-1.090191	-0.001497	-0.000124	0.004174	-0.647705	0.521973	0.984619	0.195508	-0.725555	-0.168077	-0.638041	-147.667056	-82.563492	-2.473294	0.129307	-0.005585	0.991589	0.493383	-0.867053	-0.069223	0.860147	0.498184	-0.109360	0	0	0
13562	0	0	0	0	0	9.714778	-0.672847	-1.139717	0.001731	0.001420	-0.000673	-0.647461	0.515869	0.978760	0.195505	-0.725559	-0.168072	-0.638039	-147.667428	-82.562962	-2.473612	0.129316	-0.005586	0.991588	0.493372	-0.867059	-0.069227	0.860152	0.498173	-0.109368	0	0	0
13563	0	0	0	0	0	9.707669	-0.696615	-1.105206	0.005804	0.003966	-0.000610	-0.648926	0.525146	0.985107	0.195518	-0.725552	-0.168077	-0.638041	-147.659753	-82.563464	-2.479728	0.129307	-0.005600	0.991589	0.493395	-0.867045	-0.069237	0.860140	0.498198	-0.109352	0	0	0
13564	0	0	0	0	0	9.721522	-0.703143	-1.123953	-0.000986	0.001881	0.000680	-0.647949	0.512207	0.981445	0.195510	-0.725559	-0.168058	-0.638042	-147.655579	-82.562742	-2.486200	0.129319	-0.005615	0.991587	0.493359	-0.867065	-0.069252	0.860159	0.498164	-0.109357	0	0	0
13565	0	0	0	0	0	9.707727	-0.696552	-1.104737	0.002480	0.001482	-0.002760	-0.636230	0.521729	0.972900	0.195501	-0.725562	-0.168061	-0.638040	-147.663830	-82.562706	-2.478502	0.129320	-0.005598	0.991587	0.493351	-0.867070	-0.069236	0.860163	0.498155	-0.109368	0	0	0
13566	0	0	0	0	0	9.693926	-0.690008	-1.085540	0.000983	0.001358	0.001413	-0.645996	0.520264	0.984131	0.195501	-0.725568	-0.168046	-0.638037	-147.657039	-82.561507	-2.486475	0.129340	-0.005617	0.991584	0.493331	-0.867080	-0.069260	0.860172	0.498138	-0.109377	0	0	0
13567	0	0	0	0	0	9.697264	-0.718501	-1.104614	0.002107	-0.000169	-0.002763	-0.651123	0.515869	0.976318	0.195498	-0.725576	-0.168057	-0.638026	-147.668585	-82.560393	-2.474241	0.129360	-0.005590	0.991582	0.493342	-0.867075	-0.069249	0.860163	0.498147	-0.109407	0	0	0
13568	0	0	0	0	0	9.724959	-0.704530	-1.089096	0.003463	0.002839	-0.001347	-0.645020	0.512939	0.987061	0.195500	-0.725573	-0.168058	-0.638028	-147.667130	-82.560756	-2.475400	0.129354	-0.005592	0.991583	0.493346	-0.867072	-0.069248	0.860161	0.498151	-0.109400	0	0	0
13569	0	0	0	0	0	9.732134	-0.680701	-1.123090	0.000373	0.001651	0.000003	-0.641602	0.514648	0.978516	0.195487	-0.725581	-0.168039	-0.638028	-147.666554	-82.560050	-2.478697	0.129366	-0.005600	0.991581	0.493304	-0.867095	-0.069256	0.860183	0.498111	-0.109410	0	0	0
13570	0	0	0	0	0	9.718333	-0.674130	-1.103901	0.004448	0.000958	-0.002027	-0.649658	0.525879	0.982910	0.195489	-0.725583	-0.168048	-0.638023	-147.671471	-82.559711	-2.472861	0.129372	-0.005587	0.991580	0.493318	-0.867088	-0.069249	0.860174	0.498124	-0.109421	0	0	0
13571	0	0	0	0	0	9.732190	-0.680484	-1.122742	0.004821	0.002608	-0.002023	-0.641357	0.519775	0.980469	0.195497	-0.725580	-0.168059	-0.638021	-147.672444	-82.559901	-2.470273	0.129369	-0.005581	0.991581	0.493343	-0.867074	-0.069246	0.860160	0.498148	-0.109419	0	0	0
13572	0	0	0	0	0	9.728895	-0.651744	-1.103414	0.007165	0.000496	-0.003380	-0.646484	0.522461	0.985107	0.195504	-0.725579	-0.168082	-0.638014	-147.681905	-82.559752	-2.458285	0.129373	-0.005554	0.991580	0.493382	-0.867053	-0.069229	0.860137	0.498185	-0.109433	0	0	0
13573	0	0	0	0	0	9.694106	-0.689178	-1.084461	0.006417	0.000434	-0.001293	-0.650391	0.519287	0.976807	0.195518	-0.725583	-0.168097	-0.638001	-147.684517	-82.558517	-2.453233	0.129395	-0.005544	0.991578	0.493418	-0.867032	-0.069235	0.860114	0.498221	-0.109454	0	0	0
13574	0	0	0	0	0	9.735609	-0.681915	-1.087976	0.006041	0.002023	0.000797	-0.643311	0.518555	0.984619	0.195535	-0.725582	-0.168100	-0.637996	-147.675556	-82.557828	-2.460473	0.129406	-0.005561	0.991576	0.493442	-0.867017	-0.069259	0.860098	0.498248	-0.109453	0	0	0
13575	0	0	0	0	0	9.746124	-0.659943	-1.087638	0.005431	0.002315	-0.000613	-0.645752	0.527588	0.982178	0.195547	-0.725580	-0.168106	-0.637993	-147.671889	-82.557534	-2.462621	0.129411	-0.005566	0.991575	0.493464	-0.867003	-0.069269	0.860085	0.498271	-0.109453	0	0	0
13576	0	0	0	0	0	9.725648	-0.623085	-1.083595	0.004448	0.000957	-0.002026	-0.646973	0.523682	0.982910	0.195549	-0.725582	-0.168115	-0.637988	-147.676805	-82.557194	-2.456787	0.129417	-0.005553	0.991575	0.493479	-0.866996	-0.069262	0.860076	0.498285	-0.109464	0	0	0
13577	0	0	0	0	0	9.708021	-0.695700	-1.102693	0.002714	0.002777	0.000740	-0.650146	0.525391	0.984131	0.195565	-0.725581	-0.168116	-0.637984	-147.667581	-82.556536	-2.464623	0.129428	-0.005571	0.991573	0.493498	-0.866983	-0.069286	0.860063	0.498307	-0.109463	0	0	0
13578	0	0	0	0	0	9.718526	-0.673901	-1.102342	0.003934	0.002192	0.003560	-0.640137	0.513428	0.982178	0.195584	-0.725584	-0.168102	-0.637978	-147.649196	-82.555082	-2.482585	0.129451	-0.005613	0.991570	0.493500	-0.866978	-0.069335	0.860058	0.498315	-0.109462	0	0	0
13579	0	0	0	0	0	9.732365	-0.680654	-1.121119	0.002714	0.002777	0.000740	-0.639648	0.523438	0.983643	0.195589	-0.725587	-0.168092	-0.637977	-147.641296	-82.554449	-2.490858	0.129462	-0.005632	0.991568	0.493493	-0.866980	-0.069356	0.860061	0.498311	-0.109461	0	0	0
13580	0	0	0	0	0	9.735718	-0.682550	-1.086602	0.002951	0.000834	0.002147	-0.636230	0.516846	0.973389	0.195599	-0.725594	-0.168081	-0.637969	-147.631902	-82.552770	-2.500320	0.129490	-0.005654	0.991565	0.493489	-0.866980	-0.069389	0.860059	0.498311	-0.109475	0	0	0
13581	0	0	0	0	0	9.729045	-0.652569	-1.101603	0.000607	0.002947	0.003503	-0.648193	0.516357	0.978760	0.195611	-0.725599	-0.168060	-0.637964	-147.614117	-82.551122	-2.518845	0.129516	-0.005697	0.991561	0.493473	-0.866985	-0.069438	0.860064	0.498302	-0.109477	0	0	0
13582	0	0	0	0	0	9.711869	-0.644680	-1.116757	-0.000139	-0.000354	0.003497	-0.649170	0.516846	0.977783	0.195613	-0.725614	-0.168035	-0.637953	-147.604299	-82.548453	-2.530520	0.129561	-0.005726	0.991555	0.493441	-0.867000	-0.069482	0.860076	0.498276	-0.109504	0	0	0
13583	0	0	0	0	0	9.732374	-0.681738	-1.120378	0.000370	0.004890	0.002096	-0.646973	0.520264	0.982422	0.195614	-0.725611	-0.168011	-0.637962	-147.587617	-82.548784	-2.549069	0.129554	-0.005768	0.991556	0.493411	-0.867014	-0.069511	0.860094	0.498250	-0.109479	0	0	0
13584	0	0	0	0	0	9.732402	-0.681895	-1.120044	-0.002344	0.002113	0.001356	-0.642334	0.522461	0.976563	0.195604	-0.725619	-0.167985	-0.637964	-147.581200	-82.547965	-2.558588	0.129567	-0.005790	0.991554	0.493362	-0.867041	-0.069531	0.860120	0.498204	-0.109483	0	0	0
13585	0	0	0	0	0	9.721918	-0.704139	-1.119897	0.001965	0.002716	0.002827	-0.645752	0.524414	0.978271	0.195619	-0.725622	-0.167972	-0.637959	-147.565381	-82.546711	-2.574208	0.129587	-0.005826	0.991551	0.493362	-0.867037	-0.069572	0.860117	0.498209	-0.109482	0	0	0
13586	0	0	0	0	0	9.711430	-0.726378	-1.119781	0.002341	0.001127	0.000737	-0.641602	0.531006	0.979492	0.195622	-0.725627	-0.167964	-0.637954	-147.560888	-82.545605	-2.579079	0.129606	-0.005838	0.991548	0.493354	-0.867040	-0.069591	0.860119	0.498204	-0.109493	0	0	0
13587	0	0	0	0	0	9.711456	-0.726356	-1.119573	0.004821	0.002607	-0.002023	-0.650391	0.518555	0.985596	0.195644	-0.725621	-0.167987	-0.637948	-147.560376	-82.545660	-2.575815	0.129605	-0.005831	0.991549	0.493411	-0.867008	-0.069592	0.860086	0.498261	-0.109492	0	0	0
13588	0	0	0	0	0	9.728643	-0.734687	-1.104030	0.005292	0.001961	0.002884	-0.653564	0.518066	0.980469	0.195665	-0.725623	-0.167980	-0.637941	-147.544300	-82.544296	-2.590663	0.129627	-0.005865	0.991545	0.493426	-0.866996	-0.069635	0.860074	0.498281	-0.109492	0	0	0
13589	0	0	0	0	0	9.711519	-0.726557	-1.118893	0.005567	0.005907	-0.002017	-0.640381	0.519775	0.979492	0.195671	-0.725608	-0.167985	-0.637955	-147.537631	-82.546405	-2.596431	0.129590	-0.005877	0.991550	0.493442	-0.866987	-0.069628	0.860071	0.498295	-0.109453	0	0	0
13590	0	0	0	0	0	9.732576	-0.682284	-1.118289	0.007539	0.002144	-0.003375	-0.641602	0.517090	0.984131	0.195681	-0.725602	-0.168007	-0.637953	-147.542967	-82.547054	-2.588386	0.129580	-0.005858	0.991552	0.493484	-0.866965	-0.069612	0.860048	0.498335	-0.109450	0	0	0
13591	0	0	0	0	0	9.718783	-0.675522	-1.099077	0.007166	0.000493	-0.003378	-0.649170	0.523438	0.980469	0.195687	-0.725605	-0.168028	-0.637943	-147.553335	-82.546440	-2.575780	0.129591	-0.005830	0.991550	0.493518	-0.866946	-0.069598	0.860027	0.498368	-0.109472	0	0	0
13592	0	0	0	0	0	9.743164	-0.659778	-1.117683	0.006925	0.005675	-0.002693	-0.639648	0.524170	0.980957	0.195700	-0.725588	-0.168043	-0.637953	-147.548203	-82.548587	-2.578646	0.129554	-0.005835	0.991555	0.493555	-0.866926	-0.069588	0.860011	0.498402	-0.109434	0	0	0
13593	0	0	0	0	0	9.698406	-0.638356	-1.094385	0.005194	0.004256	-0.002020	-0.649658	0.522705	0.974121	0.195715	-0.725579	-0.168058	-0.637956	-147.544592	-82.549493	-2.579707	0.129538	-0.005836	0.991557	0.493594	-0.866904	-0.069586	0.859991	0.498441	-0.109417	0	0	0
13594	0	0	0	0	0	9.694641	-0.690529	-1.078804	0.005194	0.004256	-0.002020	-0.647217	0.514160	0.976563	0.195723	-0.725569	-0.168066	-0.637962	-147.541296	-82.550746	-2.581721	0.129516	-0.005840	0.991560	0.493614	-0.866893	-0.069581	0.859983	0.498460	-0.109394	0	0	0
13595	0	0	0	0	0	9.746211	-0.741893	-1.085833	0.006925	0.005675	-0.002693	-0.645020	0.521729	0.978027	0.195738	-0.725552	-0.168084	-0.637972	-147.536107	-82.552963	-2.584155	0.129478	-0.005844	0.991565	0.493658	-0.866869	-0.069570	0.859963	0.498502	-0.109356	0	0	0
13596	0	0	0	0	0	9.708639	-0.696625	-1.096650	0.011374	0.006630	-0.004718	-0.643311	0.520996	0.978271	0.195761	-0.725526	-0.168119	-0.637985	-147.533662	-82.556194	-2.581741	0.129422	-0.005836	0.991572	0.493735	-0.866827	-0.069545	0.859928	0.498575	-0.109305	0	0	0
13597	0	0	0	0	0	9.736354	-0.682555	-1.080888	0.009134	-0.000032	-0.002642	-0.652100	0.523438	0.982178	0.195783	-0.725526	-0.168151	-0.637970	-147.540405	-82.555299	-2.570466	0.129439	-0.005811	0.991570	0.493804	-0.866788	-0.069540	0.859886	0.498642	-0.109327	0	0	0
13598	0	0	0	0	0	9.722580	-0.675790	-1.061438	0.006688	0.007616	-0.004101	-0.635742	0.523438	0.982422	0.195792	-0.725503	-0.168168	-0.637989	-147.536041	-82.558817	-2.572693	0.129378	-0.005813	0.991578	0.493840	-0.866770	-0.069516	0.859874	0.498675	-0.109270	0	0	0
13599	0	0	0	0	0	9.688336	-0.659195	-1.091431	0.005803	0.003964	-0.000609	-0.646973	0.516846	0.990479	0.195811	-0.725496	-0.168178	-0.637989	-147.527924	-82.559080	-2.578375	0.129373	-0.005826	0.991579	0.493876	-0.866748	-0.069529	0.859854	0.498712	-0.109256	0	0	0
13600	0	0	0	0	0	9.695564	-0.635220	-1.125314	0.004961	0.002957	-0.005519	-0.637939	0.525879	0.978027	0.195806	-0.725488	-0.168199	-0.637994	-147.540770	-82.560781	-2.564245	0.129345	-0.005793	0.991583	0.493899	-0.866738	-0.069489	0.859845	0.498730	-0.109247	0	0	0
13601	0	0	0	0	0	9.733285	-0.679908	-1.113555	-0.000237	0.001942	-0.001408	-0.645752	0.518066	0.985107	0.195794	-0.725494	-0.168190	-0.637993	-147.544539	-82.560225	-2.562271	0.129355	-0.005789	0.991582	0.493871	-0.866754	-0.069487	0.859859	0.498702	-0.109260	0	0	0
13602	0	0	0	0	0	9.722842	-0.701645	-1.113421	-0.000097	0.002294	-0.004905	-0.648438	0.513428	0.973877	0.195771	-0.725494	-0.168193	-0.638000	-147.559577	-82.561416	-2.548853	0.129335	-0.005757	0.991584	0.493850	-0.866769	-0.069447	0.859875	0.498676	-0.109261	0	0	0
13603	0	0	0	0	0	9.722875	-0.674389	-1.059621	-0.000101	0.005534	-0.002813	-0.649658	0.519531	0.984131	0.195752	-0.725487	-0.168181	-0.638017	-147.560329	-82.563468	-2.550764	0.129300	-0.005760	0.991589	0.493813	-0.866792	-0.069427	0.859902	0.498636	-0.109232	0	0	0
13604	0	0	0	0	0	9.733443	-0.678964	-1.112751	-0.002950	-0.000835	-0.002148	-0.639648	0.520020	0.987305	0.195725	-0.725501	-0.168169	-0.638012	-147.574160	-82.562298	-2.540211	0.129321	-0.005737	0.991586	0.493763	-0.866822	-0.069411	0.859927	0.498585	-0.109265	0	0	0
13605	0	0	0	0	0	9.736814	-0.707292	-1.131868	-0.002578	0.000815	-0.002145	-0.643799	0.521484	0.983643	0.195698	-0.725513	-0.168152	-0.638010	-147.585005	-82.561522	-2.533043	0.129335	-0.005722	0.991584	0.493708	-0.866854	-0.069398	0.859956	0.498529	-0.109290	0	0	0
13606	0	0	0	0	0	9.722983	-0.673419	-1.059249	-0.002675	0.003108	-0.007050	-0.647705	0.515625	0.982910	0.195660	-0.725511	-0.168154	-0.638024	-147.607565	-82.563764	-2.513530	0.129298	-0.005676	0.991590	0.493667	-0.866883	-0.069334	0.859985	0.498480	-0.109284	0	0	0
13607	0	0	0	0	0	9.719705	-0.671421	-1.093419	-0.002718	0.000463	0.001351	-0.651123	0.508301	0.981934	0.195643	-0.725527	-0.168125	-0.638019	-147.606205	-82.561882	-2.518703	0.129330	-0.005689	0.991585	0.493607	-0.866915	-0.069354	0.860015	0.498423	-0.109310	0	0	0
13608	0	0	0	0	0	9.750729	-0.686061	-1.097021	-0.000846	0.002233	-0.002818	-0.642578	0.523926	0.983887	0.195624	-0.725529	-0.168119	-0.638024	-147.614095	-82.562402	-2.512928	0.129322	-0.005676	0.991586	0.493577	-0.866934	-0.069334	0.860034	0.498390	-0.109312	0	0	0
13609	0	0	0	0	0	9.733616	-0.677639	-1.112042	0.000135	0.003592	-0.001405	-0.645996	0.512695	0.979980	0.195608	-0.725530	-0.168103	-0.638033	-147.614299	-82.562982	-2.515440	0.129312	-0.005681	0.991588	0.493536	-0.866958	-0.069328	0.860058	0.498349	-0.109304	0	0	0
13610	0	0	0	0	0	9.737015	-0.706090	-1.130897	0.003090	0.001187	-0.001348	-0.650391	0.523193	0.980957	0.195607	-0.725533	-0.168105	-0.638029	-147.616946	-82.562545	-2.512677	0.129319	-0.005675	0.991587	0.493538	-0.866957	-0.069327	0.860056	0.498351	-0.109314	0	0	0
13611	0	0	0	0	0	9.726992	-0.647264	-1.126897	0.002340	0.001127	0.000738	-0.650879	0.519287	0.983398	0.195609	-0.725539	-0.168096	-0.638024	-147.613035	-82.561372	-2.517208	0.129339	-0.005686	0.991584	0.493527	-0.866962	-0.069345	0.860060	0.498342	-0.109326	0	0	0
13612	0	0	0	0	0	9.709369	-0.693083	-1.092420	0.002476	0.004719	-0.000668	-0.653564	0.519531	0.979248	0.195611	-0.725532	-0.168090	-0.638033	-147.605208	-82.562434	-2.525363	0.129320	-0.005704	0.991587	0.493522	-0.866964	-0.069351	0.860065	0.498338	-0.109301	0	0	0
13613	0	0	0	0	0	9.729937	-0.729722	-1.095892	0.002481	0.001479	-0.002759	-0.650635	0.516602	0.981689	0.195604	-0.725533	-0.168095	-0.638033	-147.613055	-82.562655	-2.517710	0.129317	-0.005686	0.991587	0.493520	-0.866966	-0.069334	0.860067	0.498334	-0.109307	0	0	0
13614	0	0	0	0	0	9.709472	-0.692756	-1.091716	0.005566	0.005906	-0.002016	-0.646484	0.517090	0.992920	0.195614	-0.725517	-0.168103	-0.638045	-147.605663	-82.564706	-2.523641	0.129281	-0.005698	0.991592	0.493544	-0.866953	-0.069329	0.860059	0.498357	-0.109268	0	0	0
13615	0	0	0	0	0	9.733891	-0.676900	-1.110088	0.002007	0.005361	-0.005575	-0.639160	0.515869	0.979736	0.195590	-0.725508	-0.168104	-0.638062	-147.616395	-82.567377	-2.514836	0.129236	-0.005676	0.991598	0.493519	-0.866971	-0.069283	0.860080	0.498326	-0.109242	0	0	0
13616	0	0	0	0	0	9.695784	-0.685530	-1.071696	0.002853	0.003128	-0.002756	-0.637939	0.530029	0.986572	0.195586	-0.725504	-0.168108	-0.638067	-147.619836	-82.568311	-2.511410	0.129220	-0.005668	0.991600	0.493521	-0.866971	-0.069268	0.860081	0.498326	-0.109233	0	0	0
13617	0	0	0	0	0	9.751188	-0.684371	-1.093994	0.000275	0.003943	-0.004902	-0.649902	0.526611	0.980469	0.195572	-0.725500	-0.168115	-0.638074	-147.631075	-82.569610	-2.500835	0.129198	-0.005643	0.991603	0.493513	-0.866978	-0.069235	0.860088	0.498314	-0.109227	0	0	0
13618	0	0	0	0	0	9.695912	-0.684821	-1.070988	0.002853	0.003128	-0.002756	-0.650146	0.517822	0.981934	0.195567	-0.725496	-0.168120	-0.638079	-147.634518	-82.570543	-2.497407	0.129183	-0.005634	0.991605	0.493515	-0.866979	-0.069220	0.860090	0.498314	-0.109218	0	0	0
13619	0	0	0	0	0	9.706511	-0.689442	-1.124034	0.006180	0.002374	-0.002696	-0.647217	0.512939	0.991455	0.195579	-0.725490	-0.168140	-0.638077	-147.637427	-82.571028	-2.491806	0.129175	-0.005621	0.991606	0.493556	-0.866956	-0.069209	0.860067	0.498354	-0.109214	0	0	0
13620	0	0	0	0	0	9.737564	-0.703953	-1.127490	-0.002205	0.002464	-0.002143	-0.645508	0.520020	0.980713	0.195558	-0.725494	-0.168126	-0.638083	-147.643057	-82.571452	-2.489094	0.129168	-0.005615	0.991607	0.493513	-0.866981	-0.069195	0.860093	0.498309	-0.109215	0	0	0
13621	0	0	0	0	0	9.720446	-0.695414	-1.142685	0.002858	-0.000112	-0.004847	-0.653320	0.516846	0.984863	0.195536	-0.725502	-0.168134	-0.638078	-147.663451	-82.571180	-2.469921	0.129174	-0.005572	0.991606	0.493497	-0.866993	-0.069158	0.860101	0.498288	-0.109244	0	0	0
13622	0	0	0	0	0	9.723815	-0.696566	-1.108099	0.004724	0.004897	-0.006925	-0.645264	0.513672	0.985596	0.195527	-0.725487	-0.168157	-0.638092	-147.677154	-82.574247	-2.455066	0.129123	-0.005536	0.991613	0.493520	-0.866985	-0.069104	0.860096	0.498304	-0.109215	0	0	0
13623	0	0	0	0	0	9.727678	-0.643856	-1.122926	0.001122	0.001710	-0.002083	-0.651611	0.520264	0.984131	0.195508	-0.725492	-0.168147	-0.638095	-147.683990	-82.574189	-2.450732	0.129124	-0.005526	0.991613	0.493483	-0.867007	-0.069091	0.860117	0.498265	-0.109224	0	0	0
13624	0	0	0	0	0	9.734413	-0.673776	-1.107405	0.000275	0.003942	-0.004902	-0.646484	0.526123	0.983154	0.195488	-0.725486	-0.168150	-0.638107	-147.694983	-82.576172	-2.441179	0.129091	-0.005503	0.991618	0.493465	-0.867020	-0.069052	0.860133	0.498242	-0.109209	0	0	0
13625	0	0	0	0	0	9.724000	-0.695325	-1.107262	0.000890	0.000410	-0.005582	-0.649414	0.508057	0.979736	0.195470	-0.725490	-0.168165	-0.638104	-147.716369	-82.576460	-2.420035	0.129088	-0.005456	0.991618	0.493464	-0.867024	-0.069009	0.860133	0.498236	-0.109230	0	0	0
13626	0	0	0	0	0	9.706890	-0.686645	-1.122467	0.003230	0.001538	-0.004844	-0.645508	0.517578	0.982666	0.195459	-0.725489	-0.168180	-0.638105	-147.731111	-82.577261	-2.404995	0.129075	-0.005421	0.991620	0.493471	-0.867023	-0.068973	0.860131	0.498239	-0.109236	0	0	0
13627	0	0	0	0	0	9.758387	-0.710838	-1.076533	0.004455	-0.002285	-0.004114	-0.652100	0.512207	0.979004	0.195442	-0.725502	-0.168191	-0.638092	-147.752947	-82.575926	-2.383574	0.129100	-0.005374	0.991617	0.493466	-0.867028	-0.068944	0.860130	0.498230	-0.109282	0	0	0
13628	0	0	0	0	0	9.717421	-0.663905	-1.122292	0.007910	0.003793	-0.003368	-0.650146	0.521240	0.988525	0.195455	-0.725490	-0.168213	-0.638096	-147.754230	-82.577367	-2.379402	0.129076	-0.005363	0.991620	0.493512	-0.867004	-0.068928	0.860108	0.498273	-0.109262	0	0	0
13629	0	0	0	0	0	9.734634	-0.671855	-1.106636	0.007538	0.002142	-0.003370	-0.651123	0.517822	0.974121	0.195459	-0.725485	-0.168231	-0.638095	-147.760604	-82.578001	-2.371154	0.129066	-0.005344	0.991622	0.493541	-0.866988	-0.068910	0.860092	0.498300	-0.109261	0	0	0
13630	0	0	0	0	0	9.710377	-0.686858	-1.087384	0.005102	0.003305	-0.009013	-0.645996	0.520508	0.987793	0.195443	-0.725473	-0.168265	-0.638105	-147.785653	-82.580930	-2.344640	0.129018	-0.005283	0.991628	0.493570	-0.866978	-0.068835	0.860083	0.498319	-0.109248	0	0	0
13631	0	0	0	0	0	9.713844	-0.714903	-1.106153	0.007538	0.002142	-0.003370	-0.644775	0.516113	0.979736	0.195454	-0.725467	-0.168289	-0.638102	-147.791354	-82.581467	-2.336053	0.129009	-0.005263	0.991629	0.493615	-0.866953	-0.068820	0.860059	0.498362	-0.109247	0	0	0
13632	0	0	0	0	0	9.727788	-0.721115	-1.124644	0.008044	0.007383	-0.004774	-0.653320	0.514893	0.979248	0.195465	-0.725442	-0.168313	-0.638120	-147.789384	-82.585078	-2.335084	0.128947	-0.005258	0.991638	0.493664	-0.866928	-0.068790	0.860040	0.498406	-0.109192	0	0	0
13633	0	0	0	0	0	9.707321	-0.683872	-1.120438	0.007307	0.000842	-0.006868	-0.646484	0.512695	0.980957	0.195459	-0.725439	-0.168346	-0.638118	-147.811789	-82.586155	-2.310492	0.128930	-0.005202	0.991640	0.493701	-0.866911	-0.068737	0.860021	0.498436	-0.109203	0	0	0
13634	0	0	0	0	0	9.707410	-0.683247	-1.120043	0.006454	0.006313	-0.007598	-0.645020	0.515137	0.982178	0.195455	-0.725416	-0.168376	-0.638136	-147.823779	-82.590109	-2.296364	0.128863	-0.005167	0.991649	0.493739	-0.866894	-0.068678	0.860009	0.498466	-0.109159	0	0	0
13635	0	0	0	0	0	9.721285	-0.662128	-1.085009	0.009172	0.005850	-0.008947	-0.644043	0.524170	0.976807	0.195449	-0.725395	-0.168414	-0.638152	-147.841753	-82.594060	-2.275818	0.128797	-0.005119	0.991658	0.493785	-0.866873	-0.068607	0.859993	0.498502	-0.109123	0	0	0
13636	0	0	0	0	0	9.728112	-0.691577	-1.069057	0.001158	0.007588	-0.008395	-0.649170	0.516846	0.979004	0.195424	-0.725374	-0.168429	-0.638180	-147.856796	-82.598874	-2.261673	0.128715	-0.005083	0.991669	0.493779	-0.866882	-0.068534	0.860009	0.498487	-0.109070	0	0	0
13637	0	0	0	0	0	9.718245	-0.658927	-1.118088	0.002384	0.003766	-0.007663	-0.645508	0.518799	0.985840	0.195408	-0.725363	-0.168454	-0.638190	-147.877191	-82.601443	-2.240477	0.128672	-0.005034	0.991674	0.493797	-0.866877	-0.068472	0.860005	0.498496	-0.109057	0	0	0
13638	0	0	0	0	0	9.714567	-0.710550	-1.102601	0.003981	0.001594	-0.006929	-0.648438	0.514404	0.985107	0.195393	-0.725359	-0.168479	-0.638193	-147.899233	-82.602900	-2.217644	0.128649	-0.004982	0.991678	0.493813	-0.866872	-0.068417	0.859999	0.498505	-0.109062	0	0	0
13639	0	0	0	0	0	9.711257	-0.681174	-1.083093	0.005235	0.006892	-0.010418	-0.647461	0.521484	0.977539	0.195370	-0.725337	-0.168509	-0.638217	-147.922514	-82.607715	-2.193904	0.128568	-0.004925	0.991688	0.493829	-0.866871	-0.068328	0.860002	0.498509	-0.109019	0	0	0
13640	0	0	0	0	0	9.718555	-0.656628	-1.116740	0.002755	0.005415	-0.007660	-0.651123	0.523926	0.984131	0.195352	-0.725322	-0.168528	-0.638235	-147.939068	-82.611248	-2.177313	0.128508	-0.004886	0.991696	0.493835	-0.866872	-0.068264	0.860007	0.498507	-0.108987	0	0	0
13641	0	0	0	0	0	9.708194	-0.677971	-1.116450	0.006699	0.001131	-0.008277	-0.654053	0.515869	0.983643	0.195348	-0.725315	-0.168573	-0.638232	-147.965391	-82.612731	-2.147536	0.128485	-0.004818	0.991700	0.493893	-0.866844	-0.068200	0.859978	0.498556	-0.108997	0	0	0
13642	0	0	0	0	0	9.749602	-0.642998	-1.066414	0.002992	0.003475	-0.006252	-0.644531	0.521484	0.982178	0.195334	-0.725306	-0.168590	-0.638242	-147.981107	-82.614892	-2.131653	0.128449	-0.004781	0.991705	0.493900	-0.866844	-0.068151	0.859979	0.498556	-0.108984	0	0	0
13643	0	0	0	0	0	9.722068	-0.656446	-1.081445	0.000883	0.003648	-0.003492	-0.643799	0.521973	0.977051	0.195319	-0.725303	-0.168589	-0.638251	-147.987892	-82.616147	-2.126194	0.128428	-0.004768	0.991707	0.493882	-0.866856	-0.068126	0.859993	0.498535	-0.108973	0	0	0
13644	0	0	0	0	0	9.735989	-0.662577	-1.100292	0.007546	-0.001099	-0.005457	-0.644043	0.514404	0.983154	0.195319	-0.725305	-0.168623	-0.638239	-148.008748	-82.615843	-2.102497	0.128435	-0.004715	0.991707	0.493927	-0.866833	-0.068089	0.859966	0.498576	-0.109003	0	0	0
13645	0	0	0	0	0	9.749927	-0.668462	-1.119141	0.005102	0.003301	-0.009011	-0.650391	0.516113	0.977295	0.195304	-0.725295	-0.168657	-0.638246	-148.034548	-82.618431	-2.075113	0.128392	-0.004652	0.991713	0.493957	-0.866822	-0.068017	0.859955	0.498596	-0.108995	0	0	0
13646	0	0	0	0	0	9.687964	-0.638291	-1.111346	0.000786	0.005935	-0.008397	-0.643311	0.522949	0.978027	0.195277	-0.725279	-0.168673	-0.638269	-148.053856	-82.622436	-2.056882	0.128325	-0.004609	0.991722	0.493948	-0.866833	-0.067943	0.859970	0.498577	-0.108959	0	0	0
13647	0	0	0	0	0	9.763842	-0.646692	-1.083829	0.002851	0.003126	-0.002755	-0.650879	0.513184	0.973145	0.195277	-0.725274	-0.168682	-0.638272	-148.057322	-82.623207	-2.052672	0.128312	-0.004599	0.991723	0.493960	-0.866827	-0.067929	0.859965	0.498588	-0.108952	0	0	0
13648	0	0	0	0	0	9.705263	-0.645521	-1.095302	0.002622	0.001824	-0.006253	-0.650391	0.516113	0.984375	0.195260	-0.725271	-0.168699	-0.638276	-148.077170	-82.624562	-2.032837	0.128290	-0.004554	0.991726	0.493964	-0.866829	-0.067879	0.859966	0.498585	-0.108956	0	0	0
13649	0	0	0	0	0	9.739646	-0.661352	-1.064276	0.002612	0.005066	-0.004164	-0.651123	0.517578	0.976563	0.195248	-0.725261	-0.168703	-0.638290	-148.082403	-82.626911	-2.028312	0.128249	-0.004542	0.991732	0.493957	-0.866835	-0.067848	0.859976	0.498574	-0.108928	0	0	0
13650	0	0	0	0	0	9.722574	-0.652701	-1.079154	-0.000335	0.004226	-0.006314	-0.650635	0.522949	0.984131	0.195221	-0.725253	-0.168709	-0.638306	-148.098567	-82.629452	-2.013900	0.128207	-0.004508	0.991737	0.493935	-0.866852	-0.067794	0.859995	0.498546	-0.108909	0	0	0
13651	0	0	0	0	0	9.715475	-0.676029	-1.044499	0.000132	0.003589	-0.001407	-0.651611	0.517090	0.985107	0.195215	-0.725251	-0.168703	-0.638312	-148.097499	-82.630137	-2.016025	0.128195	-0.004513	0.991739	0.493920	-0.866861	-0.067790	0.860005	0.498530	-0.108898	0	0	0
13652	0	0	0	0	0	9.729618	-0.708977	-1.116504	0.003134	0.003821	-0.009747	-0.644043	0.521973	0.984863	0.195190	-0.725238	-0.168733	-0.638326	-148.125553	-82.633519	-1.987621	0.128138	-0.004447	0.991746	0.493933	-0.866860	-0.067705	0.860006	0.498532	-0.108881	0	0	0
13653	0	0	0	0	0	9.747077	-0.635859	-1.097239	0.000239	-0.001939	0.001409	-0.658203	0.518799	0.983643	0.195184	-0.725258	-0.168717	-0.638309	-148.127464	-82.630425	-1.987456	0.128192	-0.004448	0.991739	0.493903	-0.866875	-0.067730	0.860016	0.498505	-0.108929	0	0	0
13654	0	0	0	0	0	9.691924	-0.663463	-1.127920	-0.000335	0.004225	-0.006314	-0.652344	0.514893	0.980957	0.195158	-0.725250	-0.168723	-0.638324	-148.143650	-82.632964	-1.973022	0.128149	-0.004415	0.991745	0.493881	-0.866892	-0.067676	0.860034	0.498477	-0.108911	0	0	0
13655	0	0	0	0	0	9.709157	-0.671185	-1.112165	0.007908	0.003793	-0.003364	-0.653564	0.514648	0.984131	0.195167	-0.725239	-0.168743	-0.638330	-148.145687	-82.634535	-1.968580	0.128122	-0.004404	0.991749	0.493920	-0.866871	-0.067658	0.860016	0.498513	-0.108890	0	0	0
13656	0	0	0	0	0	9.719647	-0.648776	-1.111815	0.003231	0.001534	-0.004842	-0.648926	0.515869	0.984863	0.195156	-0.725237	-0.168758	-0.638331	-148.160595	-82.635319	-1.953374	0.128110	-0.004369	0.991750	0.493927	-0.866870	-0.067622	0.860014	0.498515	-0.108896	0	0	0
13657	0	0	0	0	0	9.736843	-0.656609	-1.096301	0.001121	0.001708	-0.002083	-0.651367	0.519287	0.977783	0.195139	-0.725242	-0.168749	-0.638332	-148.167192	-82.635271	-1.948900	0.128111	-0.004359	0.991750	0.493895	-0.866889	-0.067610	0.860032	0.498483	-0.108905	0	0	0
13658	0	0	0	0	0	9.740151	-0.658023	-1.061719	0.002850	0.003126	-0.002755	-0.651611	0.521240	0.983643	0.195135	-0.725238	-0.168754	-0.638337	-148.170740	-82.636198	-1.945369	0.128095	-0.004351	0.991752	0.493897	-0.866889	-0.067595	0.860033	0.498482	-0.108895	0	0	0
13659	0	0	0	0	0	9.712619	-0.671594	-1.076844	-0.000097	0.002286	-0.004905	-0.651123	0.523682	0.981201	0.195116	-0.725237	-0.168761	-0.638343	-148.186017	-82.637310	-1.931127	0.128077	-0.004318	0.991755	0.493884	-0.866899	-0.067556	0.860043	0.498464	-0.108897	0	0	0
13660	0	0	0	0	0	9.747414	-0.633699	-1.095491	0.006787	0.002085	-0.001281	-0.648438	0.519287	0.986816	0.195129	-0.725233	-0.168773	-0.638339	-148.184190	-82.637285	-1.930741	0.128077	-0.004318	0.991755	0.493917	-0.866880	-0.067560	0.860024	0.498498	-0.108895	0	0	0
13661	0	0	0	0	0	9.723339	-0.675883	-1.129717	0.003981	0.001591	-0.006927	-0.649170	0.524902	0.979492	0.195117	-0.725230	-0.168800	-0.638340	-148.206570	-82.638498	-1.907140	0.128058	-0.004264	0.991757	0.493940	-0.866871	-0.067506	0.860014	0.498513	-0.108904	0	0	0
13662	0	0	0	0	0	9.709513	-0.668836	-1.110471	0.003601	0.003183	-0.004840	-0.651367	0.517578	0.984131	0.195109	-0.725223	-0.168814	-0.638346	-148.217420	-82.640082	-1.895812	0.128032	-0.004238	0.991761	0.493950	-0.866868	-0.067471	0.860012	0.498519	-0.108893	0	0	0
13663	0	0	0	0	0	9.740604	-0.683156	-1.113948	0.002110	-0.000174	-0.002759	-0.645996	0.515869	0.983887	0.195103	-0.725230	-0.168824	-0.638338	-148.229090	-82.639249	-1.883853	0.128047	-0.004212	0.991759	0.493955	-0.866867	-0.067456	0.860007	0.498522	-0.108919	0	0	0
13664	0	0	0	0	0	9.723278	-0.647803	-1.075761	0.002850	0.003126	-0.002755	-0.656006	0.517334	0.985840	0.195099	-0.725226	-0.168828	-0.638343	-148.232648	-82.640176	-1.880312	0.128031	-0.004203	0.991761	0.493957	-0.866867	-0.067441	0.860009	0.498521	-0.108910	0	0	0
13665	0	0	0	0	0	9.723327	-0.647492	-1.075508	0.001871	0.001765	-0.004168	-0.651367	0.522217	0.987305	0.195080	-0.725228	-0.168831	-0.638345	-148.246355	-82.640739	-1.867938	0.128022	-0.004175	0.991762	0.493939	-0.866880	-0.067410	0.860020	0.498500	-0.108918	0	0	0
13666	0	0	0	0	0	9.740746	-0.682246	-1.113260	0.000882	0.003646	-0.003492	-0.648193	0.518066	0.979004	0.195067	-0.725223	-0.168831	-0.638355	-148.252611	-82.642142	-1.862813	0.127998	-0.004163	0.991766	0.493924	-0.866890	-0.067385	0.860032	0.498482	-0.108904	0	0	0
13667	0	0	0	0	0	9.706273	-0.638739	-1.090317	0.001121	0.001707	-0.002083	-0.647217	0.521973	0.980469	0.195059	-0.725226	-0.168830	-0.638354	-148.258236	-82.641981	-1.857932	0.128002	-0.004152	0.991765	0.493913	-0.866897	-0.067376	0.860038	0.498470	-0.108913	0	0	0
13668	0	0	0	0	0	9.733889	-0.624535	-1.074732	0.000512	0.001996	-0.003494	-0.648682	0.524658	0.976074	0.195042	-0.725227	-0.168831	-0.638357	-148.268565	-82.642579	-1.848915	0.127992	-0.004132	0.991767	0.493895	-0.866909	-0.067351	0.860050	0.498449	-0.108917	0	0	0
13669	0	0	0	0	0	9.720241	-0.644708	-1.108988	-0.002577	0.000809	-0.002148	-0.650391	0.522461	0.986328	0.195029	-0.725235	-0.168828	-0.638354	-148.277618	-82.641986	-1.841284	0.128003	-0.004115	0.991765	0.493874	-0.866922	-0.067339	0.860060	0.498427	-0.108936	0	0	0
13670	0	0	0	0	0	9.706604	-0.664884	-1.143164	0.000882	0.003646	-0.003492	-0.647705	0.518066	0.983398	0.195015	-0.725230	-0.168828	-0.638363	-148.283880	-82.643387	-1.836153	0.127979	-0.004103	0.991768	0.493859	-0.866932	-0.067314	0.860072	0.498409	-0.108923	0	0	0
13671	0	0	0	0	0	9.723793	-0.672803	-1.127648	0.002719	-0.000462	-0.001347	-0.654541	0.512451	0.979492	0.195012	-0.725240	-0.168831	-0.638352	-148.291058	-82.641874	-1.828945	0.128006	-0.004087	0.991765	0.493859	-0.866933	-0.067315	0.860069	0.498409	-0.108954	0	0	0
13672	0	0	0	0	0	9.678856	-0.651514	-1.104980	0.004448	0.000956	-0.002019	-0.649658	0.514648	0.983398	0.195014	-0.725242	-0.168840	-0.638347	-148.295990	-82.641521	-1.823094	0.128012	-0.004075	0.991764	0.493873	-0.866925	-0.067308	0.860060	0.498422	-0.108965	0	0	0
13673	0	0	0	0	0	9.717091	-0.642396	-1.142789	0.005057	0.000667	-0.000608	-0.647461	0.517090	0.990479	0.195016	-0.725246	-0.168840	-0.638341	-148.297114	-82.640644	-1.821800	0.128027	-0.004072	0.991762	0.493875	-0.866924	-0.067314	0.860056	0.498424	-0.108979	0	0	0
13674	0	0	0	0	0	9.734251	-0.650598	-1.127353	0.005666	0.000379	0.000803	-0.645508	0.520752	0.985352	0.195031	-0.725251	-0.168843	-0.638330	-148.292044	-82.639160	-1.825331	0.128053	-0.004081	0.991759	0.493896	-0.866910	-0.067337	0.860040	0.498448	-0.108995	0	0	0
13675	0	0	0	0	0	9.723606	-0.645732	-1.074037	0.006047	-0.001214	-0.001283	-0.647949	0.517822	0.981201	0.195036	-0.725262	-0.168853	-0.638314	-148.299447	-82.637096	-1.816686	0.128089	-0.004063	0.991754	0.493913	-0.866900	-0.067342	0.860025	0.498466	-0.109034	0	0	0
13676	0	0	0	0	0	9.723612	-0.645579	-1.074078	0.002110	-0.000174	-0.002758	-0.645996	0.517578	0.988525	0.195026	-0.725269	-0.168858	-0.638307	-148.311137	-82.636414	-1.805372	0.128102	-0.004038	0.991753	0.493908	-0.866904	-0.067326	0.860026	0.498459	-0.109058	0	0	0
13677	0	0	0	0	0	9.734250	-0.650486	-1.127429	0.002577	-0.000808	0.002148	-0.644775	0.520508	0.985107	0.195030	-0.725285	-0.168844	-0.638292	-148.306496	-82.633631	-1.810763	0.128149	-0.004051	0.991747	0.493893	-0.866910	-0.067360	0.860028	0.498449	-0.109093	0	0	0
13678	0	0	0	0	0	9.709904	-0.666233	-1.108616	0.000239	-0.001938	0.001409	-0.652832	0.519043	0.978027	0.195025	-0.725303	-0.168830	-0.638277	-148.307644	-82.630835	-1.811160	0.128198	-0.004054	0.991740	0.493866	-0.866923	-0.067383	0.860036	0.498425	-0.109136	0	0	0
13679	0	0	0	0	0	9.713151	-0.667934	-1.074318	0.003697	0.000898	0.000065	-0.643799	0.517822	0.978760	0.195033	-0.725308	-0.168832	-0.638268	-148.305469	-82.629646	-1.812476	0.128218	-0.004057	0.991738	0.493877	-0.866916	-0.067398	0.860026	0.498439	-0.109151	0	0	0
13680	0	0	0	0	0	9.723803	-0.672846	-1.127538	0.006416	0.000436	-0.001282	-0.647217	0.519775	0.988525	0.195044	-0.725310	-0.168845	-0.638259	-148.307697	-82.628817	-1.808216	0.128233	-0.004048	0.991736	0.493907	-0.866898	-0.067402	0.860007	0.498469	-0.109165	0	0	0
13681	0	0	0	0	0	9.734227	-0.650738	-1.127484	0.004687	-0.000983	-0.000610	-0.652832	0.526123	0.982910	0.195050	-0.725321	-0.168851	-0.638244	-148.312358	-82.626736	-1.802572	0.128269	-0.004037	0.991731	0.493920	-0.866890	-0.067412	0.859994	0.498483	-0.109202	0	0	0
13682	0	0	0	0	0	9.737476	-0.652359	-1.093207	0.003328	-0.000751	0.000064	-0.652100	0.522949	0.982422	0.195053	-0.725331	-0.168850	-0.638231	-148.314044	-82.624923	-1.800643	0.128301	-0.004033	0.991727	0.493922	-0.866888	-0.067425	0.859988	0.498487	-0.109230	0	0	0
13683	0	0	0	0	0	9.737479	-0.652283	-1.093228	0.000751	0.000057	-0.002085	-0.639648	0.529297	0.984863	0.195049	-0.725337	-0.168856	-0.638224	-148.322820	-82.624056	-1.791675	0.128316	-0.004014	0.991725	0.493925	-0.866887	-0.067416	0.859984	0.498489	-0.109253	0	0	0
13684	0	0	0	0	0	9.727086	-0.674288	-1.093077	0.009124	0.003215	-0.000541	-0.660645	0.515869	0.984375	0.195074	-0.725328	-0.168873	-0.638221	-148.314242	-82.624359	-1.796747	0.128311	-0.004025	0.991726	0.493978	-0.866856	-0.067430	0.859955	0.498542	-0.109239	0	0	0
13685	0	0	0	0	0	9.713437	-0.694864	-1.127145	0.006035	0.002028	0.000804	-0.653076	0.524170	0.986084	0.195096	-0.725328	-0.168879	-0.638214	-148.305156	-82.623462	-1.803457	0.128326	-0.004041	0.991724	0.494011	-0.866835	-0.067455	0.859933	0.498579	-0.109241	0	0	0
13686	0	0	0	0	0	9.734304	-0.650902	-1.126719	0.013430	0.003824	0.000936	-0.650391	0.518066	0.981445	0.195142	-0.725314	-0.168903	-0.638209	-148.287131	-82.623617	-1.815566	0.128322	-0.004068	0.991724	0.494099	-0.866782	-0.067488	0.859884	0.498670	-0.109218	0	0	0
13687	0	0	0	0	0	9.713477	-0.695272	-1.126548	0.008993	-0.000373	0.000868	-0.641602	0.521484	0.981445	0.195171	-0.725318	-0.168920	-0.638191	-148.281868	-82.621643	-1.817006	0.128356	-0.004072	0.991720	0.494154	-0.866749	-0.067516	0.859847	0.498728	-0.109241	0	0	0
13688	0	0	0	0	0	9.720411	-0.644719	-1.107491	0.011712	-0.000837	-0.000479	-0.651123	0.521240	0.980469	0.195203	-0.725320	-0.168948	-0.638172	-148.280998	-82.619952	-1.812809	0.128386	-0.004063	0.991716	0.494228	-0.866705	-0.067533	0.859800	0.498804	-0.109265	0	0	0
13689	0	0	0	0	0	9.741067	-0.681443	-1.110946	0.008515	0.003502	-0.001952	-0.643311	0.525635	0.980957	0.195226	-0.725310	-0.168971	-0.638170	-148.277438	-82.620537	-1.812411	0.128376	-0.004062	0.991717	0.494288	-0.866671	-0.067535	0.859767	0.498864	-0.109252	0	0	0
13690	0	0	0	0	0	9.706573	-0.638155	-1.087985	0.004067	0.002548	0.000067	-0.652588	0.510986	0.988525	0.195235	-0.725309	-0.168970	-0.638169	-148.271023	-82.620331	-1.818223	0.128379	-0.004075	0.991717	0.494296	-0.866665	-0.067549	0.859761	0.498874	-0.109247	0	0	0
13691	0	0	0	0	0	9.723759	-0.646250	-1.072339	0.003458	0.002835	-0.001345	-0.649658	0.519043	0.990479	0.195234	-0.725308	-0.168968	-0.638170	-148.270562	-82.620438	-1.818888	0.128377	-0.004077	0.991717	0.494293	-0.866667	-0.067549	0.859764	0.498871	-0.109245	0	0	0
13692	0	0	0	0	0	9.720527	-0.644844	-1.106400	0.002565	0.002435	0.004236	-0.651611	0.520508	0.982666	0.195250	-0.725312	-0.168947	-0.638166	-148.249586	-82.618920	-1.840251	0.128402	-0.004125	0.991714	0.494283	-0.866668	-0.067603	0.859766	0.498868	-0.109243	0	0	0
13693	0	0	0	0	0	9.751597	-0.659596	-1.109808	0.002480	0.001474	-0.002757	-0.651367	0.520508	0.984619	0.195241	-0.725316	-0.168950	-0.638165	-148.258043	-82.618851	-1.832390	0.128404	-0.004108	0.991713	0.494275	-0.866674	-0.067587	0.859770	0.498858	-0.109254	0	0	0
13694	0	0	0	0	0	9.720563	-0.644898	-1.106045	0.000978	0.001362	0.001412	-0.653320	0.515869	0.979492	0.195241	-0.725322	-0.168935	-0.638161	-148.251098	-82.617661	-1.840520	0.128424	-0.004127	0.991711	0.494255	-0.866684	-0.067611	0.859779	0.498841	-0.109263	0	0	0
13695	0	0	0	0	0	9.724038	-0.673611	-1.125053	-0.001729	-0.001418	0.000672	-0.650391	0.523926	0.987305	0.195226	-0.725340	-0.168916	-0.638150	-148.255533	-82.615353	-1.838948	0.128464	-0.004125	0.991706	0.494210	-0.866709	-0.067624	0.859799	0.498798	-0.109302	0	0	0
13696	0	0	0	0	0	9.727295	-0.675241	-1.090621	-0.000620	0.003531	0.000675	-0.651123	0.523438	0.979492	0.195220	-0.725341	-0.168896	-0.638156	-148.247233	-82.615443	-1.849369	0.128461	-0.004148	0.991706	0.494177	-0.866726	-0.067639	0.859818	0.498767	-0.109291	0	0	0
13697	0	0	0	0	0	9.706923	-0.665653	-1.140001	0.001348	0.003011	0.001413	-0.647949	0.522705	0.985352	0.195230	-0.725342	-0.168886	-0.638156	-148.236035	-82.614891	-1.860619	0.128470	-0.004173	0.991705	0.494174	-0.866726	-0.067665	0.859818	0.498767	-0.109286	0	0	0
13698	0	0	0	0	0	9.741248	-0.681937	-1.109049	0.001729	0.001418	-0.000672	-0.648193	0.522217	0.985840	0.195226	-0.725346	-0.168881	-0.638153	-148.236371	-82.614356	-1.860973	0.128479	-0.004174	0.991703	0.494163	-0.866732	-0.067669	0.859823	0.498757	-0.109294	0	0	0
13699	0	0	0	0	0	9.727369	-0.675207	-1.089983	0.000142	0.000344	-0.003496	-0.647217	0.516602	0.980469	0.195210	-0.725354	-0.168884	-0.638148	-148.251051	-82.613832	-1.847383	0.128489	-0.004144	0.991702	0.494147	-0.866742	-0.067646	0.859831	0.498739	-0.109319	0	0	0
13700	0	0	0	0	0	9.755218	-0.688094	-1.127675	0.002469	0.004717	-0.000670	-0.646973	0.530029	0.979248	0.195212	-0.725346	-0.168878	-0.638158	-148.243281	-82.614905	-1.855485	0.128470	-0.004162	0.991705	0.494143	-0.866745	-0.067651	0.859836	0.498735	-0.109294	0	0	0
13701	0	0	0	0	0	9.730930	-0.703589	-1.108447	0.006416	0.000434	-0.001280	-0.647461	0.519775	0.989990	0.195231	-0.725348	-0.168899	-0.638145	-148.245077	-82.613834	-1.850323	0.128489	-0.004151	0.991702	0.494193	-0.866716	-0.067657	0.859805	0.498785	-0.109312	0	0	0
13702	0	0	0	0	0	9.734667	-0.651175	-1.123424	0.008276	0.005438	-0.003362	-0.651367	0.520020	0.985352	0.195247	-0.725330	-0.168920	-0.638154	-148.242416	-82.616069	-1.849917	0.128450	-0.004149	0.991707	0.494241	-0.866689	-0.067642	0.859783	0.498831	-0.109276	0	0	0
13703	0	0	0	0	0	9.737973	-0.652582	-1.088645	0.003458	0.002835	-0.001344	-0.644775	0.517334	0.981689	0.195246	-0.725330	-0.168919	-0.638155	-148.241973	-82.616161	-1.850547	0.128449	-0.004150	0.991707	0.494239	-0.866691	-0.067642	0.859784	0.498829	-0.109274	0	0	0
13704	0	0	0	0	0	9.700022	-0.688489	-1.103827	0.001121	0.001705	-0.002084	-0.648193	0.516357	0.990234	0.195236	-0.725332	-0.168917	-0.638156	-148.247294	-82.616192	-1.846227	0.128449	-0.004140	0.991708	0.494224	-0.866700	-0.067632	0.859793	0.498813	-0.109280	0	0	0
13705	0	0	0	0	0	9.724383	-0.672834	-1.122529	0.002099	0.003067	-0.000671	-0.651123	0.520996	0.982666	0.195230	-0.725334	-0.168906	-0.638159	-148.244972	-82.616145	-1.850045	0.128449	-0.004149	0.991707	0.494201	-0.866712	-0.067637	0.859806	0.498791	-0.109278	0	0	0
13706	0	0	0	0	0	9.727662	-0.674261	-1.087955	0.002480	0.001473	-0.002756	-0.643311	0.530029	0.978027	0.195223	-0.725336	-0.168910	-0.638158	-148.252584	-82.616265	-1.842628	0.128448	-0.004132	0.991708	0.494199	-0.866715	-0.067621	0.859807	0.498787	-0.109285	0	0	0
13707	0	0	0	0	0	9.734682	-0.731115	-1.125840	0.000894	0.000399	-0.005580	-0.652100	0.526123	0.976563	0.195211	-0.725338	-0.168932	-0.638153	-148.273469	-82.616441	-1.820966	0.128446	-0.004084	0.991708	0.494214	-0.866710	-0.067580	0.859799	0.498796	-0.109307	0	0	0
13708	0	0	0	0	0	9.738432	-0.678368	-1.140889	0.003970	0.004828	-0.004839	-0.649902	0.518555	0.984863	0.195205	-0.725326	-0.168945	-0.638165	-148.280262	-82.618823	-1.813514	0.128405	-0.004066	0.991713	0.494227	-0.866705	-0.067545	0.859797	0.498805	-0.109280	0	0	0
13709	0	0	0	0	0	9.721101	-0.642879	-1.102486	-0.001837	0.004106	-0.002148	-0.650635	0.521973	0.986572	0.195192	-0.725323	-0.168937	-0.638175	-148.281690	-82.619975	-1.813889	0.128385	-0.004066	0.991716	0.494202	-0.866720	-0.067532	0.859815	0.498778	-0.109265	0	0	0
13710	0	0	0	0	0	9.703985	-0.634583	-1.117684	0.004079	-0.000696	-0.002019	-0.655029	0.518066	0.990479	0.195191	-0.725330	-0.168946	-0.638165	-148.290657	-82.618816	-1.804183	0.128406	-0.004045	0.991713	0.494212	-0.866715	-0.067525	0.859806	0.498788	-0.109293	0	0	0
13711	0	0	0	0	0	9.710759	-0.664483	-1.102159	-0.001086	0.004161	-0.004233	-0.648682	0.518799	0.985352	0.195165	-0.725327	-0.168940	-0.638178	-148.300583	-82.620555	-1.797047	0.128377	-0.004028	0.991717	0.494173	-0.866740	-0.067490	0.859833	0.498745	-0.109279	0	0	0
13712	0	0	0	0	0	9.735134	-0.648559	-1.120886	0.000143	0.000343	-0.003496	-0.657471	0.516602	0.982422	0.195147	-0.725333	-0.168941	-0.638176	-148.314948	-82.620346	-1.784172	0.128381	-0.003999	0.991717	0.494152	-0.866754	-0.067465	0.859844	0.498721	-0.109299	0	0	0
13713	0	0	0	0	0	9.696925	-0.657226	-1.082942	0.000143	0.000343	-0.003496	-0.650635	0.527832	0.973389	0.195124	-0.725341	-0.168939	-0.638175	-148.330147	-82.620147	-1.770993	0.128386	-0.003970	0.991716	0.494123	-0.866772	-0.067438	0.859860	0.498688	-0.109320	0	0	0
13714	0	0	0	0	0	9.724767	-0.670087	-1.120841	-0.001968	0.000519	-0.000739	-0.655273	0.516113	0.982178	0.195107	-0.725351	-0.168923	-0.638172	-148.334929	-82.619194	-1.769000	0.128402	-0.003966	0.991714	0.494081	-0.866797	-0.067437	0.859882	0.498646	-0.109339	0	0	0
13715	0	0	0	0	0	9.696968	-0.656873	-1.082769	-0.003567	0.002688	-0.001476	-0.652100	0.518311	0.979492	0.195090	-0.725353	-0.168911	-0.638178	-148.337783	-82.619603	-1.768616	0.128395	-0.003965	0.991715	0.494044	-0.866818	-0.067428	0.859904	0.498609	-0.109337	0	0	0
13716	0	0	0	0	0	9.728045	-0.671444	-1.086271	0.003328	-0.000751	0.000066	-0.653320	0.522461	0.982910	0.195093	-0.725363	-0.168910	-0.638166	-148.339452	-82.617789	-1.766703	0.128427	-0.003961	0.991711	0.494046	-0.866816	-0.067441	0.859898	0.498612	-0.109365	0	0	0
13717	0	0	0	0	0	9.742012	-0.677649	-1.104959	-0.001934	0.006385	-0.007054	-0.649658	0.518555	0.991943	0.195063	-0.725349	-0.168915	-0.638191	-148.354442	-82.621608	-1.753930	0.128361	-0.003931	0.991720	0.494019	-0.866837	-0.067378	0.859924	0.498577	-0.109327	0	0	0
13718	0	0	0	0	0	9.766398	-0.661671	-1.123615	0.004079	-0.000696	-0.002018	-0.653076	0.520020	0.985596	0.195062	-0.725356	-0.168924	-0.638180	-148.363396	-82.620447	-1.744236	0.128382	-0.003910	0.991717	0.494030	-0.866831	-0.067372	0.859914	0.498587	-0.109354	0	0	0
13719	0	0	0	0	0	9.711046	-0.662340	-1.100922	0.000881	0.003642	-0.003494	-0.654053	0.517822	0.984863	0.195045	-0.725354	-0.168920	-0.638189	-148.370772	-82.621634	-1.738637	0.128362	-0.003896	0.991720	0.494005	-0.866847	-0.067347	0.859932	0.498559	-0.109345	0	0	0
13720	0	0	0	0	0	9.732191	-0.644872	-1.153930	0.001872	0.001760	-0.004167	-0.649902	0.525635	0.979004	0.195031	-0.725354	-0.168928	-0.638191	-148.383390	-82.622317	-1.726525	0.128351	-0.003869	0.991721	0.494000	-0.866852	-0.067316	0.859936	0.498550	-0.109350	0	0	0
13721	0	0	0	0	0	9.725336	-0.695365	-1.172697	0.002098	0.003067	-0.000671	-0.649414	0.515625	0.979736	0.195035	-0.725352	-0.168927	-0.638193	-148.379584	-82.622524	-1.730098	0.128347	-0.003877	0.991722	0.494003	-0.866850	-0.067322	0.859935	0.498554	-0.109343	0	0	0
13722	0	0	0	0	0	9.707948	-0.660139	-1.134470	0.008145	0.001852	-0.001950	-0.647949	0.518799	0.987305	0.195051	-0.725347	-0.168947	-0.638188	-148.380040	-82.622585	-1.726624	0.128346	-0.003869	0.991722	0.494049	-0.866824	-0.067320	0.859909	0.498599	-0.109342	0	0	0
13723	0	0	0	0	0	9.742280	-0.676309	-1.103414	0.009122	0.003214	-0.000538	-0.648926	0.520508	0.990234	0.195074	-0.725340	-0.168960	-0.638185	-148.372413	-82.622699	-1.731253	0.128344	-0.003879	0.991722	0.494093	-0.866797	-0.067334	0.859883	0.498645	-0.109332	0	0	0
13724	0	0	0	0	0	9.725199	-0.668073	-1.118293	0.006307	0.005957	-0.004099	-0.651367	0.522705	0.988770	0.195080	-0.725322	-0.168978	-0.638199	-148.372494	-82.625408	-1.729219	0.128297	-0.003873	0.991728	0.494126	-0.866781	-0.067309	0.859872	0.498674	-0.109292	0	0	0
13725	0	0	0	0	0	9.707809	-0.632860	-1.080021	0.007633	-0.000140	0.001545	-0.647705	0.514648	0.981201	0.195103	-0.725330	-0.168984	-0.638182	-148.365521	-82.623129	-1.733731	0.128337	-0.003885	0.991723	0.494160	-0.866759	-0.067343	0.859846	0.498712	-0.109317	0	0	0
13726	0	0	0	0	0	9.732164	-0.617466	-1.098612	0.000117	0.006829	0.000675	-0.653320	0.516357	0.982178	0.195103	-0.725319	-0.168963	-0.638199	-148.349128	-82.624829	-1.751886	0.128306	-0.003924	0.991727	0.494133	-0.866773	-0.067359	0.859866	0.498688	-0.109273	0	0	0
13727	0	0	0	0	0	9.718135	-0.691825	-1.082884	0.001729	0.001417	-0.000672	-0.653320	0.520264	0.984863	0.195095	-0.725325	-0.168954	-0.638198	-148.350496	-82.624254	-1.751954	0.128316	-0.003925	0.991726	0.494111	-0.866785	-0.067362	0.859878	0.498666	-0.109283	0	0	0
13728	0	0	0	0	0	9.725336	-0.668168	-1.117049	0.000369	0.001649	0.000001	-0.645508	0.519287	0.991455	0.195089	-0.725330	-0.168942	-0.638197	-148.348530	-82.623630	-1.755416	0.128326	-0.003933	0.991724	0.494087	-0.866798	-0.067371	0.859890	0.498644	-0.109290	0	0	0
13729	0	0	0	0	0	9.697814	-0.682117	-1.132220	0.003458	0.002835	-0.001344	-0.649414	0.518799	0.984375	0.195088	-0.725330	-0.168941	-0.638198	-148.348115	-82.623693	-1.756011	0.128325	-0.003934	0.991724	0.494085	-0.866800	-0.067371	0.859891	0.498641	-0.109288	0	0	0
13730	0	0	0	0	0	9.728629	-0.669580	-1.082178	0.003458	0.002834	-0.001344	-0.652588	0.516846	0.989258	0.195090	-0.725327	-0.168942	-0.638200	-148.346692	-82.624051	-1.757141	0.128319	-0.003937	0.991725	0.494089	-0.866797	-0.067371	0.859890	0.498646	-0.109281	0	0	0
13731	0	0	0	0	0	9.746117	-0.704661	-1.119732	0.003827	0.004484	-0.001343	-0.651367	0.516846	0.977783	0.195090	-0.725321	-0.168939	-0.638208	-148.342374	-82.625047	-1.761765	0.128301	-0.003946	0.991727	0.494085	-0.866799	-0.067370	0.859894	0.498642	-0.109262	0	0	0
13732	0	0	0	0	0	9.742656	-0.675870	-1.100363	0.002850	0.003121	-0.002755	-0.656250	0.519531	0.987793	0.195086	-0.725317	-0.168943	-0.638213	-148.345952	-82.625970	-1.758204	0.128286	-0.003938	0.991729	0.494087	-0.866800	-0.067355	0.859896	0.498641	-0.109252	0	0	0
13733	0	0	0	0	0	9.704912	-0.630976	-1.111664	0.000116	0.006829	0.000675	-0.653809	0.520264	0.982910	0.195084	-0.725306	-0.168922	-0.638231	-148.330128	-82.627711	-1.776005	0.128254	-0.003977	0.991733	0.494057	-0.866816	-0.067369	0.859918	0.498613	-0.109208	0	0	0
13734	0	0	0	0	0	9.701733	-0.629538	-1.145605	0.000977	0.001362	0.001412	-0.655762	0.521729	0.980225	0.195084	-0.725313	-0.168907	-0.638227	-148.323162	-82.626522	-1.784157	0.128274	-0.003996	0.991731	0.494037	-0.866825	-0.067393	0.859926	0.498596	-0.109217	0	0	0
13735	0	0	0	0	0	9.763594	-0.631702	-1.099189	0.001490	0.003353	-0.002083	-0.651123	0.517090	0.988281	0.195081	-0.725309	-0.168908	-0.638233	-148.324390	-82.627425	-1.783156	0.128259	-0.003993	0.991733	0.494034	-0.866827	-0.067383	0.859930	0.498592	-0.109206	0	0	0
13736	0	0	0	0	0	9.708549	-0.659559	-1.129651	-0.001230	0.003817	-0.000738	-0.647217	0.511963	0.992432	0.195069	-0.725308	-0.168891	-0.638242	-148.321083	-82.628080	-1.788894	0.128247	-0.004005	0.991734	0.493998	-0.866848	-0.067383	0.859953	0.498556	-0.109192	0	0	0
13737	0	0	0	0	0	9.729261	-0.696388	-1.132754	0.002692	0.006023	0.002826	-0.653809	0.519287	0.985596	0.195072	-0.725304	-0.168861	-0.638253	-148.299116	-82.628442	-1.813156	0.128239	-0.004060	0.991735	0.493961	-0.866866	-0.067421	0.859975	0.498525	-0.109161	0	0	0
13738	0	0	0	0	0	9.725790	-0.667916	-1.113235	0.001107	0.004948	0.000002	-0.650879	0.517822	0.991455	0.195072	-0.725298	-0.168848	-0.638263	-148.289048	-82.629425	-1.824360	0.128221	-0.004084	0.991737	0.493944	-0.866875	-0.067432	0.859988	0.498509	-0.109135	0	0	0
13739	0	0	0	0	0	9.739781	-0.674402	-1.131686	0.000499	0.005234	-0.001410	-0.656494	0.516602	0.980713	0.195060	-0.725293	-0.168833	-0.638277	-148.285133	-82.630804	-1.830525	0.128197	-0.004097	0.991740	0.493911	-0.866894	-0.067427	0.860010	0.498475	-0.109110	0	0	0
13740	0	0	0	0	0	9.725901	-0.668066	-1.112174	0.000580	0.006200	0.005582	-0.655518	0.517090	0.979004	0.195076	-0.725288	-0.168797	-0.638286	-148.251417	-82.630715	-1.865880	0.128196	-0.004176	0.991740	0.493882	-0.866906	-0.067492	0.860027	0.498455	-0.109071	0	0	0
13741	0	0	0	0	0	9.715551	-0.690359	-1.111586	0.005556	0.005900	-0.002013	-0.652344	0.520508	0.984131	0.195085	-0.725272	-0.168805	-0.638300	-148.244578	-82.632979	-1.871355	0.128156	-0.004187	0.991745	0.493904	-0.866893	-0.067484	0.860020	0.498476	-0.109030	0	0	0
13742	0	0	0	0	0	9.698492	-0.682187	-1.126355	0.002836	0.006364	-0.000669	-0.657715	0.517822	0.993896	0.195090	-0.725259	-0.168798	-0.638315	-148.232730	-82.634853	-1.883356	0.128123	-0.004213	0.991749	0.493903	-0.866894	-0.067489	0.860026	0.498475	-0.108988	0	0	0
13743	0	0	0	0	0	9.715701	-0.690213	-1.110362	0.008883	0.005148	-0.001945	-0.649902	0.525391	0.984131	0.195107	-0.725245	-0.168813	-0.638322	-148.226102	-82.636437	-1.887359	0.128095	-0.004221	0.991753	0.493944	-0.866871	-0.067488	0.860006	0.498515	-0.108957	0	0	0
13744	0	0	0	0	0	9.750047	-0.706247	-1.078988	0.006916	0.005667	-0.002685	-0.652100	0.515869	0.994141	0.195120	-0.725229	-0.168827	-0.638332	-148.221133	-82.638580	-1.890066	0.128058	-0.004226	0.991758	0.493980	-0.866851	-0.067478	0.859991	0.498549	-0.108920	0	0	0
13745	0	0	0	0	0	9.705106	-0.684945	-1.055987	0.007154	0.003731	-0.001274	-0.658203	0.525879	0.976807	0.195134	-0.725222	-0.168837	-0.638333	-148.216140	-82.639062	-1.893098	0.128050	-0.004232	0.991759	0.494010	-0.866834	-0.067483	0.859976	0.498579	-0.108907	0	0	0
13746	0	0	0	0	0	9.743435	-0.675768	-1.093507	0.005570	0.002655	-0.004098	-0.645264	0.522461	0.992432	0.195135	-0.725216	-0.168855	-0.638336	-148.224304	-82.640164	-1.883341	0.128031	-0.004210	0.991761	0.494036	-0.866821	-0.067457	0.859963	0.498602	-0.108900	0	0	0
13747	0	0	0	0	0	9.715942	-0.689579	-1.108650	0.006785	0.002082	-0.001274	-0.653564	0.525146	0.984619	0.195154	-0.725212	-0.168873	-0.638329	-148.222270	-82.639930	-1.882216	0.128035	-0.004208	0.991761	0.494083	-0.866793	-0.067463	0.859935	0.498650	-0.108901	0	0	0
13748	0	0	0	0	0	9.726404	-0.667255	-1.108263	0.003972	0.004823	-0.004837	-0.645264	0.523926	0.988037	0.195149	-0.725199	-0.168887	-0.638341	-148.229078	-82.642311	-1.874749	0.127995	-0.004190	0.991766	0.494097	-0.866788	-0.067428	0.859934	0.498659	-0.108874	0	0	0
13749	0	0	0	0	0	9.712909	-0.687243	-1.142084	0.012500	0.005077	-0.008867	-0.653564	0.518555	0.983154	0.195167	-0.725175	-0.168947	-0.638348	-148.245632	-82.645680	-1.851733	0.127938	-0.004136	0.991774	0.494200	-0.866734	-0.067366	0.859882	0.498754	-0.108844	0	0	0
13750	0	0	0	0	0	9.709507	-0.657985	-1.122315	0.012854	0.009970	-0.006782	-0.654541	0.523193	0.985840	0.195191	-0.725136	-0.168991	-0.638373	-148.242677	-82.651154	-1.848979	0.127844	-0.004127	0.991786	0.494293	-0.866685	-0.067322	0.859843	0.498839	-0.108760	0	0	0
13751	0	0	0	0	0	9.729931	-0.667169	-1.071915	0.008898	0.001903	-0.004028	-0.649170	0.517578	0.983643	0.195204	-0.725129	-0.169021	-0.638369	-148.250825	-82.651807	-1.837194	0.127833	-0.004100	0.991787	0.494350	-0.866654	-0.067301	0.859812	0.498893	-0.108760	0	0	0
13752	0	0	0	0	0	9.726805	-0.665290	-1.105923	0.008659	0.003838	-0.005440	-0.651611	0.519287	0.987549	0.195213	-0.725114	-0.169053	-0.638374	-148.259549	-82.653889	-1.825088	0.127798	-0.004072	0.991792	0.494404	-0.866626	-0.067265	0.859786	0.498942	-0.108740	0	0	0
13753	0	0	0	0	0	9.744012	-0.673070	-1.090025	0.010242	0.004914	-0.002616	-0.649658	0.518799	0.988770	0.195234	-0.725100	-0.169076	-0.638379	-148.255198	-82.655424	-1.825833	0.127771	-0.004073	0.991795	0.494460	-0.866594	-0.067259	0.859758	0.498997	-0.108712	0	0	0
13754	0	0	0	0	0	9.702727	-0.599375	-1.082424	0.012355	0.004735	-0.005370	-0.650879	0.520996	0.981445	0.195257	-0.725079	-0.169118	-0.638384	-148.259450	-82.657921	-1.816101	0.127729	-0.004050	0.991801	0.494546	-0.866547	-0.067229	0.859715	0.499079	-0.108680	0	0	0
13755	0	0	0	0	0	9.747844	-0.620153	-1.104284	0.004340	0.006469	-0.004838	-0.645508	0.517090	0.984131	0.195253	-0.725062	-0.169131	-0.638401	-148.262975	-82.660868	-1.811946	0.127678	-0.004039	0.991807	0.494560	-0.866542	-0.067195	0.859714	0.499087	-0.108641	0	0	0
13756	0	0	0	0	0	9.706436	-0.627436	-1.100302	0.004065	0.002547	0.000070	-0.654785	0.521973	0.981934	0.195262	-0.725061	-0.169129	-0.638400	-148.256524	-82.660659	-1.817796	0.127681	-0.004052	0.991807	0.494568	-0.866537	-0.067209	0.859709	0.499097	-0.108636	0	0	0
13757	0	0	0	0	0	9.713209	-0.657492	-1.084625	0.007538	0.002134	-0.003356	-0.651611	0.522461	0.976074	0.195271	-0.725056	-0.169151	-0.638397	-148.262620	-82.661090	-1.809033	0.127675	-0.004032	0.991808	0.494609	-0.866514	-0.067194	0.859686	0.499137	-0.108637	0	0	0
13758	0	0	0	0	0	9.733970	-0.693871	-1.087683	0.004340	0.006469	-0.004838	-0.649414	0.519531	0.984619	0.195268	-0.725038	-0.169165	-0.638415	-148.265401	-82.664271	-1.805415	0.127620	-0.004023	0.991815	0.494626	-0.866507	-0.067159	0.859685	0.499149	-0.108594	0	0	0
13759	0	0	0	0	0	9.716936	-0.685363	-1.102529	0.005331	0.004587	-0.005509	-0.656494	0.514893	0.979980	0.195269	-0.725024	-0.169189	-0.638424	-148.274649	-82.666599	-1.794100	0.127580	-0.003996	0.991820	0.494661	-0.866490	-0.067121	0.859671	0.499178	-0.108570	0	0	0
13760	0	0	0	0	0	9.710305	-0.654718	-1.117311	0.007428	0.007652	-0.006180	-0.656738	0.520020	0.982422	0.195274	-0.724998	-0.169216	-0.638445	-148.277983	-82.670762	-1.788141	0.127509	-0.003981	0.991829	0.494706	-0.866468	-0.067077	0.859655	0.499217	-0.108513	0	0	0
13761	0	0	0	0	0	9.713574	-0.655830	-1.082357	0.007906	0.003783	-0.003355	-0.650879	0.525146	0.981689	0.195284	-0.724986	-0.169237	-0.638450	-148.280047	-82.672330	-1.783535	0.127482	-0.003970	0.991833	0.494747	-0.866446	-0.067058	0.859636	0.499255	-0.108492	0	0	0
13762	0	0	0	0	0	9.713641	-0.655568	-1.081913	0.004578	0.004533	-0.003425	-0.648438	0.521484	0.973877	0.195285	-0.724975	-0.169248	-0.638459	-148.281884	-82.674143	-1.780731	0.127451	-0.003962	0.991837	0.494764	-0.866438	-0.067038	0.859631	0.499269	-0.108468	0	0	0
13763	0	0	0	0	0	9.717355	-0.603023	-1.096927	0.000882	0.003635	-0.003496	-0.648926	0.518799	0.989258	0.195280	-0.724969	-0.169256	-0.638465	-148.287704	-82.675369	-1.774643	0.127430	-0.003948	0.991840	0.494770	-0.866436	-0.067016	0.859630	0.499272	-0.108456	0	0	0
13764	0	0	0	0	0	9.734451	-0.691830	-1.084679	0.004064	0.002547	0.000070	-0.657715	0.519775	0.979736	0.195289	-0.724968	-0.169255	-0.638464	-148.281238	-82.675161	-1.780507	0.127433	-0.003961	0.991839	0.494778	-0.866430	-0.067030	0.859625	0.499282	-0.108452	0	0	0
13765	0	0	0	0	0	9.713787	-0.655075	-1.080902	0.004817	0.002599	-0.002013	-0.651123	0.525146	0.983398	0.195291	-0.724966	-0.169261	-0.638465	-148.282914	-82.675497	-1.778086	0.127427	-0.003956	0.991840	0.494790	-0.866424	-0.067024	0.859619	0.499293	-0.108449	0	0	0
13766	0	0	0	0	0	9.734627	-0.610554	-1.080504	0.002004	0.005336	-0.005579	-0.658203	0.523438	0.991211	0.195276	-0.724953	-0.169271	-0.638481	-148.292515	-82.678350	-1.768941	0.127379	-0.003934	0.991846	0.494787	-0.866429	-0.066980	0.859628	0.499285	-0.108418	0	0	0
13767	0	0	0	0	0	9.745485	-0.615259	-1.133397	-0.002206	0.002452	-0.002154	-0.648682	0.522461	0.977295	0.195258	-0.724956	-0.169260	-0.638485	-148.298531	-82.678586	-1.765432	0.127375	-0.003926	0.991847	0.494751	-0.866451	-0.066966	0.859650	0.499247	-0.108422	0	0	0
13768	0	0	0	0	0	9.703574	-0.676251	-1.079915	0.001121	0.001701	-0.002083	-0.657471	0.523926	0.986572	0.195248	-0.724959	-0.169258	-0.638486	-148.303899	-82.678614	-1.761064	0.127375	-0.003916	0.991847	0.494736	-0.866460	-0.066956	0.859658	0.499231	-0.108428	0	0	0
13769	0	0	0	0	0	9.727956	-0.660482	-1.098650	-0.000846	0.002219	-0.002825	-0.651855	0.517578	0.982910	0.195234	-0.724961	-0.169256	-0.638489	-148.311887	-82.678998	-1.754358	0.127368	-0.003901	0.991848	0.494718	-0.866472	-0.066937	0.859669	0.499211	-0.108431	0	0	0
13770	0	0	0	0	0	9.731578	-0.688833	-1.117366	0.000514	0.001986	-0.003495	-0.655518	0.523682	0.984131	0.195218	-0.724962	-0.169257	-0.638492	-148.322295	-82.679591	-1.745260	0.127359	-0.003881	0.991849	0.494700	-0.866484	-0.066912	0.859681	0.499190	-0.108435	0	0	0
13771	0	0	0	0	0	9.703726	-0.675279	-1.079157	0.002003	0.005336	-0.005579	-0.651367	0.523193	0.988525	0.195204	-0.724949	-0.169267	-0.638508	-148.332378	-82.682346	-1.735550	0.127312	-0.003858	0.991855	0.494699	-0.866488	-0.066868	0.859689	0.499183	-0.108406	0	0	0
13772	0	0	0	0	0	9.728160	-0.659272	-1.097569	0.003971	0.004818	-0.004837	-0.651611	0.525146	0.976318	0.195198	-0.724937	-0.169281	-0.638520	-148.339274	-82.684722	-1.727996	0.127271	-0.003840	0.991861	0.494713	-0.866483	-0.066834	0.859687	0.499192	-0.108379	0	0	0
13773	0	0	0	0	0	9.714240	-0.652470	-1.078408	0.001360	-0.000233	-0.000671	-0.652832	0.524170	0.982422	0.195198	-0.724946	-0.169282	-0.638509	-148.343485	-82.683164	-1.723638	0.127298	-0.003831	0.991857	0.494713	-0.866482	-0.066840	0.859682	0.499194	-0.108407	0	0	0
13774	0	0	0	0	0	9.700738	-0.672996	-1.112456	0.005553	0.005897	-0.002012	-0.651611	0.514160	0.983643	0.195209	-0.724931	-0.169290	-0.638521	-148.336221	-82.685217	-1.729446	0.127263	-0.003843	0.991862	0.494737	-0.866469	-0.066835	0.859674	0.499216	-0.108368	0	0	0
13775	0	0	0	0	0	9.686837	-0.666124	-1.093154	0.004595	0.001288	-0.005507	-0.651611	0.526611	0.989258	0.195199	-0.724930	-0.169311	-0.638520	-148.354278	-82.685937	-1.710469	0.127251	-0.003800	0.991863	0.494754	-0.866462	-0.066794	0.859666	0.499228	-0.108378	0	0	0
13776	0	0	0	0	0	9.752262	-0.615567	-1.062177	0.005809	0.000718	-0.002682	-0.661865	0.520508	0.982422	0.195203	-0.724930	-0.169327	-0.638514	-148.361545	-82.685665	-1.701479	0.127257	-0.003780	0.991863	0.494780	-0.866448	-0.066783	0.859650	0.499253	-0.108391	0	0	0
13777	0	0	0	0	0	9.694126	-0.641970	-1.127253	0.003842	0.001235	-0.003424	-0.646240	0.518066	0.986572	0.195201	-0.724930	-0.169341	-0.638511	-148.371707	-82.685805	-1.690263	0.127255	-0.003755	0.991863	0.494798	-0.866440	-0.066762	0.859640	0.499267	-0.108401	0	0	0
13778	0	0	0	0	0	9.714442	-0.651335	-1.077268	0.005424	0.002314	-0.000600	-0.654785	0.516846	0.982422	0.195213	-0.724928	-0.169347	-0.638509	-148.367540	-82.685686	-1.693023	0.127257	-0.003761	0.991863	0.494818	-0.866427	-0.066771	0.859628	0.499289	-0.108398	0	0	0
13779	0	0	0	0	0	9.724843	-0.629308	-1.077028	0.006031	0.002029	0.000813	-0.647949	0.526611	0.982666	0.195226	-0.724930	-0.169345	-0.638503	-148.359513	-82.684782	-1.700063	0.127272	-0.003777	0.991861	0.494831	-0.866418	-0.066795	0.859618	0.499305	-0.108402	0	0	0
13780	0	0	0	0	0	9.711318	-0.650180	-1.111139	0.005277	0.001977	0.002896	-0.651855	0.519287	0.977295	0.195247	-0.724931	-0.169338	-0.638496	-148.342943	-82.683448	-1.715413	0.127294	-0.003812	0.991858	0.494846	-0.866406	-0.066838	0.859607	0.499325	-0.108402	0	0	0
13781	0	0	0	0	0	9.738858	-0.636120	-1.095373	0.005938	0.004299	-0.004095	-0.654053	0.513184	0.987061	0.195257	-0.724919	-0.169362	-0.638501	-148.346956	-82.685130	-1.708636	0.127265	-0.003796	0.991861	0.494890	-0.866383	-0.066815	0.859585	0.499366	-0.108382	0	0	0
13782	0	0	0	0	0	9.735298	-0.607402	-1.076224	0.007630	-0.000137	0.001555	-0.659424	0.521973	0.979980	0.195281	-0.724924	-0.169369	-0.638486	-148.339082	-82.683167	-1.713859	0.127299	-0.003809	0.991857	0.494927	-0.866359	-0.066848	0.859559	0.499407	-0.108402	0	0	0
13783	0	0	0	0	0	9.735254	-0.688492	-1.079577	0.000975	0.001364	0.001412	-0.647705	0.517822	0.986572	0.195277	-0.724932	-0.169350	-0.638484	-148.333017	-82.682045	-1.721789	0.127318	-0.003827	0.991855	0.494897	-0.866375	-0.066870	0.859574	0.499380	-0.108411	0	0	0
13784	0	0	0	0	0	9.714977	-0.679168	-1.129251	0.004302	0.000613	0.001484	-0.647949	0.526367	0.985352	0.195289	-0.724938	-0.169346	-0.638474	-148.325570	-82.680469	-1.728504	0.127345	-0.003843	0.991851	0.494905	-0.866368	-0.066898	0.859565	0.499392	-0.108426	0	0	0
13785	0	0	0	0	0	9.721286	-0.682328	-1.060397	0.006638	0.001744	0.002225	-0.647705	0.524658	0.982422	0.195314	-0.724941	-0.169347	-0.638463	-148.311999	-82.678800	-1.739942	0.127373	-0.003869	0.991847	0.494934	-0.866348	-0.066939	0.859544	0.499425	-0.108434	0	0	0
13786	0	0	0	0	0	9.700995	-0.673123	-1.110135	0.005902	-0.001553	0.002226	-0.654297	0.518066	0.985840	0.195333	-0.724952	-0.169347	-0.638444	-148.305900	-82.675944	-1.744374	0.127422	-0.003881	0.991841	0.494955	-0.866333	-0.066977	0.859525	0.499451	-0.108469	0	0	0
13787	0	0	0	0	0	9.745585	-0.667514	-1.079327	0.007483	-0.000474	0.005051	-0.653076	0.527344	0.988525	0.195368	-0.724963	-0.169342	-0.638423	-148.286208	-82.672533	-1.761495	0.127480	-0.003920	0.991833	0.494988	-0.866309	-0.067045	0.859497	0.499492	-0.108496	0	0	0
13788	0	0	0	0	0	9.711307	-0.651954	-1.110191	0.006876	-0.000189	0.003639	-0.648193	0.518799	0.987549	0.195395	-0.724971	-0.169339	-0.638406	-148.271022	-82.669916	-1.774526	0.127524	-0.003951	0.991828	0.495016	-0.866290	-0.067097	0.859475	0.499527	-0.108517	0	0	0
13789	0	0	0	0	0	9.728407	-0.660268	-1.094782	0.005295	-0.001269	0.000814	-0.651123	0.519287	0.981689	0.195408	-0.724983	-0.169343	-0.638387	-148.270669	-82.667281	-1.773508	0.127570	-0.003950	0.991822	0.495033	-0.866278	-0.067122	0.859458	0.499547	-0.108556	0	0	0
13790	0	0	0	0	0	9.718044	-0.682459	-1.094537	0.009487	0.004858	-0.000529	-0.655029	0.522217	0.986572	0.195436	-0.724969	-0.169359	-0.638391	-148.257958	-82.668379	-1.782535	0.127550	-0.003970	0.991824	0.495089	-0.866245	-0.067136	0.859429	0.499604	-0.108524	0	0	0
13791	0	0	0	0	0	9.714486	-0.654046	-1.075230	0.010940	0.002356	0.003709	-0.652100	0.521729	0.988525	0.195480	-0.724966	-0.169366	-0.638379	-148.234859	-82.666859	-1.801304	0.127575	-0.004012	0.991821	0.495150	-0.866205	-0.067194	0.859390	0.499672	-0.108520	0	0	0
13792	0	0	0	0	0	9.721728	-0.630893	-1.109270	0.007005	0.003392	0.002225	-0.649414	0.519775	0.982666	0.195507	-0.724961	-0.169365	-0.638376	-148.216582	-82.666412	-1.817377	0.127582	-0.004048	0.991820	0.495180	-0.866185	-0.067232	0.859372	0.499707	-0.108505	0	0	0
13793	0	0	0	0	0	9.728492	-0.661383	-1.093356	0.007980	0.004755	0.003636	-0.654785	0.517334	0.983643	0.195541	-0.724954	-0.169359	-0.638376	-148.190084	-82.665952	-1.841480	0.127588	-0.004102	0.991819	0.495213	-0.866162	-0.067287	0.859352	0.499746	-0.108481	0	0	0
13794	0	0	0	0	0	9.735766	-0.638173	-1.127190	0.005406	0.005558	0.001481	-0.654541	0.521240	0.980957	0.195562	-0.724943	-0.169354	-0.638383	-148.170454	-82.666782	-1.859841	0.127572	-0.004142	0.991821	0.495231	-0.866150	-0.067316	0.859344	0.499768	-0.108445	0	0	0
13795	0	0	0	0	0	9.735296	-0.692120	-1.076876	0.008972	0.002873	0.002968	-0.656494	0.530762	0.981934	0.195595	-0.724939	-0.169356	-0.638377	-148.150175	-82.665862	-1.877106	0.127587	-0.004181	0.991819	0.495273	-0.866122	-0.067363	0.859318	0.499815	-0.108435	0	0	0
13796	0	0	0	0	0	9.731700	-0.663890	-1.057802	0.004155	0.000277	0.004980	-0.652588	0.519531	0.987793	0.195618	-0.724949	-0.169339	-0.638363	-148.130443	-82.663062	-1.896293	0.127634	-0.004226	0.991812	0.495275	-0.866116	-0.067426	0.859309	0.499826	-0.108453	0	0	0
13797	0	0	0	0	0	9.714597	-0.656105	-1.072970	0.012208	0.004389	-0.001869	-0.653564	0.529541	0.989990	0.195655	-0.724932	-0.169373	-0.638362	-148.122365	-82.664204	-1.898420	0.127614	-0.004230	0.991815	0.495366	-0.866064	-0.067431	0.859260	0.499916	-0.108427	0	0	0
13798	0	0	0	0	0	9.745738	-0.670724	-1.075951	0.004432	0.004193	0.000069	-0.654785	0.520996	0.989746	0.195667	-0.724925	-0.169371	-0.638366	-148.111835	-82.664795	-1.908169	0.127603	-0.004251	0.991816	0.495377	-0.866056	-0.067445	0.859255	0.499929	-0.108406	0	0	0
13799	0	0	0	0	0	9.711520	-0.654876	-1.106602	0.004909	0.000328	0.002897	-0.657227	0.522705	0.985840	0.195686	-0.724934	-0.169365	-0.638352	-148.100016	-82.662394	-1.918864	0.127644	-0.004276	0.991811	0.495390	-0.866045	-0.067490	0.859242	0.499947	-0.108427	0	0	0
13800	0	0	0	0	0	9.739006	-0.641163	-1.091114	0.003548	0.000562	0.003567	-0.651855	0.523926	0.980469	0.195702	-0.724942	-0.169351	-0.638341	-148.085323	-82.660159	-1.933320	0.127682	-0.004310	0.991806	0.495389	-0.866042	-0.067538	0.859237	0.499953	-0.108442	0	0	0
13801	0	0	0	0	0	9.728615	-0.663475	-1.090984	0.003695	0.000896	0.000072	-0.652832	0.518555	0.982178	0.195710	-0.724947	-0.169352	-0.638334	-148.083177	-82.659079	-1.934654	0.127700	-0.004314	0.991803	0.495400	-0.866035	-0.067552	0.859228	0.499965	-0.108456	0	0	0
13802	0	0	0	0	0	9.725482	-0.662250	-1.125137	0.000589	0.002962	0.003493	-0.653076	0.516602	0.984375	0.195717	-0.724950	-0.169327	-0.638334	-148.064827	-82.658033	-1.954508	0.127717	-0.004358	0.991801	0.495373	-0.866046	-0.067596	0.859240	0.499945	-0.108450	0	0	0
13803	0	0	0	0	0	9.752990	-0.648546	-1.109453	0.003916	0.002210	0.003566	-0.651367	0.521484	0.986572	0.195730	-0.724955	-0.169308	-0.638329	-148.047288	-82.656538	-1.972525	0.127741	-0.004399	0.991798	0.495362	-0.866049	-0.067643	0.859243	0.499940	-0.108451	0	0	0
13804	0	0	0	0	0	9.687134	-0.671971	-1.086934	-0.000901	-0.000385	0.005578	-0.647705	0.523193	0.985352	0.195736	-0.724973	-0.169274	-0.638317	-148.029818	-82.653231	-1.992353	0.127797	-0.004446	0.991790	0.495321	-0.866068	-0.067707	0.859259	0.499907	-0.108479	0	0	0
13805	0	0	0	0	0	9.752949	-0.649593	-1.109204	0.006858	0.003055	0.005721	-0.651123	0.521973	0.991943	0.195773	-0.724974	-0.169259	-0.638308	-148.000081	-82.651230	-2.020194	0.127829	-0.004509	0.991786	0.495343	-0.866049	-0.067781	0.859241	0.499939	-0.108473	0	0	0
13806	0	0	0	0	0	9.704215	-0.681103	-1.071064	0.007243	0.001457	0.003640	-0.645508	0.520020	0.989014	0.195803	-0.724977	-0.169256	-0.638297	-147.980944	-82.649404	-2.036998	0.127860	-0.004548	0.991782	0.495374	-0.866027	-0.067834	0.859218	0.499976	-0.108477	0	0	0
13807	0	0	0	0	0	9.725427	-0.664829	-1.124094	0.006104	0.003004	0.007804	-0.657227	0.517090	0.985107	0.195838	-0.724983	-0.169227	-0.638287	-147.944684	-82.646617	-2.072694	0.127905	-0.004629	0.991776	0.495375	-0.866019	-0.067928	0.859211	0.499989	-0.108475	0	0	0
13808	0	0	0	0	0	9.718166	-0.688992	-1.089350	0.006251	0.003339	0.004308	-0.653564	0.522949	0.985352	0.195869	-0.724980	-0.169216	-0.638283	-147.919189	-82.645499	-2.096481	0.127922	-0.004683	0.991773	0.495397	-0.866002	-0.067987	0.859196	0.500018	-0.108461	0	0	0
13809	0	0	0	0	0	9.749255	-0.704012	-1.092497	0.006637	0.001741	0.002227	-0.652100	0.519531	0.985107	0.195889	-0.724982	-0.169213	-0.638275	-147.906059	-82.644228	-2.108225	0.127943	-0.004710	0.991770	0.495415	-0.865989	-0.068024	0.859183	0.500041	-0.108464	0	0	0
13810	0	0	0	0	0	9.711466	-0.659510	-1.104326	0.004670	0.002259	0.001484	-0.652832	0.522217	0.989502	0.195904	-0.724983	-0.169208	-0.638272	-147.894648	-82.643444	-2.118725	0.127956	-0.004734	0.991769	0.495426	-0.865980	-0.068052	0.859174	0.500056	-0.108462	0	0	0
13811	0	0	0	0	0	9.707888	-0.631196	-1.085234	0.003162	0.002159	0.005649	-0.646240	0.525146	0.981445	0.195922	-0.724991	-0.169180	-0.638264	-147.869833	-82.641151	-2.144324	0.127994	-0.004792	0.991763	0.495408	-0.865985	-0.068120	0.859179	0.500047	-0.108466	0	0	0
13812	0	0	0	0	0	9.721856	-0.638321	-1.103887	0.002556	0.002443	0.004236	-0.653320	0.521973	0.979004	0.195939	-0.724995	-0.169159	-0.638260	-147.848871	-82.639617	-2.165677	0.128018	-0.004841	0.991760	0.495398	-0.865987	-0.068174	0.859181	0.500044	-0.108464	0	0	0
13813	0	0	0	0	0	9.725436	-0.667468	-1.122452	-0.002132	0.003431	0.004832	-0.653809	0.526367	0.985352	0.195945	-0.725001	-0.169124	-0.638261	-147.826076	-82.638195	-2.190840	0.128041	-0.004898	0.991757	0.495358	-0.866005	-0.068230	0.859201	0.500011	-0.108458	0	0	0
13814	0	0	0	0	0	9.721834	-0.639252	-1.103543	-0.001271	-0.002032	0.005580	-0.644287	0.525635	0.983887	0.195948	-0.725024	-0.169090	-0.638242	-147.812851	-82.634078	-2.206602	0.128111	-0.004936	0.991748	0.495313	-0.866026	-0.068293	0.859216	0.499975	-0.108502	0	0	0
13815	0	0	0	0	0	9.745627	-0.677804	-1.072511	-0.002738	0.003715	0.003419	-0.648438	0.529297	0.980469	0.195948	-0.725029	-0.169058	-0.638245	-147.795144	-82.633068	-2.226986	0.128126	-0.004983	0.991745	0.495269	-0.866048	-0.068336	0.859239	0.499937	-0.108496	0	0	0
13816	0	0	0	0	0	9.697325	-0.736440	-1.087540	0.001195	0.002677	0.004906	-0.656494	0.515381	0.988525	0.195962	-0.725035	-0.169029	-0.638242	-147.771936	-82.631439	-2.251389	0.128152	-0.005038	0.991742	0.495247	-0.866056	-0.068395	0.859248	0.499922	-0.108492	0	0	0
13817	0	0	0	0	0	9.711294	-0.743520	-1.106172	0.002556	0.002443	0.004236	-0.658203	0.525635	0.982666	0.195978	-0.725040	-0.169008	-0.638237	-147.751648	-82.629765	-2.272132	0.128180	-0.005086	0.991738	0.495235	-0.866058	-0.068449	0.859251	0.499918	-0.108492	0	0	0
13818	0	0	0	0	0	9.718120	-0.693044	-1.087190	0.004302	0.000610	0.001486	-0.653809	0.520752	0.985107	0.195990	-0.725046	-0.169004	-0.638228	-147.744376	-82.628178	-2.278671	0.128206	-0.005102	0.991734	0.495244	-0.866051	-0.068478	0.859242	0.499930	-0.108507	0	0	0
13819	0	0	0	0	0	9.690607	-0.707346	-1.102507	0.001581	0.001079	0.002825	-0.648193	0.525391	0.979980	0.195998	-0.725054	-0.168987	-0.638221	-147.732871	-82.626430	-2.290892	0.128236	-0.005130	0.991730	0.495229	-0.866056	-0.068516	0.859246	0.499920	-0.108519	0	0	0
13820	0	0	0	0	0	9.742505	-0.678039	-1.105765	0.006399	0.003671	0.000813	-0.659180	0.531006	0.986816	0.196018	-0.725047	-0.168990	-0.638221	-147.719684	-82.626531	-2.302184	0.128233	-0.005155	0.991731	0.495257	-0.866039	-0.068540	0.859231	0.499950	-0.108501	0	0	0
13821	0	0	0	0	0	9.690632	-0.707759	-1.102028	0.007629	-0.000144	0.001560	-0.650391	0.525146	0.991943	0.196050	-0.725051	-0.169004	-0.638203	-147.711538	-82.624421	-2.306349	0.128269	-0.005166	0.991726	0.495313	-0.866004	-0.068575	0.859193	0.500011	-0.108523	0	0	0
13822	0	0	0	0	0	9.690658	-0.707952	-1.101677	0.011824	0.005978	0.000215	-0.651611	0.520264	0.986816	0.196090	-0.725031	-0.169024	-0.638208	-147.692027	-82.625822	-2.320883	0.128243	-0.005198	0.991729	0.495388	-0.865959	-0.068599	0.859153	0.500088	-0.108479	0	0	0
13823	0	0	0	0	0	9.717629	-0.747724	-1.035760	0.010701	0.004280	0.002299	-0.647217	0.530029	0.979492	0.196128	-0.725023	-0.169030	-0.638204	-147.670552	-82.625454	-2.338673	0.128248	-0.005238	0.991728	0.495441	-0.865925	-0.068643	0.859122	0.500146	-0.108458	0	0	0
13824	0	0	0	0	0	9.649122	-0.796710	-1.100499	0.015168	0.001977	-0.001789	-0.651367	0.520264	0.982910	0.196170	-0.725011	-0.169071	-0.638194	-147.666089	-82.625531	-2.336102	0.128247	-0.005232	0.991728	0.495546	-0.865864	-0.068650	0.859061	0.500252	-0.108452	0	0	0
13825	0	0	0	0	0	9.724975	-0.724367	-1.069472	0.016528	0.001741	-0.002458	-0.651611	0.525635	0.987305	0.196220	-0.724998	-0.169125	-0.638179	-147.663873	-82.625464	-2.329645	0.128249	-0.005217	0.991728	0.495677	-0.865789	-0.068655	0.858986	0.500382	-0.108450	0	0	0
13826	0	0	0	0	0	9.765794	-0.851408	-1.025769	0.027614	0.004421	-0.002239	-0.654785	0.529785	0.986084	0.196308	-0.724966	-0.169205	-0.638167	-147.648171	-82.626862	-2.331216	0.128224	-0.005220	0.991731	0.495891	-0.865665	-0.068672	0.858866	0.500596	-0.108411	0	0	0
13827	0	0	0	0	0	9.708220	-0.554546	-1.077700	0.030589	-0.001230	-0.004239	-0.649414	0.533447	0.983154	0.196400	-0.724947	-0.169311	-0.638132	-147.651705	-82.625919	-2.311022	0.128243	-0.005175	0.991729	0.496142	-0.865522	-0.068674	0.858718	0.500845	-0.108429	0	0	0
13828	0	0	0	0	0	9.726396	-0.536365	-1.165045	0.004801	0.005836	0.000066	-0.650391	0.523926	0.986816	0.196414	-0.724935	-0.169309	-0.638142	-147.637098	-82.627295	-2.324670	0.128218	-0.005205	0.991732	0.496156	-0.865512	-0.068689	0.858714	0.500861	-0.108391	0	0	0
13829	0	0	0	0	0	9.697633	-0.738494	-1.083395	-0.001360	0.000235	0.000669	-0.652100	0.529541	0.982910	0.196409	-0.724947	-0.169295	-0.638133	-147.636977	-82.625439	-2.326293	0.128250	-0.005210	0.991728	0.496131	-0.865525	-0.068706	0.858724	0.500839	-0.108418	0	0	0
13830	0	0	0	0	0	9.674092	-0.889495	-1.173621	0.013332	0.006071	-0.003951	-0.649658	0.531250	0.979248	0.196441	-0.724922	-0.169335	-0.638141	-147.631943	-82.628160	-2.325359	0.128203	-0.005206	0.991734	0.496224	-0.865473	-0.068691	0.858677	0.500929	-0.108373	0	0	0
13831	0	0	0	0	0	9.753129	-0.818320	-1.107744	0.030465	0.007524	-0.004993	-0.642822	0.524658	0.986572	0.196545	-0.724873	-0.169441	-0.638137	-147.616749	-82.631673	-2.322987	0.128142	-0.005198	0.991742	0.496492	-0.865320	-0.068687	0.858531	0.501193	-0.108303	0	0	0
13832	0	0	0	0	0	9.753434	-0.737031	-1.103196	0.022107	0.016707	-0.008727	-0.645508	0.522461	0.976074	0.196603	-0.724802	-0.169515	-0.638181	-147.599296	-82.641005	-2.329504	0.127980	-0.005206	0.991763	0.496666	-0.865224	-0.068633	0.858455	0.501358	-0.108146	0	0	0
13833	0	0	0	0	0	9.701705	-0.846628	-1.101100	0.016226	0.015014	-0.013038	-0.651123	0.528809	0.986572	0.196625	-0.724740	-0.169588	-0.638224	-147.606054	-82.650395	-2.314914	0.127819	-0.005167	0.991784	0.496796	-0.865157	-0.068533	0.858403	0.501474	-0.108016	0	0	0
13834	0	0	0	0	0	9.694381	-0.679525	-1.005823	0.016999	0.011812	-0.017195	-0.652100	0.524414	0.989502	0.196633	-0.724682	-0.169681	-0.638263	-147.634971	-82.659958	-2.277628	0.127657	-0.005077	0.991805	0.496937	-0.865087	-0.068390	0.858346	0.501596	-0.107911	0	0	0
13835	0	0	0	0	0	9.723322	-0.556869	-1.088804	-0.014321	0.022082	-0.015144	-0.655762	0.527344	0.985840	0.196543	-0.724626	-0.169657	-0.638361	-147.650461	-82.673532	-2.272022	0.127423	-0.005055	0.991836	0.496806	-0.865175	-0.068235	0.858456	0.501445	-0.107731	0	0	0
13836	0	0	0	0	0	9.754656	-0.650589	-1.093499	-0.033402	0.017894	-0.016929	-0.652832	0.524170	0.988281	0.196374	-0.724598	-0.169582	-0.638465	-147.692940	-82.685953	-2.250181	0.127210	-0.004998	0.991863	0.496514	-0.865358	-0.068040	0.858657	0.501130	-0.107600	0	0	0
13837	0	0	0	0	0	9.752993	-0.702253	-1.232191	-0.030740	0.027161	-0.012033	-0.655273	0.526611	0.984131	0.196239	-0.724543	-0.169489	-0.638593	-147.693986	-82.701159	-2.268628	0.126945	-0.005029	0.991897	0.496238	-0.865528	-0.067898	0.858856	0.500836	-0.107379	0	0	0
13838	0	0	0	0	0	9.771111	-0.655156	-1.264135	-0.020630	0.028476	-0.013216	-0.651611	0.524658	0.977051	0.196137	-0.724472	-0.169432	-0.638720	-147.689886	-82.717567	-2.286369	0.126660	-0.005057	0.991933	0.496051	-0.865646	-0.067754	0.859006	0.500631	-0.107134	0	0	0
13839	0	0	0	0	0	9.747803	-0.615442	-1.292333	-0.014083	0.032476	-0.015892	-0.650391	0.521484	0.982422	0.196060	-0.724379	-0.169405	-0.638856	-147.682408	-82.736597	-2.302919	0.126329	-0.005080	0.991975	0.495935	-0.865725	-0.067592	0.859121	0.500494	-0.106847	0	0	0
13840	0	0	0	0	0	9.737348	-0.608729	-1.235880	-0.004513	0.035062	-0.011498	-0.651123	0.518311	0.979248	0.196028	-0.724273	-0.169387	-0.638992	-147.646528	-82.755665	-2.343386	0.125995	-0.005156	0.992017	0.495884	-0.865763	-0.067482	0.859200	0.500428	-0.106525	0	0	0
13841	0	0	0	0	0	9.768987	-0.622438	-1.235458	0.010847	0.041603	-0.007694	-0.650391	0.526367	0.983398	0.196066	-0.724136	-0.169394	-0.639133	-147.572246	-82.776500	-2.414131	0.125629	-0.005296	0.992063	0.495954	-0.865727	-0.067426	0.859213	0.500488	-0.106133	0	0	0
13842	0	0	0	0	0	9.814078	-0.615859	-1.200023	0.026596	0.046543	-0.005966	-0.648438	0.521729	0.987793	0.196174	-0.723966	-0.169443	-0.639279	-147.468887	-82.799403	-2.504646	0.125224	-0.005478	0.992113	0.496163	-0.865609	-0.067404	0.859151	0.500691	-0.105677	0	0	0
13843	0	0	0	0	0	9.779869	-0.572626	-1.173092	0.040093	0.048091	-0.000069	-0.655273	0.516113	0.980713	0.196352	-0.723787	-0.169512	-0.639409	-147.331735	-82.820711	-2.621466	0.124844	-0.005716	0.992160	0.496480	-0.865423	-0.067458	0.859024	0.501009	-0.105205	0	0	0
13844	0	0	0	0	0	9.777485	-0.571818	-1.202143	0.043892	0.055796	0.000676	-0.661865	0.529541	0.982910	0.196551	-0.723577	-0.169584	-0.639566	-147.168768	-82.845959	-2.762061	0.124393	-0.006001	0.992215	0.496829	-0.865218	-0.067520	0.858887	0.501360	-0.104645	0	0	0
13845	0	0	0	0	0	9.746277	-0.530707	-1.140124	0.048268	0.054139	0.007089	-0.653076	0.528076	0.976563	0.196784	-0.723374	-0.169647	-0.639708	-146.982474	-82.868318	-2.923875	0.123989	-0.006333	0.992263	0.497205	-0.864992	-0.067649	0.858728	0.501746	-0.104100	0	0	0
13846	0	0	0	0	0	9.763885	-0.459281	-1.115892	0.046355	0.055634	0.013334	-0.655518	0.526367	0.985596	0.197033	-0.723173	-0.169680	-0.639850	-146.767663	-82.889410	-3.115281	0.123602	-0.006727	0.992309	0.497560	-0.864773	-0.067838	0.858578	0.502118	-0.103541	0	0	0
13847	0	0	0	0	0	9.758654	-0.458476	-1.178392	0.033884	0.068742	0.013652	-0.655029	0.525146	0.982666	0.197253	-0.722943	-0.169663	-0.640046	-146.524716	-82.916250	-3.341683	0.123110	-0.007188	0.992367	0.497815	-0.864612	-0.068021	0.858501	0.502389	-0.102864	0	0	0
13848	0	0	0	0	0	9.770547	-0.546790	-1.227782	0.032595	0.066711	0.019236	-0.652344	0.528076	0.977051	0.197480	-0.722725	-0.169620	-0.640234	-146.264006	-82.940557	-3.587264	0.122658	-0.007690	0.992419	0.498044	-0.864461	-0.068254	0.858433	0.502641	-0.102203	0	0	0
13849	0	0	0	0	0	9.726051	-0.528028	-1.198871	0.033140	0.072905	0.024810	-0.650635	0.532227	0.977295	0.197734	-0.722492	-0.169554	-0.640435	-145.964537	-82.965501	-3.871352	0.122188	-0.008269	0.992473	0.498275	-0.864305	-0.068545	0.858366	0.502900	-0.101487	0	0	0
13850	0	0	0	0	0	9.775915	-0.419173	-1.226028	0.021767	0.078632	0.027288	-0.661865	0.529297	0.979736	0.197958	-0.722253	-0.169436	-0.640667	-145.644079	-82.992551	-4.183356	0.121673	-0.008900	0.992530	0.498402	-0.864208	-0.068848	0.858365	0.503056	-0.100716	0	0	0
13851	0	0	0	0	0	9.752092	-0.599584	-1.204983	0.018981	0.085576	0.032773	-0.655273	0.531738	0.974854	0.198202	-0.721999	-0.169288	-0.640917	-145.283458	-83.020512	-4.536431	0.121133	-0.009611	0.992590	0.498513	-0.864116	-0.069204	0.858377	0.503202	-0.099882	0	0	0
13852	0	0	0	0	0	9.782124	-0.562684	-1.093389	0.031653	0.086059	0.033811	-0.664551	0.525879	0.978760	0.198489	-0.721731	-0.169170	-0.641161	-144.907114	-83.048440	-4.898991	0.120588	-0.010336	0.992649	0.498717	-0.863967	-0.069581	0.858335	0.503442	-0.099029	0	0	0
13853	0	0	0	0	0	9.764307	-0.504155	-1.184712	0.028099	0.092952	0.041374	-0.661621	0.530518	0.981934	0.198795	-0.721452	-0.169009	-0.641423	-144.482593	-83.076580	-5.311763	0.120025	-0.011159	0.992708	0.498887	-0.863833	-0.070029	0.858316	0.503655	-0.098114	0	0	0
13854	0	0	0	0	0	9.767735	-0.591009	-1.144041	0.022700	0.091629	0.048945	-0.659668	0.524658	0.971191	0.199103	-0.721188	-0.168803	-0.641679	-144.031735	-83.101386	-5.754510	0.119508	-0.012043	0.992760	0.498997	-0.863728	-0.070547	0.858324	0.503815	-0.097212	0	0	0
13855	0	0	0	0	0	9.806308	-0.560149	-1.118720	0.029395	0.103376	0.053959	-0.647705	0.531494	0.973877	0.199458	-0.720885	-0.168586	-0.641965	-143.522844	-83.129264	-6.252125	0.118918	-0.013028	0.992819	0.499153	-0.863590	-0.071120	0.858315	0.504026	-0.096194	0	0	0
13856	0	0	0	0	0	9.829120	-0.549620	-1.161616	0.037060	0.100938	0.060505	-0.656006	0.532227	0.976807	0.199863	-0.720586	-0.168375	-0.642231	-142.986172	-83.153446	-6.772968	0.118379	-0.014059	0.992869	0.499373	-0.863410	-0.071766	0.858262	0.504308	-0.095189	0	0	0
13857	0	0	0	0	0	9.759133	-0.441767	-1.054974	0.041077	0.110897	0.071764	-0.660400	0.529785	0.984375	0.200329	-0.720264	-0.168128	-0.642512	-142.373258	-83.176914	-7.367792	0.117823	-0.015235	0.992918	0.499621	-0.863202	-0.072532	0.858194	0.504628	-0.094093	0	0	0
13858	0	0	0	0	0	9.778698	-0.323387	-1.075578	0.033667	0.113325	0.080649	-0.662109	0.536133	0.977539	0.200797	-0.719944	-0.167820	-0.642804	-141.718114	-83.198276	-8.009856	0.117278	-0.016503	0.992962	0.499788	-0.863034	-0.073373	0.858171	0.504876	-0.092967	0	0	0
13859	0	0	0	0	0	9.790111	-0.310371	-1.064481	0.032174	0.111939	0.096736	-0.660400	0.533447	0.972656	0.201305	-0.719648	-0.167448	-0.643073	-141.006161	-83.211859	-8.710507	0.116835	-0.017900	0.992990	0.499916	-0.862874	-0.074375	0.858157	0.505102	-0.091865	0	0	0
13860	0	0	0	0	0	9.846595	-0.131569	-1.016276	0.031243	0.114493	0.123317	-0.670898	0.534180	0.968018	0.201902	-0.719363	-0.166978	-0.643328	-140.183239	-83.216283	-9.522897	0.116494	-0.019542	0.992999	0.500014	-0.862708	-0.075637	0.858146	0.505325	-0.090729	0	0	0
13861	0	0	0	0	0	9.788566	-0.035545	-0.962522	0.015323	0.112222	0.145978	-0.658936	0.540283	0.967773	0.202512	-0.719120	-0.166379	-0.643564	-139.294063	-83.209769	-10.411057	0.116288	-0.021366	0.992986	0.499951	-0.862614	-0.077110	0.858211	0.505411	-0.089630	0	0	0
13862	0	0	0	0	0	9.796440	-0.000516	-0.933091	0.011094	0.110023	0.175313	-0.673340	0.549316	0.976563	0.203199	-0.718911	-0.165661	-0.643765	-138.309801	-83.189637	-11.397579	0.116245	-0.023434	0.992944	0.499816	-0.862533	-0.078870	0.858295	0.505458	-0.088553	0	0	0
13863	0	0	0	0	0	9.784017	0.068622	-0.901319	0.001403	0.105536	0.205204	-0.665283	0.535645	0.967529	0.203954	-0.718749	-0.164819	-0.643923	-137.247198	-83.153677	-12.466874	0.116396	-0.025734	0.992869	0.499589	-0.862474	-0.080922	0.858407	0.505446	-0.087532	0	0	0
13864	0	0	0	0	0	9.789778	0.044561	-0.822260	-0.019249	0.102971	0.240343	-0.664307	0.550781	0.974365	0.204735	-0.718646	-0.163777	-0.644056	-136.095756	-83.100709	-13.639447	0.116737	-0.028327	0.992759	0.499117	-0.862521	-0.083301	0.858635	0.505227	-0.086550	0	0	0
13865	0	0	0	0	0	9.847967	-0.008207	-0.885807	-0.010578	0.111409	0.270092	-0.663818	0.545654	0.959229	0.205654	-0.718530	-0.162652	-0.644178	-134.832371	-83.036005	-14.919149	0.117158	-0.031215	0.992623	0.498696	-0.862502	-0.085984	0.858823	0.505090	-0.085482	0	0	0
13866	0	0	0	0	0	9.812989	-0.072870	-0.856385	-0.006364	0.112426	0.297673	-0.675537	0.549561	0.957031	0.206673	-0.718427	-0.161434	-0.644273	-133.497478	-82.957159	-16.269439	0.117701	-0.034350	0.992455	0.498265	-0.862451	-0.088943	0.858999	0.504974	-0.084396	0	0	0
13867	0	0	0	0	0	9.823564	-0.107889	-0.932368	0.004235	0.119213	0.321259	-0.675049	0.547363	0.969482	0.207822	-0.718303	-0.160172	-0.644356	-132.090263	-82.867324	-17.684644	0.118300	-0.037719	0.992261	0.497927	-0.862310	-0.092143	0.859112	0.504974	-0.083229	0	0	0
13868	0	0	0	0	0	9.822272	-0.221675	-0.922948	0.015783	0.127265	0.346310	-0.671387	0.554932	0.963623	0.209088	-0.718164	-0.158835	-0.644433	-130.612222	-82.765187	-19.166952	0.118955	-0.041348	0.992038	0.497625	-0.862108	-0.095602	0.859197	0.505036	-0.081976	0	0	0
13869	0	0	0	0	0	9.866439	-0.388489	-0.987327	0.020706	0.119421	0.372678	-0.672607	0.551025	0.962646	0.210453	-0.718061	-0.157432	-0.644448	-129.126762	-82.644043	-20.653506	0.119805	-0.045159	0.991770	0.497343	-0.861850	-0.099322	0.859242	0.505149	-0.080794	0	0	0
13870	0	0	0	0	0	9.866658	-0.536610	-0.996310	0.031831	0.125675	0.397810	-0.668701	0.559082	0.960205	0.211939	-0.717945	-0.155962	-0.644447	-127.595318	-82.508670	-22.181193	0.120728	-0.049222	0.991465	0.497112	-0.861515	-0.103302	0.859247	0.505340	-0.079540	0	0	0
13871	0	0	0	0	0	9.912421	-0.491913	-0.948678	0.054236	0.129146	0.422723	-0.667969	0.555664	0.953369	0.213590	-0.717809	-0.154476	-0.644412	-126.031769	-82.358051	-23.728136	0.121740	-0.053512	0.991118	0.497049	-0.861032	-0.107541	0.859140	0.505727	-0.078225	0	0	0
13872	0	0	0	0	0	9.908672	-0.396731	-0.896209	0.053184	0.125969	0.448968	-0.672607	0.560791	0.947510	0.215316	-0.717702	-0.152890	-0.644335	-124.478686	-82.188342	-25.266387	0.122914	-0.058013	0.990720	0.496930	-0.860527	-0.112042	0.859041	0.506091	-0.076943	0	0	0
13873	0	0	0	0	0	9.933310	-0.291578	-0.827868	0.058671	0.125209	0.484639	-0.665283	0.568359	0.953125	0.217177	-0.717611	-0.151198	-0.644211	-122.911458	-81.996349	-26.815791	0.124263	-0.062813	0.990259	0.496819	-0.859946	-0.116890	0.858912	0.506505	-0.075653	0	0	0
13874	0	0	0	0	0	9.975356	-0.115968	-0.809936	0.059779	0.124769	0.525843	-0.675049	0.580322	0.952637	0.219171	-0.717550	-0.149357	-0.644033	-121.335024	-81.777920	-28.375252	0.125828	-0.067965	0.989721	0.496648	-0.859314	-0.122151	0.858783	0.506913	-0.074371	0	0	0
13875	0	0	0	0	0	9.854357	0.005673	-0.802193	0.042531	0.127054	0.567087	-0.672607	0.578369	0.943848	0.221244	-0.717522	-0.147318	-0.643825	-119.762599	-81.534176	-29.939934	0.127573	-0.073476	0.989104	0.496293	-0.858697	-0.127800	0.858731	0.507189	-0.073081	0	0	0
13876	0	0	0	0	0	10.020285	0.078104	-0.586357	0.056268	0.125399	0.618163	-0.663330	0.586670	0.940430	0.223519	-0.717519	-0.145131	-0.643540	-118.187546	-81.257887	-31.501996	0.129588	-0.079418	0.988382	0.495955	-0.857953	-0.133963	0.858625	0.507553	-0.071793	0	0	0
13877	0	0	0	0	0	10.181470	0.258871	-0.521758	0.054313	0.126826	0.675059	-0.671631	0.591309	0.936523	0.225973	-0.717544	-0.142738	-0.643189	-116.613404	-80.947027	-33.064396	0.131866	-0.085846	0.987543	0.495529	-0.857124	-0.140677	0.858523	0.507907	-0.070487	0	0	0
13878	0	0	0	0	0	10.439029	0.267844	-0.639248	0.049392	0.137943	0.727669	-0.672607	0.593994	0.929688	0.228579	-0.717570	-0.140118	-0.642815	-115.035279	-80.604959	-34.636213	0.134311	-0.092780	0.986586	0.494958	-0.856237	-0.147904	0.858474	0.508183	-0.069080	0	0	0
13879	0	0	0	0	0	10.626699	-0.001889	-0.691984	0.049353	0.135461	0.780057	-0.676758	0.600586	0.927490	0.231348	-0.717631	-0.137313	-0.642362	-113.507804	-80.228411	-36.158156	0.137031	-0.100138	0.985492	0.494299	-0.855246	-0.155635	0.858423	0.508455	-0.067697	0	0	0
13880	0	0	0	0	0	10.863289	-0.170409	-0.621857	0.049000	0.135532	0.838252	-0.668457	0.598145	0.922119	0.234299	-0.717719	-0.134294	-0.641832	-112.023033	-79.814426	-37.638916	0.140033	-0.107991	0.984240	0.493532	-0.854138	-0.163934	0.858381	0.508710	-0.066310	0	0	0
13881	0	0	0	0	0	11.060273	-0.325837	-0.721850	0.076964	0.127728	0.895152	-0.665527	0.608643	0.911377	0.237522	-0.717825	-0.131169	-0.641176	-110.601607	-79.362240	-39.040931	0.143377	-0.116274	0.982814	0.492899	-0.852756	-0.172794	0.858192	0.509202	-0.064954	0	0	0
13882	0	0	0	0	0	11.432278	-0.257599	-0.597141	0.098201	0.121337	0.951993	-0.670410	0.617188	0.912354	0.240995	-0.717946	-0.127910	-0.640401	-109.245096	-78.872004	-40.366681	0.147051	-0.125003	0.981198	0.492332	-0.851121	-0.182216	0.857896	0.509870	-0.063615	0	0	0
13883	0	0	0	0	0	11.760569	-0.232206	-0.592654	0.109355	0.111937	1.023610	-0.666748	0.625977	0.914551	0.244724	-0.718113	-0.124441	-0.639483	-107.960603	-78.335744	-41.614719	0.151153	-0.134269	0.979349	0.491718	-0.849249	-0.192324	0.857535	0.510634	-0.062344	0	0	0
13884	0	0	0	0	0	11.842622	-0.121283	-0.661949	0.140228	0.106868	1.094324	-0.660400	0.636719	0.905762	0.248781	-0.718281	-0.120816	-0.638423	-106.727698	-77.754430	-42.794526	0.155639	-0.144096	0.977248	0.491215	-0.847023	-0.203127	0.857021	0.511653	-0.061048	0	0	0
13885	0	0	0	0	0	12.040570	0.051089	-0.683241	0.179732	0.087923	1.166734	-0.652832	0.636963	0.887939	0.253190	-0.718481	-0.117080	-0.637159	-105.580288	-77.125583	-43.866189	0.160641	-0.154405	0.974861	0.490885	-0.844374	-0.214628	0.856287	0.513022	-0.059845	0	0	0
13886	0	0	0	0	0	12.462772	0.325577	-0.435192	0.240210	0.077226	1.254121	-0.650879	0.646729	0.885498	0.258081	-0.718662	-0.113229	-0.635688	-104.473388	-76.442039	-44.863529	0.166161	-0.165371	0.972133	0.490864	-0.841147	-0.226989	0.855245	0.514902	-0.058591	0	0	0
13887	0	0	0	0	0	12.263656	0.512682	-0.859730	0.282293	0.069717	1.313987	-0.643555	0.649658	0.873291	0.263295	-0.718816	-0.109305	-0.634060	-103.429905	-75.720377	-45.773566	0.172040	-0.176750	0.969104	0.491030	-0.837456	-0.239910	0.853986	0.517133	-0.057287	0	0	0
13888	0	0	0	0	0	12.507579	0.355130	-0.914716	0.360091	0.033382	1.380912	-0.646484	0.662354	0.873291	0.268971	-0.718984	-0.105426	-0.632141	-102.480161	-74.952616	-46.543733	0.178565	-0.188456	0.965711	0.491654	-0.833080	-0.253483	0.852286	0.520059	-0.056104	0	0	0
13889	0	0	0	0	0	13.233175	0.280621	-0.901620	0.433896	0.006304	1.456833	-0.632813	0.677246	0.864990	0.275121	-0.719139	-0.101542	-0.629949	-101.595885	-74.136512	-47.204878	0.185706	-0.200578	0.961916	0.492670	-0.827996	-0.267767	0.850170	0.523633	-0.054945	0	0	0
13890	0	0	0	0	0	13.446839	0.128138	-1.374885	0.469166	0.000571	1.537664	-0.625244	0.684082	0.854004	0.281634	-0.719261	-0.097476	-0.627570	-100.747460	-73.271309	-47.810474	0.193309	-0.213269	0.957678	0.493712	-0.822361	-0.282791	0.847868	0.527484	-0.053677	0	0	0
13891	0	0	0	0	0	13.526388	-0.408341	-1.901194	0.564209	-0.027592	1.600557	-0.625488	0.698730	0.839600	0.288651	-0.719320	-0.093521	-0.624911	-99.948106	-72.365960	-48.310424	0.201481	-0.226220	0.953011	0.495305	-0.815869	-0.298381	0.845032	0.532149	-0.052334	0	0	0
13892	0	0	0	0	0	13.404066	-0.248874	-2.623492	0.660509	-0.060620	1.622529	-0.617676	0.712402	0.829346	0.296049	-0.719299	-0.089822	-0.622010	-99.206200	-71.442591	-48.694542	0.210071	-0.239073	0.948005	0.497509	-0.808573	-0.314155	0.841638	0.537637	-0.050917	0	0	0
13893	0	0	0	0	0	13.240890	-0.173292	-2.936530	0.816177	-0.086074	1.604572	-0.613037	0.722412	0.813232	0.303913	-0.719062	-0.086709	-0.618925	-98.476066	-70.526335	-48.973836	0.218828	-0.251500	0.942795	0.500897	-0.800237	-0.329732	0.837387	0.544398	-0.049138	0	0	0
13894	0	0	0	0	0	13.117562	0.361658	-3.124135	0.878519	-0.129227	1.570285	-0.597412	0.736084	0.798096	0.311855	-0.718790	-0.083965	-0.615659	-97.827745	-69.624347	-49.129799	0.227827	-0.263287	0.937430	0.504699	-0.791393	-0.344929	0.832691	0.551704	-0.047420	0	0	0
13895	0	0	0	0	0	12.659660	0.573189	-3.794578	0.710241	-0.205656	1.517262	-0.584961	0.746094	0.785889	0.318969	-0.718941	-0.081013	-0.612225	-97.430392	-68.746953	-49.121219	0.237234	-0.274075	0.931989	0.507049	-0.783391	-0.359444	0.828626	0.557836	-0.046877	0	0	0
13896	0	0	0	0	0	11.991171	-0.758604	-3.345221	0.471373	-0.300798	1.505512	-0.580811	0.765625	0.770996	0.325132	-0.719708	-0.077511	-0.608524	-97.316250	-67.868514	-48.955202	0.247382	-0.284131	0.926322	0.507272	-0.776562	-0.373666	0.825516	0.562335	-0.047975	0	0	0
13897	0	0	0	0	0	11.404452	-3.599721	-3.541147	0.109586	-0.471323	1.618443	-0.567627	0.773193	0.765625	0.330244	-0.721579	-0.072782	-0.604123	-97.613018	-66.913963	-48.567442	0.259476	-0.293981	0.919917	0.504052	-0.771283	-0.388657	0.823774	0.564533	-0.051948	0	0	0
13898	0	0	0	0	0	11.686379	-5.719472	-5.865087	-0.182202	-0.690443	1.785256	-0.549072	0.772461	0.755371	0.334705	-0.724594	-0.066918	-0.598714	-98.293964	-65.845302	-47.940030	0.274128	-0.303809	0.912444	0.497761	-0.766989	-0.404922	0.822853	0.565180	-0.059028	0	0	0
13899	0	0	0	0	0	12.855509	-7.021739	-5.491000	-0.030725	-0.749611	1.918352	-0.537109	0.786133	0.753174	0.340055	-0.727507	-0.061125	-0.592756	-98.882976	-64.694271	-47.312757	0.289808	-0.314203	0.904040	0.492077	-0.761252	-0.422321	0.820897	0.567250	-0.066005	0	0	0
13900	0	0	0	0	0	12.834843	-6.646350	-3.427681	0.138884	-0.775167	2.030165	-0.507080	0.795654	0.755127	0.346313	-0.730157	-0.055457	-0.586398	-99.331012	-63.474529	-46.728051	0.306124	-0.325170	0.894736	0.487138	-0.753984	-0.440686	0.817915	0.570765	-0.072410	0	0	0
13901	0	0	0	0	0	11.308703	-6.355800	-3.841953	0.130613	-0.783716	2.028692	-0.489502	0.803467	0.741455	0.352487	-0.732763	-0.049786	-0.579942	-99.749845	-62.253681	-46.175255	0.322378	-0.335882	0.885018	0.481806	-0.746549	-0.458833	0.814822	0.574324	-0.078841	0	0	0
13902	0	0	0	0	0	9.573571	-5.900745	-2.938933	0.179123	-0.853857	1.993524	-0.473877	0.807861	0.737793	0.358683	-0.735388	-0.044494	-0.573212	-100.177665	-61.043130	-45.574440	0.338897	-0.345762	0.874984	0.476643	-0.738734	-0.476533	0.811148	0.578551	-0.085550	0	0	0
13903	0	0	0	0	0	9.216954	-5.335048	-3.205201	0.039138	-0.973920	1.996495	-0.448242	0.823975	0.728516	0.364297	-0.738523	-0.039008	-0.565995	-100.761330	-59.816653	-44.879650	0.356257	-0.354764	0.864421	0.469996	-0.731533	-0.493927	0.807579	0.582240	-0.093876	0	0	0
13904	0	0	0	0	0	9.151312	-4.459613	-2.644782	-0.063551	-0.986149	1.981997	-0.432373	0.836182	0.715576	0.369449	-0.741783	-0.033294	-0.558711	-101.366025	-58.592781	-44.220081	0.373467	-0.363436	0.853485	0.462224	-0.724799	-0.510897	0.804283	0.585305	-0.102700	0	0	0
13905	0	0	0	0	0	8.681592	-3.694162	-1.724543	-0.290574	-0.989938	1.943804	-0.403809	0.826416	0.713135	0.373600	-0.745379	-0.027099	-0.551451	-102.064324	-57.386840	-43.595098	0.390335	-0.371647	0.842329	0.452443	-0.719377	-0.527060	0.801832	0.586835	-0.112649	0	0	0
13906	0	0	0	0	0	7.837358	-3.189245	-1.231978	-0.555153	-0.985222	1.853911	-0.388916	0.827393	0.708008	0.376480	-0.749351	-0.020489	-0.544349	-102.877614	-56.226821	-43.005376	0.406529	-0.379166	0.831245	0.440580	-0.715687	-0.541925	0.800390	0.586538	-0.123894	0	0	0
13907	0	0	0	0	0	6.898861	-2.904187	-0.584912	-0.757317	-0.966151	1.717174	-0.369629	0.826172	0.709473	0.378182	-0.753556	-0.013811	-0.537532	-103.773369	-55.141589	-42.448507	0.421738	-0.385755	0.820567	0.427385	-0.713575	-0.555116	0.799675	0.584811	-0.136076	0	0	0
13908	0	0	0	0	0	6.017686	-2.613789	-0.079995	-0.940957	-0.926964	1.537894	-0.343994	0.821533	0.710449	0.378679	-0.757906	-0.007231	-0.531158	-104.735451	-54.155800	-41.932033	0.435638	-0.391315	0.810612	0.413238	-0.713100	-0.566324	0.799659	0.581688	-0.148947	0	0	0
13909	0	0	0	0	0	5.342504	-2.482915	0.395669	-1.077176	-0.888979	1.335223	-0.334961	0.814941	0.711182	0.378079	-0.762335	-0.000993	-0.525263	-105.752733	-53.283489	-41.438093	0.448196	-0.395667	0.801603	0.398697	-0.714110	-0.575402	0.800101	0.577489	-0.162310	0	0	0
13910	0	0	0	0	0	4.492329	-2.196668	0.783283	-1.152568	-0.826178	1.086868	-0.323975	0.813721	0.713379	0.376513	-0.766669	0.004623	-0.520033	-106.786511	-52.552055	-40.972156	0.459088	-0.398687	0.793906	0.384511	-0.716433	-0.582130	0.800868	0.572514	-0.175606	0	0	0
13911	0	0	0	0	0	3.668775	-2.056283	1.096392	-1.171140	-0.770740	0.800671	-0.317627	0.803711	0.726318	0.374097	-0.770849	0.009286	-0.515515	-107.830432	-51.982396	-40.503081	0.468315	-0.400023	0.787822	0.371389	-0.719930	-0.586320	0.801718	0.567171	-0.188590	0	0	0
13912	0	0	0	0	0	2.849103	-1.853361	1.362767	-1.139513	-0.701352	0.477757	-0.304443	0.795898	0.728516	0.370952	-0.774758	0.012761	-0.511842	-108.861286	-51.595031	-40.024194	0.475710	-0.399511	0.783640	0.359964	-0.724464	-0.587859	0.802574	0.561732	-0.200825	0	0	0
13913	0	0	0	0	0	2.263087	-1.655411	1.483250	-1.074434	-0.634948	0.131059	-0.311279	0.789307	0.724121	0.367144	-0.778367	0.014841	-0.509049	-109.881305	-51.403194	-39.509889	0.481299	-0.396892	0.781555	0.350685	-0.729970	-0.586655	0.803350	0.556436	-0.212150	0	0	0
13914	0	0	0	0	0	1.810112	-1.188977	1.635067	-0.946162	-0.537242	-0.232113	-0.307617	0.782715	0.730713	0.362897	-0.781487	0.015367	-0.507295	-110.845891	-51.419668	-38.971541	0.484832	-0.392211	0.781735	0.344173	-0.736139	-0.582790	0.804042	0.551607	-0.221916	0	0	0
13915	0	0	0	0	0	1.682719	-0.315466	2.026297	-0.772255	-0.412430	-0.602565	-0.312256	0.778076	0.725586	0.358364	-0.783983	0.014224	-0.506698	-111.727491	-51.655211	-38.413155	0.486109	-0.385467	0.784292	0.340862	-0.742746	-0.576317	0.804681	0.547488	-0.229665	0	0	0
13916	0	0	0	0	0	1.704304	0.534499	3.267610	-0.590035	-0.267586	-0.963843	-0.320557	0.768555	0.721924	0.353614	-0.785785	0.011469	-0.507315	-112.514428	-52.107953	-37.844745	0.485000	-0.376811	0.789169	0.340763	-0.749652	-0.567365	0.805392	0.544091	-0.235178	0	0	0
13917	0	0	0	0	0	1.910818	0.871455	3.650139	-0.703461	-0.160424	-1.325224	-0.325928	0.761719	0.731689	0.347473	-0.787502	0.007763	-0.508962	-113.416911	-52.770853	-37.217092	0.481795	-0.365929	0.796222	0.341474	-0.758404	-0.555174	0.807013	0.539369	-0.240440	0	0	0
13918	0	0	0	0	0	2.154600	0.713497	3.355620	-0.851730	0.005616	-1.670676	-0.354980	0.754150	0.730225	0.339844	-0.789008	0.003371	-0.511820	-114.422790	-53.646033	-36.572542	0.476057	-0.353197	0.805370	0.342560	-0.768989	-0.539730	0.809952	0.532830	-0.245091	0	0	0
13919	0	0	0	0	0	2.418722	0.458780	3.311227	-0.950368	0.148886	-2.010938	-0.365234	0.729736	0.726563	0.330911	-0.790240	-0.001877	-0.515767	-115.538595	-54.726134	-35.870353	0.467962	-0.338379	0.816401	0.344313	-0.780988	-0.521062	0.813917	0.524935	-0.248965	0	0	0
13920	0	0	0	0	0	2.616000	0.085183	3.087926	-1.048112	0.304668	-2.343026	-0.383545	0.727295	0.731445	0.320695	-0.791111	-0.007919	-0.520803	-116.771911	-56.006913	-35.103408	0.457403	-0.321509	0.829105	0.346567	-0.794184	-0.499162	0.818947	0.515658	-0.251838	0	0	0
13921	0	0	0	0	0	2.800614	-0.394165	2.833975	-1.171464	0.443092	-2.671407	-0.416992	0.706787	0.729492	0.309073	-0.791655	-0.014723	-0.526820	-118.180743	-57.481710	-34.223556	0.444488	-0.302341	0.843220	0.348962	-0.808514	-0.473847	0.825018	0.504871	-0.253869	0	0	0
13922	0	0	0	0	0	3.202687	-1.054446	2.401096	-1.288086	0.591572	-2.971101	-0.436279	0.690674	0.739258	0.296142	-0.791772	-0.022164	-0.533766	-119.777339	-59.133933	-33.216660	0.429206	-0.281043	0.858369	0.351240	-0.823617	-0.445293	0.832114	0.492616	-0.254788	0	0	0
13923	0	0	0	0	0	3.853129	-1.610307	1.891206	-1.352664	0.733045	-3.236052	-0.472412	0.659180	0.733154	0.282171	-0.791344	-0.030275	-0.541515	-121.570958	-60.942637	-32.043156	0.411690	-0.257684	0.874134	0.353515	-0.838926	-0.413800	0.839963	0.479377	-0.254282	0	0	0
13924	0	0	0	0	0	4.858925	-2.024785	1.524981	-1.382955	0.872646	-3.450864	-0.508057	0.640137	0.742188	0.267429	-0.790276	-0.038938	-0.549937	-123.571341	-62.876886	-30.676058	0.392107	-0.232595	0.890029	0.355680	-0.853932	-0.379858	0.848377	0.465511	-0.252103	0	0	0
13925	0	0	0	0	0	6.072647	-2.239484	1.278363	-1.395076	1.000469	-3.606736	-0.547363	0.614258	0.732666	0.252127	-0.788540	-0.048005	-0.558866	-125.813505	-64.902067	-29.071469	0.370728	-0.206103	0.905584	0.357519	-0.868255	-0.343968	0.857171	0.451282	-0.248201	0	0	0
13926	0	0	0	0	0	7.491728	-2.447915	1.057590	-1.473286	1.091130	-3.693368	-0.577881	0.586182	0.742676	0.236199	-0.786305	-0.057053	-0.568049	-128.403307	-66.965803	-27.161900	0.348130	-0.178622	0.920271	0.358068	-0.881910	-0.306630	0.866368	0.436267	-0.243061	0	0	0
13927	0	0	0	0	0	9.246340	-2.945818	0.417598	-1.591218	1.178134	-3.727938	-0.607910	0.559814	0.742676	0.219625	-0.783608	-0.065783	-0.577404	-131.431211	-69.037110	-24.881830	0.324555	-0.150528	0.933812	0.356721	-0.894875	-0.268233	0.876022	0.420167	-0.236739	0	0	0
13928	0	0	0	0	0	10.889564	-3.330875	-0.581409	-1.715346	1.264807	-3.733695	-0.638428	0.523438	0.736328	0.202483	-0.780442	-0.074044	-0.586881	-135.000144	-71.091555	-22.133291	0.300177	-0.122092	0.946038	0.353241	-0.907036	-0.229142	0.886067	0.402963	-0.229143	0	0	0
13929	0	0	0	0	0	12.127238	-3.804616	-1.493650	-1.657333	1.362529	-3.706320	-0.672363	0.484863	0.747070	0.185585	-0.776579	-0.082243	-0.596422	-139.122377	-73.109974	-18.801696	0.275033	-0.093638	0.956864	0.349111	-0.917588	-0.190140	0.895812	0.386347	-0.219677	0	0	0
13930	0	0	0	0	0	12.960314	-3.977042	-1.692213	-1.435099	1.415788	-3.661550	-0.699707	0.450928	0.731689	0.169628	-0.772023	-0.090837	-0.605768	-143.937785	-75.050011	-14.651860	0.249587	-0.065254	0.966151	0.345768	-0.925950	-0.151861	0.904517	0.371966	-0.208542	0	0	0
13931	0	0	0	0	0	13.530211	-4.146520	-1.884722	-1.154611	1.390205	-3.611897	-0.730713	0.425537	0.727295	0.154816	-0.767001	-0.100080	-0.614593	-149.791675	-76.849481	-9.302004	0.224518	-0.036774	0.973776	0.343820	-0.932032	-0.114471	0.911800	0.360504	-0.196615	0	0	0
13932	0	0	0	0	0	13.741728	-4.130667	-2.041880	-0.868115	1.376510	-3.562461	-0.753174	0.387451	0.722900	0.141190	-0.761524	-0.109977	-0.622938	-157.024435	-78.469868	-2.410182	0.199706	-0.008406	0.979820	0.343406	-0.935941	-0.078022	0.917709	0.352057	-0.184027	0	0	0
13933	0	0	0	0	0	13.346135	-4.042800	-2.416780	-0.573674	1.411602	-3.526071	-0.781494	0.366699	0.700928	0.128761	-0.755460	-0.120593	-0.630998	-166.049595	-79.880161	6.440887	0.174599	0.019711	0.984442	0.344703	-0.937756	-0.042360	0.922332	0.346736	-0.170525	0	0	0
13934	0	0	0	0	0	13.048288	-3.974754	-2.425232	-0.268227	1.400776	-3.479050	-0.800049	0.332520	0.693604	0.117586	-0.748992	-0.131952	-0.638571	-177.217819	-80.968018	17.607879	0.149631	0.047488	0.987601	0.347836	-0.937525	-0.007620	0.925538	0.344663	-0.156801	0	0	0
13935	0	0	0	0	0	13.282413	-3.305686	-2.997925	-0.063935	1.359601	-3.364744	-0.827148	0.305908	0.682617	0.107469	-0.742352	-0.143521	-0.645574	169.819191	-81.624258	30.681705	0.125273	0.074328	0.989334	0.351843	-0.935705	0.025747	0.927638	0.344865	-0.143371	0	0	0
13936	0	0	0	0	0	13.820501	-2.329511	-3.524987	0.187316	1.285247	-3.204887	-0.842285	0.288574	0.668945	0.098717	-0.735702	-0.155295	-0.651828	156.371986	-81.795112	44.376324	0.102006	0.099809	0.989764	0.357196	-0.932276	0.057199	0.928443	0.347705	-0.130749	0	0	0
13937	0	0	0	0	0	13.643495	-1.499805	-2.679760	0.403912	1.253509	-2.985231	-0.860596	0.261719	0.656006	0.091422	-0.729009	-0.166946	-0.657508	143.988168	-81.565339	57.123022	0.079624	0.123189	0.989184	0.363631	-0.927542	0.086242	0.928134	0.352831	-0.118650	0	0	0
13938	0	0	0	0	0	12.586092	-0.959587	-2.019071	0.394238	1.109259	-2.710833	-0.868408	0.235596	0.642578	0.084855	-0.722850	-0.177584	-0.662384	133.834821	-81.020816	67.620791	0.059423	0.144321	0.987745	0.369146	-0.922527	0.112583	0.927470	0.357932	-0.108095	0	0	0
13939	0	0	0	0	0	12.093554	-1.008537	-1.719361	0.384083	0.921452	-2.440665	-0.883545	0.228271	0.638672	0.078958	-0.717412	-0.187263	-0.666347	126.133790	-80.286098	75.646339	0.041829	0.163462	0.985663	0.373916	-0.917397	0.136272	0.926519	0.362855	-0.099495	0	0	0
13940	0	0	0	0	0	11.821812	-1.058528	-1.495658	0.405076	0.784407	-2.174620	-0.891357	0.210205	0.624512	0.073887	-0.712563	-0.196077	-0.669588	120.428827	-79.489925	81.675065	0.026410	0.180486	0.983223	0.378382	-0.912189	0.157283	0.925273	0.367880	-0.092384	0	0	0
13941	0	0	0	0	0	12.192101	-0.811905	-1.667192	0.438790	0.653846	-1.894077	-0.900146	0.192627	0.614502	0.069734	-0.708325	-0.204033	-0.672149	116.292914	-78.711844	86.141165	0.013173	0.195300	0.980655	0.382787	-0.907015	0.175492	0.923743	0.373071	-0.086707	0	0	0
13942	0	0	0	0	0	12.393781	-0.197817	-1.892107	0.435328	0.582173	-1.595809	-0.907959	0.185059	0.616455	0.066496	-0.704571	-0.210924	-0.674292	113.216152	-78.021020	89.535308	0.001683	0.207546	0.978224	0.386897	-0.902179	0.190746	0.922122	0.378151	-0.081818	0	0	0
13943	0	0	0	0	0	12.157707	-0.312961	-1.422838	0.401360	0.521419	-1.246638	-0.918945	0.171875	0.595215	0.064244	-0.701355	-0.216481	-0.676100	110.938233	-77.470947	92.099961	-0.007949	0.216789	0.976186	0.390530	-0.898018	0.202610	0.920556	0.382840	-0.077524	0	0	0
13944	0	0	0	0	0	11.713418	-0.020514	-1.106873	0.244163	0.403671	-0.832215	-0.914063	0.164551	0.598145	0.062714	-0.699012	-0.220079	-0.677506	109.391644	-77.103268	93.827096	-0.014897	0.222697	0.974774	0.392654	-0.895264	0.210533	0.919565	0.385886	-0.074106	0	0	0
13945	0	0	0	0	0	11.553530	0.225425	-1.041593	0.095535	0.328919	-0.416308	-0.913574	0.148682	0.599365	0.061989	-0.697415	-0.221744	-0.678675	108.340987	-76.938281	94.959801	-0.019539	0.225154	0.974127	0.393435	-0.893974	0.214520	0.919145	0.387447	-0.071116	0	0	0
13946	0	0	0	0	0	10.980428	0.201087	-1.229390	-0.073157	0.251526	-0.017278	-0.914795	0.159668	0.585449	0.061945	-0.696574	-0.221464	-0.679633	107.698693	-76.973729	95.574361	-0.021895	0.224332	0.974267	0.392732	-0.894233	0.214729	0.919392	0.387327	-0.068523	0	0	0
13947	0	0	0	0	0	10.075727	-0.373894	-1.669444	-0.215964	0.173691	0.340229	-0.921387	0.155518	0.585449	0.062531	-0.696434	-0.219480	-0.680367	107.420849	-77.189479	95.730794	-0.022141	0.220619	0.975109	0.390795	-0.895837	0.211557	0.920212	0.385751	-0.066383	0	0	0
13948	0	0	0	0	0	9.412995	-0.773524	-2.080931	-0.335463	0.028089	0.691149	-0.923340	0.159912	0.583984	0.063736	-0.697206	-0.215909	-0.680607	107.698333	-77.572177	95.247761	-0.019684	0.214308	0.976568	0.387823	-0.898643	0.205024	0.921524	0.382771	-0.065425	0	0	0
13949	0	0	0	0	0	9.497410	-1.080121	-2.675642	-0.436841	-0.120959	1.014262	-0.918701	0.163086	0.595703	0.065522	-0.698849	-0.210911	-0.680319	108.597152	-78.102758	94.070608	-0.014634	0.205637	0.978519	0.383942	-0.902447	0.195392	0.923241	0.378554	-0.065746	0	0	0
13950	0	0	0	0	0	9.616605	-0.365660	-3.102533	-0.794919	-0.203903	1.395837	-0.922119	0.167969	0.589844	0.067267	-0.701261	-0.203376	-0.679960	109.981151	-78.819369	92.191536	-0.007415	0.193761	0.981021	0.376717	-0.908227	0.182231	0.926299	0.370919	-0.066259	0	0	0
13951	0	0	0	0	0	8.581128	1.501345	-4.261942	-1.489814	-0.618349	1.819989	-0.910156	0.173096	0.601563	0.067587	-0.705672	-0.192111	-0.678640	112.873148	-79.660996	88.377377	0.005082	0.179400	0.983763	0.362870	-0.917050	0.165360	0.931826	0.356138	-0.069759	0	0	0
13952	0	0	0	0	0	8.677212	1.495812	-5.891371	-1.360819	-1.051302	1.957122	-0.903320	0.181396	0.603516	0.068403	-0.711528	-0.180914	-0.675513	117.939887	-80.416559	82.440017	0.021903	0.165037	0.986044	0.349865	-0.925182	0.147078	0.936544	0.341761	-0.078005	0	0	0
13953	0	0	0	0	0	9.531547	2.141685	-3.686523	-0.837020	-0.749459	1.766676	-0.893311	0.196045	0.604736	0.070701	-0.715914	-0.172038	-0.672957	122.885670	-81.072529	76.941663	0.035063	0.151171	0.987886	0.341485	-0.930809	0.130317	0.939233	0.332779	-0.084259	0	0	0
13954	0	0	0	0	0	9.565121	2.094293	-1.866933	-0.521555	-0.724790	1.352707	-0.883789	0.186768	0.615234	0.072751	-0.719686	-0.165678	-0.670306	127.719431	-81.465318	71.747310	0.046483	0.140941	0.988926	0.336003	-0.934516	0.117393	0.940713	0.326826	-0.090795	0	0	0
13955	0	0	0	0	0	11.578811	1.697394	-1.563300	-0.109629	-0.856124	1.008823	-0.879395	0.198730	0.618164	0.075106	-0.723403	-0.162069	-0.666919	132.685472	-81.590067	66.676359	0.057906	0.134303	0.989247	0.334662	-0.936185	0.107510	0.940557	0.324838	-0.099157	0	0	0
13956	0	0	0	0	0	14.140555	1.520127	-2.937300	0.003791	-0.723328	0.970039	-0.873535	0.212158	0.627197	0.077759	-0.726596	-0.158828	-0.663917	137.365350	-81.689413	61.946777	0.067975	0.127557	0.989499	0.334059	-0.937454	0.097899	0.940098	0.323896	-0.106336	0	0	0
13957	0	0	0	0	0	17.127002	0.761399	-1.397836	0.137754	-0.987209	1.185989	-0.860840	0.219482	0.631104	0.081484	-0.730729	-0.155434	-0.659724	143.505570	-81.685698	55.833896	0.081208	0.119647	0.989490	0.334675	-0.938401	0.086002	0.938828	0.324173	-0.116249	0	0	0
13958	0	0	0	0	0	18.214419	1.249360	3.906605	0.431631	-0.752853	1.377292	-0.862549	0.231689	0.629150	0.087008	-0.734092	-0.152114	-0.656049	149.923964	-81.757637	49.596271	0.092922	0.109169	0.989671	0.337495	-0.938582	0.071845	0.936730	0.327333	-0.124059	0	0	0
13959	0	0	0	0	0	11.889037	1.678283	6.770717	-0.245508	-0.161614	1.463669	-0.859131	0.240234	0.634521	0.090855	-0.735812	-0.146080	-0.654971	155.329967	-82.060694	44.006262	0.099348	0.095960	0.990415	0.333989	-0.940812	0.057652	0.937327	0.325060	-0.125517	0	0	0
13960	0	0	0	0	0	5.464585	-0.069426	1.968780	-1.551035	-0.317007	1.428806	-0.853271	0.230957	0.647217	0.089582	-0.738566	-0.135866	-0.654245	160.432054	-82.199975	37.956945	0.107008	0.083475	0.990748	0.317910	-0.947031	0.045455	0.942063	0.310105	-0.127878	0	0	0
13961	0	0	0	0	0	5.849582	-2.953964	-5.204753	-1.665241	-0.659803	1.267374	-0.845947	0.234375	0.651855	0.087187	-0.742280	-0.126093	-0.652318	165.308073	-82.051658	32.081971	0.117163	0.073445	0.990393	0.300939	-0.952998	0.035071	0.946419	0.293939	-0.133759	0	0	0
