// General information: 
//  MT Manager version: 2022.2.0 
//  XDA version: 2022.2.0 build 7381 rev 124627 built on 2023-07-19
// Device information: 
//  DeviceId: 10B426EE
//  ProductCode: MTW2-3A7G6
//  Firmware Version: 4.14.0
//  Hardware Version: 3.0.0
// Device settings: 
//  Filter Profile: human(46.1)
//  Option Flags: Orientation Smoother Disabled, Position/Velocity Smoother Disabled, Continuous Zero Rotation Update Disabled, AHS Disabled, ICC Disabled
// Coordinate system: ENU
PacketCounter	SampleTimeFine	Year	Month	Day	Second	Acc_X	Acc_Y	Acc_Z	Gyr_X	Gyr_Y	Gyr_Z	Mag_X	Mag_Y	Mag_Z	Quat_q0	Quat_q1	Quat_q2	Quat_q3	Roll	Pitch	Yaw	Mat[1][1]	Mat[2][1]	Mat[3][1]	Mat[1][2]	Mat[2][2]	Mat[3][2]	Mat[1][3]	Mat[2][3]	Mat[3][3]	Vel_E	Vel_N	Vel_U
13511	0	0	0	0	0	4.487785	-2.860777	8.279383	-0.002311	0.000313	0.003198	-0.986328	-0.528076	-0.907715	-0.470072	-0.132292	0.249918	-0.836105	-19.260524	-27.140860	125.999994	-0.523063	0.719934	0.456180	-0.852183	-0.433147	-0.293542	-0.013738	-0.542290	0.840079	0	0	0
13512	0	0	0	0	0	4.513936	-2.874254	8.233339	0.001538	-0.001472	0.006233	-0.981201	-0.531738	-0.899658	-0.470061	-0.132303	0.249924	-0.836108	-19.260983	-27.142045	126.001588	-0.523077	0.719912	0.456198	-0.852175	-0.433162	-0.293546	-0.013720	-0.542308	0.840068	0	0	0
13513	0	0	0	0	0	4.487513	-2.861142	8.279405	0.001932	0.001865	0.005576	-0.990479	-0.531982	-0.898926	-0.470081	-0.132294	0.249922	-0.836099	-19.260613	-27.141414	125.998785	-0.523045	0.719942	0.456188	-0.852194	-0.433126	-0.293542	-0.013746	-0.542297	0.840075	0	0	0
13514	0	0	0	0	0	4.501107	-2.903337	8.247665	0.002465	-0.000609	0.004364	-0.987061	-0.531006	-0.898682	-0.470078	-0.132305	0.249921	-0.836099	-19.259938	-27.142486	125.999059	-0.523043	0.719932	0.456205	-0.852196	-0.433132	-0.293529	-0.013724	-0.542304	0.840070	0	0	0
13515	0	0	0	0	0	4.499774	-2.832380	8.265277	-0.000545	-0.002465	0.004167	-0.982910	-0.533691	-0.899170	-0.470077	-0.132320	0.249935	-0.836093	-19.260938	-27.144790	125.999535	-0.523039	0.719913	0.456241	-0.852199	-0.433120	-0.293538	-0.013715	-0.542339	0.840048	0	0	0
13516	0	0	0	0	0	4.511503	-2.863259	8.254945	0.002008	0.001429	0.003822	-0.984375	-0.530518	-0.902344	-0.470080	-0.132322	0.249931	-0.836093	-19.260177	-27.144861	125.999046	-0.523032	0.719917	0.456242	-0.852203	-0.433120	-0.293526	-0.013707	-0.542334	0.840051	0	0	0
13517	0	0	0	0	0	4.488904	-2.872899	8.258102	0.003088	0.001996	0.009514	-0.980469	-0.533691	-0.901855	-0.470085	-0.132311	0.249926	-0.836093	-19.260065	-27.143549	125.998213	-0.523028	0.719933	0.456221	-0.852205	-0.433114	-0.293528	-0.013725	-0.542318	0.840061	0	0	0
13518	0	0	0	0	0	4.503029	-2.855474	8.222564	0.000775	0.001734	0.001640	-0.982178	-0.528320	-0.905518	-0.470098	-0.132312	0.249924	-0.836086	-19.259376	-27.143868	125.996334	-0.523003	0.719948	0.456226	-0.852220	-0.433091	-0.293517	-0.013730	-0.542316	0.840063	0	0	0
13519	0	0	0	0	0	4.500870	-2.844121	8.244144	0.002389	-0.000173	0.006119	-0.992188	-0.532715	-0.889893	-0.470126	-0.132308	0.249927	-0.836070	-19.259000	-27.144190	125.992446	-0.522952	0.719982	0.456231	-0.852251	-0.433036	-0.293511	-0.013758	-0.542316	0.840062	0	0	0
13520	0	0	0	0	0	4.508461	-2.852173	8.276913	0.001932	0.001865	0.005577	-0.982422	-0.532227	-0.888916	-0.470122	-0.132306	0.249923	-0.836073	-19.258728	-27.143694	125.992931	-0.522961	0.719981	0.456224	-0.852246	-0.433047	-0.293508	-0.013754	-0.542308	0.840067	0	0	0
13521	0	0	0	0	0	4.467524	-2.894113	8.240111	0.002783	0.003163	0.005462	-0.985840	-0.529785	-0.887207	-0.470096	-0.132314	0.249907	-0.836092	-19.257429	-27.143035	125.996320	-0.523006	0.719954	0.456213	-0.852218	-0.433113	-0.293491	-0.013708	-0.542291	0.840079	0	0	0
13522	0	0	0	0	0	4.497275	-2.892544	8.269958	0.003240	0.001125	0.006005	-0.994385	-0.534668	-0.897705	-0.470088	-0.132318	0.249900	-0.836098	-19.256597	-27.142858	125.997222	-0.523019	0.719947	0.456211	-0.852211	-0.433135	-0.293479	-0.013689	-0.542283	0.840084	0	0	0
13523	0	0	0	0	0	4.495101	-2.881313	8.291502	-0.002311	0.000314	0.003198	-0.981689	-0.526123	-0.904785	-0.470072	-0.132327	0.249911	-0.836102	-19.257969	-27.144115	125.999663	-0.523043	0.719916	0.456230	-0.852196	-0.433153	-0.293496	-0.013675	-0.542309	0.840068	0	0	0
13524	0	0	0	0	0	4.485011	-2.861788	8.280537	0.010646	0.003660	0.005071	-0.989502	-0.529785	-0.903320	-0.470067	-0.132339	0.249866	-0.836116	-19.252389	-27.142744	125.999460	-0.523047	0.719927	0.456209	-0.852195	-0.433208	-0.293418	-0.013606	-0.542250	0.840107	0	0	0
13525	0	0	0	0	0	4.486708	-2.872903	8.259294	0.001157	0.000131	0.003937	-0.983398	-0.528076	-0.892822	-0.470076	-0.132341	0.249869	-0.836110	-19.252327	-27.143348	125.998226	-0.523029	0.719934	0.456218	-0.852206	-0.433188	-0.293415	-0.013611	-0.542257	0.840103	0	0	0
13526	0	0	0	0	0	4.488598	-2.884422	8.237806	0.001538	-0.001471	0.006235	-0.991943	-0.528320	-0.896973	-0.470065	-0.132352	0.249875	-0.836113	-19.252786	-27.144532	125.999819	-0.523043	0.719912	0.456237	-0.852198	-0.433203	-0.293419	-0.013593	-0.542275	0.840091	0	0	0
13527	0	0	0	0	0	4.474826	-2.842156	8.269660	0.004776	-0.000923	0.001167	-0.986816	-0.528076	-0.902344	-0.470043	-0.132385	0.249858	-0.836125	-19.249872	-27.146623	126.002466	-0.523067	0.719875	0.456269	-0.852185	-0.433261	-0.293371	-0.013506	-0.542278	0.840091	0	0	0
13528	0	0	0	0	0	4.508789	-2.863220	8.256441	0.002008	0.001430	0.003823	-0.981445	-0.525879	-0.887695	-0.470046	-0.132388	0.249853	-0.836124	-19.249111	-27.146695	126.001978	-0.523060	0.719879	0.456270	-0.852189	-0.433261	-0.293359	-0.013499	-0.542273	0.840094	0	0	0
13529	0	0	0	0	0	4.486289	-2.872762	8.259570	0.002008	0.001430	0.003823	-0.987793	-0.525635	-0.893311	-0.470023	-0.132399	0.249844	-0.836138	-19.248308	-27.146894	126.004951	-0.523097	0.719850	0.456273	-0.852167	-0.433312	-0.293347	-0.013457	-0.542270	0.840097	0	0	0
13530	0	0	0	0	0	4.508339	-2.863187	8.256698	0.004549	0.000385	0.006433	-0.984863	-0.522949	-0.904785	-0.470012	-0.132409	0.249833	-0.836146	-19.246917	-27.147037	126.006272	-0.523113	0.719837	0.456276	-0.852158	-0.433344	-0.293326	-0.013423	-0.542261	0.840103	0	0	0
13531	0	0	0	0	0	4.506215	-2.851734	8.278288	0.002465	-0.000609	0.004365	-0.990234	-0.539795	-0.903809	-0.469979	-0.132429	0.249828	-0.836163	-19.246435	-27.148100	126.010773	-0.523164	0.719789	0.456292	-0.852127	-0.433411	-0.293316	-0.013364	-0.542271	0.840097	0	0	0
13532	0	0	0	0	0	4.487836	-2.884280	8.238271	-0.001930	-0.001288	0.005496	-0.986084	-0.530273	-0.903076	-0.469974	-0.132431	0.249847	-0.836159	-19.248658	-27.149325	126.011879	-0.523172	0.719771	0.456311	-0.852122	-0.433401	-0.293346	-0.013376	-0.542303	0.840076	0	0	0
13533	0	0	0	0	0	4.507869	-2.863470	8.256856	0.004944	0.003721	0.005776	-0.988525	-0.528809	-0.892822	-0.470005	-0.132420	0.249830	-0.836149	-19.246237	-27.147826	126.007137	-0.523120	0.719824	0.456288	-0.852154	-0.433360	-0.293314	-0.013398	-0.542266	0.840100	0	0	0
13534	0	0	0	0	0	4.505593	-2.852030	8.278525	0.001157	0.000132	0.003938	-0.983398	-0.534668	-0.895264	-0.470007	-0.132425	0.249832	-0.836147	-19.246122	-27.148577	126.006995	-0.523115	0.719821	0.456299	-0.852157	-0.433356	-0.293311	-0.013391	-0.542274	0.840095	0	0	0
13535	0	0	0	0	0	4.507389	-2.863687	8.257043	-0.001154	0.000447	0.007136	-0.986572	-0.527588	-0.895752	-0.469988	-0.132426	0.249843	-0.836154	-19.247903	-27.148832	126.009774	-0.523148	0.719794	0.456303	-0.852136	-0.433379	-0.293336	-0.013389	-0.542291	0.840084	0	0	0
13536	0	0	0	0	0	4.486859	-2.884960	8.238565	-0.001459	0.001613	0.003083	-0.988281	-0.528809	-0.899902	-0.469997	-0.132421	0.249851	-0.836147	-19.248906	-27.148944	126.008798	-0.523136	0.719802	0.456305	-0.852144	-0.433355	-0.293350	-0.013412	-0.542300	0.840078	0	0	0
13537	0	0	0	0	0	4.484657	-2.873685	8.260136	0.002009	0.001430	0.003823	-0.984619	-0.530273	-0.899902	-0.469982	-0.132429	0.249844	-0.836156	-19.248126	-27.149133	126.010640	-0.523158	0.719784	0.456308	-0.852131	-0.433389	-0.293338	-0.013382	-0.542297	0.840081	0	0	0
13538	0	0	0	0	0	4.506622	-2.864376	8.257223	-0.001610	0.002485	0.006594	-0.982178	-0.532471	-0.898193	-0.469977	-0.132416	0.249854	-0.836158	-19.250105	-27.148110	126.011613	-0.523175	0.719782	0.456292	-0.852120	-0.433389	-0.293370	-0.013411	-0.542300	0.840078	0	0	0
13539	0	0	0	0	0	4.488716	-2.837343	8.213429	0.001081	0.000568	0.005694	-0.988525	-0.535645	-0.888672	-0.469990	-0.132413	0.249858	-0.836151	-19.250244	-27.148317	126.009956	-0.523153	0.719795	0.456295	-0.852133	-0.433362	-0.293372	-0.013427	-0.542303	0.840076	0	0	0
13540	0	0	0	0	0	4.491741	-2.882323	8.292972	0.000305	-0.001166	0.004053	-0.986328	-0.530518	-0.899902	-0.469989	-0.132422	0.249866	-0.836147	-19.250775	-27.149749	126.010159	-0.523149	0.719784	0.456318	-0.852136	-0.433354	-0.293376	-0.013420	-0.542324	0.840062	0	0	0
13541	0	0	0	0	0	4.481880	-2.863072	8.281789	0.001157	0.000132	0.003939	-0.979004	-0.532471	-0.903076	-0.469986	-0.132433	0.249866	-0.836147	-19.250329	-27.150821	126.010630	-0.523150	0.719773	0.456334	-0.852135	-0.433361	-0.293366	-0.013400	-0.542333	0.840057	0	0	0
13542	0	0	0	0	0	4.483492	-2.874659	8.260429	0.000094	0.005081	0.006365	-0.984863	-0.529541	-0.890625	-0.469984	-0.132413	0.249863	-0.836152	-19.251016	-27.148437	126.010913	-0.523165	0.719786	0.456297	-0.852126	-0.433368	-0.293383	-0.013428	-0.542310	0.840071	0	0	0
13543	0	0	0	0	0	4.497640	-2.857313	8.224875	0.001232	-0.000305	0.002183	-0.989014	-0.525879	-0.897461	-0.470005	-0.132420	0.249864	-0.836139	-19.250150	-27.149813	126.007945	-0.523121	0.719804	0.456319	-0.852153	-0.433327	-0.293366	-0.013431	-0.542319	0.840065	0	0	0
13544	0	0	0	0	0	4.495514	-2.845904	8.246451	0.003241	0.001125	0.006007	-0.993896	-0.525879	-0.896729	-0.469997	-0.132424	0.249857	-0.836145	-19.249318	-27.149636	126.008849	-0.523133	0.719797	0.456316	-0.852146	-0.433349	-0.293355	-0.013412	-0.542311	0.840071	0	0	0
13545	0	0	0	0	0	4.484732	-2.886332	8.239243	-0.000227	0.001309	0.005267	-0.982910	-0.527588	-0.899414	-0.469950	-0.132435	0.249857	-0.836169	-19.250407	-27.149705	126.015429	-0.523215	0.719736	0.456317	-0.852096	-0.433436	-0.293370	-0.013365	-0.542322	0.840065	0	0	0
13546	0	0	0	0	0	4.493061	-2.834709	8.268130	0.003317	0.000689	0.004252	-0.982666	-0.523193	-0.897217	-0.469949	-0.132443	0.249849	-0.836171	-19.249087	-27.150097	126.015359	-0.523213	0.719735	0.456323	-0.852098	-0.433446	-0.293350	-0.013343	-0.542316	0.840068	0	0	0
13547	0	0	0	0	0	4.504597	-2.865452	8.257954	0.003241	0.001125	0.006007	-0.979492	-0.525391	-0.893799	-0.469933	-0.132449	0.249840	-0.836182	-19.248320	-27.149858	126.017546	-0.523241	0.719716	0.456319	-0.852081	-0.433487	-0.293339	-0.013313	-0.542308	0.840074	0	0	0
13548	0	0	0	0	0	4.506324	-2.876868	8.236595	0.002009	0.001430	0.003824	-0.981689	-0.527832	-0.894531	-0.469935	-0.132452	0.249835	-0.836182	-19.247559	-27.149929	126.017059	-0.523235	0.719720	0.456320	-0.852085	-0.433486	-0.293328	-0.013305	-0.542303	0.840078	0	0	0
13549	0	0	0	0	0	4.511911	-2.873422	8.290897	0.003241	0.001125	0.006008	-0.986572	-0.532227	-0.892334	-0.469918	-0.132459	0.249826	-0.836193	-19.246635	-27.149806	126.019259	-0.523263	0.719701	0.456319	-0.852068	-0.433528	-0.293315	-0.013272	-0.542295	0.840083	0	0	0
13550	0	0	0	0	0	4.505779	-2.876841	8.236902	0.002861	0.002727	0.003709	-0.986328	-0.530762	-0.898926	-0.469922	-0.132459	0.249814	-0.836194	-19.245228	-27.149197	126.018427	-0.523255	0.719712	0.456309	-0.852073	-0.433532	-0.293296	-0.013264	-0.542277	0.840095	0	0	0
13551	0	0	0	0	0	4.503519	-2.865602	8.258490	-0.001154	0.000449	0.007138	-0.984131	-0.533203	-0.900635	-0.469908	-0.132458	0.249826	-0.836199	-19.247053	-27.149390	126.020740	-0.523283	0.719690	0.456312	-0.852055	-0.433548	-0.293322	-0.013268	-0.542294	0.840084	0	0	0
13552	0	0	0	0	0	4.521596	-2.833394	8.298566	0.004169	0.001986	0.004137	-0.982910	-0.535889	-0.899414	-0.469908	-0.132463	0.249811	-0.836202	-19.245087	-27.149101	126.020325	-0.523280	0.719696	0.456308	-0.852058	-0.433562	-0.293294	-0.013245	-0.542275	0.840096	0	0	0
13553	0	0	0	0	0	4.503030	-2.865737	8.258710	-0.000151	0.000873	0.003512	-0.975586	-0.528809	-0.898926	-0.469949	-0.132454	0.249819	-0.836179	-19.245148	-27.149563	126.014820	-0.523208	0.719743	0.456315	-0.852101	-0.433477	-0.293294	-0.013294	-0.542280	0.840093	0	0	0
13554	0	0	0	0	0	4.488251	-2.883298	8.294522	0.002786	0.003164	0.005465	-0.988037	-0.531006	-0.897461	-0.469946	-0.132449	0.249808	-0.836184	-19.244229	-27.148386	126.014963	-0.523216	0.719749	0.456297	-0.852097	-0.433493	-0.293283	-0.013289	-0.542259	0.840106	0	0	0
13555	0	0	0	0	0	4.494659	-2.857794	8.226336	0.004625	-0.000052	0.004681	-0.987549	-0.532471	-0.900391	-0.469956	-0.132459	0.249797	-0.836180	-19.242167	-27.149083	126.013329	-0.523192	0.719760	0.456307	-0.852112	-0.433485	-0.293251	-0.013268	-0.542251	0.840111	0	0	0
13556	0	0	0	0	0	4.479947	-2.875265	8.262142	-0.000606	0.002912	0.002969	-0.990234	-0.535400	-0.897949	-0.469966	-0.132451	0.249800	-0.836175	-19.242524	-27.148514	126.012008	-0.523178	0.719775	0.456299	-0.852120	-0.433465	-0.293258	-0.013291	-0.542247	0.840114	0	0	0
13557	0	0	0	0	0	4.477646	-2.863905	8.283790	0.002862	0.002727	0.003710	-0.986572	-0.540527	-0.903076	-0.469980	-0.132449	0.249788	-0.836171	-19.240844	-27.148090	126.009751	-0.523152	0.719799	0.456292	-0.852136	-0.433449	-0.293234	-0.013291	-0.542229	0.840126	0	0	0
13558	0	0	0	0	0	4.514107	-2.837030	8.245242	0.001006	0.001006	0.007452	-0.986328	-0.532715	-0.897461	-0.469968	-0.132447	0.249791	-0.836177	-19.241705	-27.147706	126.011559	-0.523176	0.719785	0.456286	-0.852121	-0.433469	-0.293248	-0.013290	-0.542231	0.840124	0	0	0
13559	0	0	0	0	0	4.501466	-2.865990	8.259475	0.001308	-0.000741	0.000428	-0.981689	-0.525879	-0.898438	-0.470018	-0.132453	0.249795	-0.836147	-19.240182	-27.149717	126.004586	-0.523079	0.719835	0.456317	-0.852180	-0.433371	-0.293220	-0.013316	-0.542242	0.840117	0	0	0
13560	0	0	0	0	0	4.477091	-2.863951	8.284075	0.004169	0.001986	0.004138	-0.985840	-0.530273	-0.900635	-0.470018	-0.132458	0.249780	-0.836150	-19.238216	-27.149428	126.004171	-0.523075	0.719841	0.456313	-0.852183	-0.433385	-0.293192	-0.013293	-0.542224	0.840129	0	0	0
13561	0	0	0	0	0	4.489321	-2.835120	8.270021	0.001006	0.001006	0.007452	-0.988525	-0.526611	-0.896240	-0.470007	-0.132455	0.249783	-0.836157	-19.239053	-27.148999	126.005882	-0.523099	0.719828	0.456306	-0.852168	-0.433404	-0.293206	-0.013293	-0.542225	0.840128	0	0	0
13562	0	0	0	0	0	4.490289	-2.906294	8.252518	0.002085	0.000993	0.002069	-0.986084	-0.533447	-0.899658	-0.470016	-0.132462	0.249778	-0.836152	-19.237803	-27.149637	126.004420	-0.523077	0.719837	0.456316	-0.852182	-0.433392	-0.293186	-0.013283	-0.542223	0.840130	0	0	0
13563	0	0	0	0	0	4.500552	-2.865888	8.260008	0.003715	0.004024	0.003595	-0.987061	-0.526123	-0.892334	-0.470014	-0.132462	0.249758	-0.836159	-19.235652	-27.148477	126.004255	-0.523081	0.719846	0.456298	-0.852180	-0.433414	-0.293157	-0.013262	-0.542193	0.840149	0	0	0
13564	0	0	0	0	0	4.500205	-2.865943	8.260178	-0.000226	0.001311	0.005268	-0.985596	-0.537842	-0.895996	-0.470012	-0.132458	0.249764	-0.836159	-19.236584	-27.148340	126.004670	-0.523087	0.719843	0.456296	-0.852176	-0.433412	-0.293171	-0.013273	-0.542198	0.840146	0	0	0
13565	0	0	0	0	0	4.490195	-2.846572	8.249117	0.005477	0.001245	0.004567	-0.972412	-0.526855	-0.905762	-0.470001	-0.132474	0.249744	-0.836169	-19.233793	-27.148641	126.005799	-0.523099	0.719831	0.456300	-0.852169	-0.433454	-0.293130	-0.013218	-0.542181	0.840158	0	0	0
13566	0	0	0	0	0	4.529671	-2.864334	8.290216	0.002711	0.003601	0.007223	-0.984375	-0.527832	-0.897217	-0.469992	-0.132465	0.249733	-0.836178	-19.233362	-27.146897	126.006917	-0.523122	0.719832	0.456273	-0.852156	-0.433482	-0.293128	-0.013216	-0.542157	0.840173	0	0	0
13567	0	0	0	0	0	4.509052	-2.885218	8.271907	0.003392	0.000252	0.002498	-0.991699	-0.533936	-0.903320	-0.470022	-0.132468	0.249727	-0.836163	-19.231521	-27.147595	126.002558	-0.523063	0.719868	0.456284	-0.852191	-0.433432	-0.293099	-0.013224	-0.542151	0.840177	0	0	0
13568	0	0	0	0	0	4.497237	-2.854331	8.282274	0.002464	-0.000609	0.004369	-0.983643	-0.536621	-0.891357	-0.470019	-0.132480	0.249726	-0.836163	-19.230847	-27.148666	126.002834	-0.523062	0.719858	0.456301	-0.852192	-0.433438	-0.293086	-0.013202	-0.542158	0.840173	0	0	0
13569	0	0	0	0	0	4.499056	-2.865754	8.260870	0.002010	0.001430	0.003826	-0.978271	-0.535645	-0.901123	-0.470036	-0.132481	0.249721	-0.836155	-19.229716	-27.148975	126.000413	-0.523030	0.719878	0.456306	-0.852212	-0.433411	-0.293069	-0.013206	-0.542153	0.840176	0	0	0
13570	0	0	0	0	0	4.476465	-2.875211	8.264047	0.004095	0.002423	0.005895	-0.987793	-0.523682	-0.897949	-0.470030	-0.132482	0.249707	-0.836162	-19.228237	-27.148118	126.000974	-0.523041	0.719879	0.456292	-0.852205	-0.433437	-0.293049	-0.013186	-0.542132	0.840190	0	0	0
13571	0	0	0	0	0	4.498484	-2.865642	8.261220	0.003317	0.000689	0.004254	-0.979004	-0.530029	-0.901367	-0.470039	-0.132488	0.249699	-0.836158	-19.226812	-27.148467	125.999521	-0.523021	0.719890	0.456298	-0.852218	-0.433428	-0.293028	-0.013175	-0.542125	0.840195	0	0	0
13572	0	0	0	0	0	4.476091	-2.875169	8.264265	0.000304	-0.001164	0.004056	-0.984619	-0.527100	-0.895264	-0.470038	-0.132497	0.249708	-0.836155	-19.227343	-27.149897	125.999723	-0.523017	0.719879	0.456320	-0.852220	-0.433420	-0.293032	-0.013169	-0.542146	0.840181	0	0	0
13573	0	0	0	0	0	4.498122	-2.865809	8.261359	0.002712	0.003602	0.007224	-0.989502	-0.529785	-0.900391	-0.470033	-0.132486	0.249697	-0.836162	-19.226830	-27.148108	126.000272	-0.523032	0.719885	0.456292	-0.852211	-0.433440	-0.293029	-0.013172	-0.542121	0.840197	0	0	0
13574	0	0	0	0	0	4.497790	-2.865739	8.261564	0.003013	0.001853	0.000199	-0.982422	-0.529785	-0.894287	-0.470051	-0.132494	0.249685	-0.836155	-19.224446	-27.148634	125.997490	-0.522995	0.719907	0.456300	-0.852234	-0.433419	-0.292993	-0.013158	-0.542108	0.840206	0	0	0
13575	0	0	0	0	0	4.519815	-2.856143	8.258747	0.001555	0.003469	0.003283	-0.986328	-0.522461	-0.895996	-0.470051	-0.132491	0.249675	-0.836158	-19.223500	-27.147817	125.997269	-0.522996	0.719914	0.456288	-0.852234	-0.433428	-0.292981	-0.013153	-0.542092	0.840217	0	0	0
13576	0	0	0	0	0	4.497284	-2.865554	8.261904	0.003392	0.000252	0.002499	-0.985107	-0.527344	-0.896729	-0.470057	-0.132504	0.249667	-0.836155	-19.221691	-27.148776	125.996224	-0.522978	0.719918	0.456303	-0.852245	-0.433426	-0.292952	-0.013128	-0.542089	0.840219	0	0	0
13577	0	0	0	0	0	4.495112	-2.854087	8.283512	0.001934	0.001868	0.005583	-0.990967	-0.524658	-0.894043	-0.470019	-0.132512	0.249658	-0.836178	-19.221563	-27.148348	126.001377	-0.523045	0.719873	0.456296	-0.852205	-0.433506	-0.292951	-0.013081	-0.542084	0.840222	0	0	0
13578	0	0	0	0	0	4.517128	-2.844571	8.280672	0.002938	0.002290	0.001955	-0.978271	-0.534668	-0.895020	-0.470030	-0.132516	0.249646	-0.836175	-19.219667	-27.148306	125.999570	-0.523023	0.719890	0.456295	-0.852219	-0.433497	-0.292923	-0.013070	-0.542069	0.840232	0	0	0
13579	0	0	0	0	0	4.498490	-2.876882	8.240871	0.001934	0.001868	0.005583	-0.979248	-0.526855	-0.893799	-0.470013	-0.132520	0.249640	-0.836185	-19.219244	-27.147986	126.001790	-0.523052	0.719872	0.456290	-0.852201	-0.433535	-0.292918	-0.013046	-0.542062	0.840237	0	0	0
13580	0	0	0	0	0	4.494401	-2.854022	8.283920	0.002539	-0.001046	0.002614	-0.975342	-0.532715	-0.904541	-0.470018	-0.132536	0.249638	-0.836181	-19.218082	-27.149624	126.001091	-0.523036	0.719868	0.456316	-0.852211	-0.433529	-0.292897	-0.013021	-0.542073	0.840231	0	0	0
13581	0	0	0	0	0	4.483661	-2.894229	8.276758	0.002863	0.002727	0.003712	-0.989502	-0.532715	-0.898926	-0.470053	-0.132525	0.249629	-0.836165	-19.216477	-27.148848	125.995907	-0.522974	0.719920	0.456304	-0.852249	-0.433470	-0.292875	-0.013053	-0.542050	0.840245	0	0	0
13582	0	0	0	0	0	4.486219	-2.846124	8.251435	-0.001079	0.000015	0.005384	-0.989014	-0.532471	-0.898926	-0.470050	-0.132524	0.249642	-0.836164	-19.218055	-27.149390	125.996667	-0.522981	0.719910	0.456312	-0.852244	-0.433464	-0.292897	-0.013064	-0.542069	0.840233	0	0	0
13583	0	0	0	0	0	4.485958	-2.846252	8.251533	0.004095	0.002423	0.005897	-0.983643	-0.529297	-0.895996	-0.470043	-0.132527	0.249627	-0.836172	-19.216410	-27.148710	125.997367	-0.522993	0.719908	0.456302	-0.852237	-0.433493	-0.292874	-0.013039	-0.542048	0.840246	0	0	0
13584	0	0	0	0	0	4.493517	-2.854285	8.284309	-0.001004	-0.000422	0.003628	-0.982178	-0.525635	-0.899658	-0.470046	-0.132531	0.249639	-0.836166	-19.217499	-27.149820	125.997152	-0.522985	0.719903	0.456319	-0.852242	-0.433475	-0.292888	-0.013048	-0.542070	0.840232	0	0	0
13585	0	0	0	0	0	4.493353	-2.854536	8.284311	-0.000226	0.001313	0.005269	-0.982422	-0.524658	-0.900391	-0.470038	-0.132528	0.249644	-0.836169	-19.218422	-27.149667	125.998313	-0.523000	0.719893	0.456316	-0.852232	-0.433484	-0.292901	-0.013052	-0.542075	0.840229	0	0	0
13586	0	0	0	0	0	4.493146	-2.854829	8.284322	-0.001079	0.000016	0.005384	-0.980225	-0.520508	-0.902344	-0.470035	-0.132528	0.249656	-0.836167	-19.219999	-27.150209	125.999074	-0.523007	0.719883	0.456325	-0.852228	-0.433478	-0.292923	-0.013063	-0.542094	0.840216	0	0	0
13587	0	0	0	0	0	4.485050	-2.847177	8.251707	0.001784	0.002743	0.009097	-0.988525	-0.532227	-0.893555	-0.470009	-0.132517	0.249652	-0.836184	-19.220969	-27.148326	126.002669	-0.523061	0.719862	0.456296	-0.852195	-0.433530	-0.292942	-0.013060	-0.542080	0.840226	0	0	0
13588	0	0	0	0	0	4.502159	-2.874728	8.295744	-0.000604	0.002914	0.002969	-0.989258	-0.531982	-0.898438	-0.470019	-0.132509	0.249655	-0.836180	-19.221324	-27.147755	126.001347	-0.523048	0.719878	0.456287	-0.852203	-0.433510	-0.292949	-0.013083	-0.542075	0.840228	0	0	0
13589	0	0	0	0	0	4.484436	-2.847407	8.251961	0.003393	0.000251	0.002499	-0.981445	-0.529297	-0.896729	-0.470012	-0.132528	0.249643	-0.836184	-19.219314	-27.148986	126.001973	-0.523050	0.719864	0.456306	-0.852203	-0.433533	-0.292916	-0.013036	-0.542075	0.840229	0	0	0
13590	0	0	0	0	0	4.492015	-2.855396	8.284740	0.001006	0.001009	0.007455	-0.981934	-0.532715	-0.895508	-0.470000	-0.132525	0.249646	-0.836190	-19.220175	-27.148600	126.003782	-0.523074	0.719850	0.456300	-0.852187	-0.433553	-0.292930	-0.013035	-0.542077	0.840228	0	0	0
13591	0	0	0	0	0	4.495738	-2.878556	8.241788	-0.002311	0.000320	0.003199	-0.989014	-0.525635	-0.898682	-0.470017	-0.132521	0.249662	-0.836176	-19.221576	-27.149462	126.001722	-0.523044	0.719863	0.456313	-0.852205	-0.433506	-0.292948	-0.013068	-0.542097	0.840214	0	0	0
13592	0	0	0	0	0	4.493633	-2.867329	8.263274	0.002389	-0.000171	0.006128	-0.977783	-0.525391	-0.898682	-0.470008	-0.132529	0.249661	-0.836181	-19.221390	-27.149964	126.002974	-0.523058	0.719848	0.456321	-0.852197	-0.433524	-0.292944	-0.013049	-0.542102	0.840211	0	0	0
13593	0	0	0	0	0	4.513879	-2.846419	8.281809	0.003771	-0.001350	0.004800	-0.987793	-0.526855	-0.901123	-0.469991	-0.132548	0.249655	-0.836189	-19.220259	-27.151298	126.005125	-0.523078	0.719820	0.456342	-0.852185	-0.433561	-0.292924	-0.013001	-0.542110	0.840207	0	0	0
13594	0	0	0	0	0	4.493516	-2.867351	8.263330	0.000303	-0.001163	0.004057	-0.986572	-0.534912	-0.902100	-0.469991	-0.132557	0.249663	-0.836185	-19.220790	-27.152727	126.005329	-0.523074	0.719809	0.456364	-0.852188	-0.433553	-0.292928	-0.012994	-0.542131	0.840193	0	0	0
13595	0	0	0	0	0	4.515710	-2.858002	8.260349	0.003621	-0.000475	0.008314	-0.984619	-0.527832	-0.901855	-0.469980	-0.132564	0.249660	-0.836191	-19.220449	-27.152991	126.006783	-0.523091	0.719794	0.456368	-0.852178	-0.433577	-0.292923	-0.012973	-0.542132	0.840193	0	0	0
13596	0	0	0	0	0	4.485422	-2.859560	8.230763	0.002011	0.001430	0.003828	-0.980225	-0.528809	-0.898438	-0.469983	-0.132566	0.249655	-0.836191	-19.219688	-27.153060	126.006297	-0.523085	0.719798	0.456369	-0.852182	-0.433577	-0.292911	-0.012966	-0.542127	0.840197	0	0	0
13597	0	0	0	0	0	4.505557	-2.838669	8.249353	0.000779	0.001734	0.001642	-0.990234	-0.525879	-0.895508	-0.470007	-0.132564	0.249655	-0.836178	-19.218952	-27.153285	126.002905	-0.523041	0.719828	0.456373	-0.852208	-0.433533	-0.292900	-0.012985	-0.542123	0.840199	0	0	0
13598	0	0	0	0	0	4.492860	-2.867596	8.263602	0.001535	-0.001467	0.006243	-0.975342	-0.527344	-0.895020	-0.469996	-0.132574	0.249660	-0.836180	-19.219413	-27.154467	126.004502	-0.523056	0.719806	0.456391	-0.852200	-0.433547	-0.292903	-0.012967	-0.542141	0.840187	0	0	0
13599	0	0	0	0	0	4.524736	-2.877724	8.271825	-0.000225	0.001313	0.005270	-0.985107	-0.534912	-0.887695	-0.469979	-0.132576	0.249664	-0.836189	-19.220326	-27.154394	126.006989	-0.523087	0.719783	0.456390	-0.852181	-0.433576	-0.292917	-0.012957	-0.542148	0.840183	0	0	0
13600	0	0	0	0	0	4.505019	-2.839212	8.249460	-0.000225	0.001313	0.005270	-0.977295	-0.523926	-0.901123	-0.469977	-0.132572	0.249670	-0.836189	-19.221257	-27.154255	126.007405	-0.523093	0.719780	0.456388	-0.852177	-0.433574	-0.292931	-0.012968	-0.542153	0.840180	0	0	0
13601	0	0	0	0	0	4.495120	-2.820157	8.238232	-0.000701	-0.001584	0.007686	-0.984375	-0.531494	-0.894287	-0.469962	-0.132577	0.249685	-0.836192	-19.223209	-27.155327	126.009782	-0.523118	0.719752	0.456404	-0.852162	-0.433586	-0.292957	-0.012966	-0.542181	0.840162	0	0	0
13602	0	0	0	0	0	4.501818	-2.888101	8.274840	-0.000225	0.001313	0.005271	-0.987305	-0.536377	-0.905029	-0.469960	-0.132573	0.249691	-0.836192	-19.224140	-27.155188	126.010199	-0.523124	0.719749	0.456402	-0.852158	-0.433584	-0.292971	-0.012977	-0.542187	0.840158	0	0	0
13603	0	0	0	0	0	4.499564	-2.877043	8.296349	-0.001229	0.000893	0.008900	-0.985107	-0.529541	-0.894775	-0.469963	-0.132560	0.249706	-0.836188	-19.226396	-27.154683	126.010132	-0.523125	0.719753	0.456394	-0.852156	-0.433564	-0.293005	-0.013015	-0.542198	0.840150	0	0	0
13604	0	0	0	0	0	4.515856	-2.871370	8.239190	-0.000075	0.000438	0.001757	-0.979248	-0.530029	-0.890381	-0.469974	-0.132564	0.249711	-0.836179	-19.226351	-27.155681	126.008597	-0.523102	0.719760	0.456410	-0.852171	-0.433537	-0.293002	-0.013021	-0.542209	0.840143	0	0	0
13605	0	0	0	0	0	4.493235	-2.881041	8.242285	0.000479	0.003486	0.008670	-0.980957	-0.529541	-0.894287	-0.469953	-0.132553	0.249708	-0.836194	-19.227376	-27.153917	126.011653	-0.523148	0.719744	0.456382	-0.852142	-0.433580	-0.293022	-0.013022	-0.542196	0.840151	0	0	0
13606	0	0	0	0	0	4.488837	-2.858395	8.285429	0.000252	0.004211	0.002855	-0.988281	-0.533447	-0.894287	-0.469964	-0.132541	0.249704	-0.836191	-19.227083	-27.152666	126.009986	-0.523133	0.719767	0.456363	-0.852151	-0.433563	-0.293021	-0.013044	-0.542179	0.840162	0	0	0
13607	0	0	0	0	0	4.500964	-2.829786	8.271393	-0.000752	0.003790	0.006484	-0.988770	-0.540771	-0.895752	-0.469957	-0.132528	0.249705	-0.836196	-19.228151	-27.151173	126.011100	-0.523154	0.719767	0.456340	-0.852138	-0.433576	-0.293040	-0.013062	-0.542170	0.840167	0	0	0
13608	0	0	0	0	0	4.489898	-2.870329	8.264263	0.000629	0.002610	0.005157	-0.981201	-0.524414	-0.897949	-0.469956	-0.132521	0.249704	-0.836198	-19.228435	-27.150354	126.011172	-0.523159	0.719771	0.456327	-0.852135	-0.433578	-0.293047	-0.013073	-0.542162	0.840172	0	0	0
13609	0	0	0	0	0	4.509938	-2.849534	8.282885	0.003243	0.001125	0.006015	-0.985107	-0.535889	-0.900391	-0.469956	-0.132525	0.249696	-0.836200	-19.227325	-27.150327	126.010966	-0.523156	0.719773	0.456327	-0.852137	-0.433585	-0.293030	-0.013059	-0.542153	0.840178	0	0	0
13610	0	0	0	0	0	4.489285	-2.870386	8.264577	0.002865	0.002726	0.003714	-0.989502	-0.525391	-0.898926	-0.469961	-0.132524	0.249685	-0.836201	-19.225916	-27.149717	126.010136	-0.523149	0.719785	0.456317	-0.852141	-0.433589	-0.293011	-0.013051	-0.542135	0.840190	0	0	0
13611	0	0	0	0	0	4.479358	-2.850877	8.253521	0.003393	0.000250	0.002501	-0.988525	-0.529785	-0.897949	-0.469967	-0.132537	0.249676	-0.836198	-19.224007	-27.150753	126.008970	-0.523129	0.719789	0.456333	-0.852154	-0.433585	-0.292981	-0.013025	-0.542133	0.840192	0	0	0
13612	0	0	0	0	0	4.488897	-2.870310	8.264814	-0.000225	0.001314	0.005272	-0.991699	-0.529053	-0.901611	-0.469965	-0.132533	0.249682	-0.836198	-19.224938	-27.150614	126.009386	-0.523135	0.719786	0.456331	-0.852150	-0.433583	-0.292995	-0.013036	-0.542138	0.840188	0	0	0
13613	0	0	0	0	0	4.493495	-2.833531	8.218045	0.005479	0.001242	0.004573	-0.988770	-0.531494	-0.896973	-0.469948	-0.132549	0.249662	-0.836211	-19.222420	-27.150766	126.011365	-0.523159	0.719767	0.456333	-0.852136	-0.433636	-0.292957	-0.012978	-0.542122	0.840200	0	0	0
13614	0	0	0	0	0	4.488438	-2.870195	8.265103	0.000779	0.001734	0.001642	-0.983154	-0.531494	-0.885498	-0.469961	-0.132550	0.249660	-0.836204	-19.221728	-27.151084	126.009486	-0.523134	0.719782	0.456338	-0.852151	-0.433613	-0.292946	-0.012983	-0.542120	0.840201	0	0	0
13615	0	0	0	0	0	4.521180	-2.820566	8.269462	0.002314	0.000267	0.007888	-0.979004	-0.532227	-0.896484	-0.469925	-0.132563	0.249655	-0.836223	-19.221753	-27.151365	126.014385	-0.523194	0.719735	0.456343	-0.852115	-0.433685	-0.292946	-0.012935	-0.542124	0.840199	0	0	0
13616	0	0	0	0	0	4.480262	-2.862579	8.232524	-0.001079	0.000018	0.005387	-0.975586	-0.518066	-0.891602	-0.469922	-0.132562	0.249668	-0.836222	-19.223330	-27.151905	126.015146	-0.523201	0.719725	0.456351	-0.852111	-0.433679	-0.292968	-0.012946	-0.542143	0.840187	0	0	0
13617	0	0	0	0	0	4.512103	-2.872780	8.240755	0.001082	0.000572	0.005701	-0.987793	-0.520508	-0.898682	-0.469918	-0.132563	0.249670	-0.836223	-19.223664	-27.152031	126.015792	-0.523209	0.719718	0.456353	-0.852106	-0.433685	-0.292972	-0.012944	-0.542147	0.840184	0	0	0
13618	0	0	0	0	0	4.519644	-2.880898	8.273504	0.001082	0.000572	0.005701	-0.985596	-0.532227	-0.899414	-0.469912	-0.132565	0.249672	-0.836225	-19.224037	-27.152213	126.016627	-0.523219	0.719709	0.456356	-0.852100	-0.433693	-0.292977	-0.012940	-0.542152	0.840181	0	0	0
13619	0	0	0	0	0	4.509656	-2.861634	8.262398	0.003168	0.001564	0.007774	-0.982910	-0.536621	-0.892090	-0.469884	-0.132568	0.249664	-0.836243	-19.223793	-27.151482	126.020440	-0.523270	0.719679	0.456345	-0.852069	-0.433755	-0.292975	-0.012907	-0.542142	0.840187	0	0	0
13620	0	0	0	0	0	4.487120	-2.871155	8.265485	-0.000075	0.000438	0.001757	-0.981445	-0.530273	-0.897461	-0.469895	-0.132573	0.249668	-0.836235	-19.223748	-27.152479	126.018906	-0.523246	0.719687	0.456360	-0.852084	-0.433728	-0.292972	-0.012912	-0.542154	0.840180	0	0	0
13621	0	0	0	0	0	4.486912	-2.871448	8.265496	-0.001229	0.000895	0.008902	-0.991455	-0.532715	-0.894531	-0.469893	-0.132562	0.249682	-0.836234	-19.225913	-27.152040	126.019509	-0.523256	0.719684	0.456353	-0.852077	-0.433719	-0.293005	-0.012942	-0.542165	0.840172	0	0	0
13622	0	0	0	0	0	4.499317	-2.842789	8.251340	0.003393	0.000249	0.002502	-0.981934	-0.536377	-0.896240	-0.469899	-0.132574	0.249673	-0.836231	-19.224105	-27.153000	126.018467	-0.523238	0.719687	0.456368	-0.852089	-0.433716	-0.292976	-0.012917	-0.542162	0.840174	0	0	0
13623	0	0	0	0	0	4.508723	-2.862276	8.262685	-0.000751	0.003792	0.006486	-0.991211	-0.531006	-0.894043	-0.469899	-0.132560	0.249675	-0.836233	-19.225070	-27.151547	126.018602	-0.523247	0.719696	0.456346	-0.852083	-0.433715	-0.292994	-0.012942	-0.542152	0.840180	0	0	0
13624	0	0	0	0	0	4.508393	-2.862493	8.262790	0.002389	-0.000171	0.006132	-0.985596	-0.522949	-0.894043	-0.469889	-0.132567	0.249674	-0.836237	-19.224885	-27.152049	126.019856	-0.523260	0.719681	0.456353	-0.852075	-0.433734	-0.292990	-0.012924	-0.542157	0.840178	0	0	0
13625	0	0	0	0	0	4.485740	-2.872011	8.265936	0.002717	0.003603	0.007230	-0.988525	-0.540039	-0.900391	-0.469846	-0.132570	0.249659	-0.836266	-19.224478	-27.150531	126.025670	-0.523340	0.719638	0.456330	-0.852027	-0.433830	-0.292988	-0.012876	-0.542138	0.840191	0	0	0
13626	0	0	0	0	0	4.507719	-2.862593	8.263124	0.003318	0.000687	0.004260	-0.984619	-0.532227	-0.901123	-0.469845	-0.132578	0.249651	-0.836267	-19.223159	-27.150922	126.025604	-0.523337	0.719636	0.456336	-0.852029	-0.433840	-0.292968	-0.012853	-0.542132	0.840195	0	0	0
13627	0	0	0	0	0	4.494847	-2.891419	8.277471	0.001937	0.001868	0.005588	-0.989258	-0.537842	-0.901855	-0.469866	-0.132571	0.249648	-0.836257	-19.222516	-27.150508	126.022552	-0.523301	0.719666	0.456329	-0.852051	-0.433802	-0.292959	-0.012876	-0.542122	0.840201	0	0	0
13628	0	0	0	0	0	4.497403	-2.843175	8.252251	0.003722	0.004022	0.003601	-0.989746	-0.527832	-0.891846	-0.469872	-0.132567	0.249630	-0.836260	-19.220459	-27.149219	126.021379	-0.523292	0.719685	0.456309	-0.852056	-0.433810	-0.292933	-0.012868	-0.542091	0.840222	0	0	0
13629	0	0	0	0	0	4.506851	-2.862576	8.263603	0.001534	-0.001466	0.006247	-0.990234	-0.531982	-0.905518	-0.469852	-0.132583	0.249634	-0.836268	-19.220715	-27.150636	126.024189	-0.523321	0.719650	0.456331	-0.852039	-0.433843	-0.292933	-0.012833	-0.542110	0.840210	0	0	0
13630	0	0	0	0	0	4.506722	-2.862691	8.263633	0.003620	-0.000475	0.008320	-0.983643	-0.528564	-0.891602	-0.469833	-0.132592	0.249630	-0.836278	-19.220461	-27.150890	126.026839	-0.523353	0.719625	0.456335	-0.852020	-0.433884	-0.292928	-0.012802	-0.542112	0.840209	0	0	0
13631	0	0	0	0	0	4.496827	-2.843416	8.252482	0.001082	0.000573	0.005703	-0.982422	-0.531494	-0.903076	-0.469826	-0.132595	0.249631	-0.836282	-19.220741	-27.151149	126.027904	-0.523365	0.719613	0.456339	-0.852012	-0.433896	-0.292932	-0.012794	-0.542117	0.840206	0	0	0
13632	0	0	0	0	0	4.483888	-2.872403	8.266805	0.001863	0.002307	0.007346	-0.987061	-0.533203	-0.901611	-0.469815	-0.132589	0.249628	-0.836290	-19.220955	-27.150081	126.029372	-0.523389	0.719607	0.456323	-0.851998	-0.433920	-0.292938	-0.012792	-0.542106	0.840213	0	0	0
13633	0	0	0	0	0	4.498166	-2.855210	8.231221	0.001082	0.000573	0.005703	-0.985840	-0.535400	-0.896240	-0.469835	-0.132583	0.249633	-0.836278	-19.221151	-27.150193	126.026677	-0.523354	0.719631	0.456325	-0.852019	-0.433878	-0.292940	-0.012819	-0.542109	0.840211	0	0	0
13634	0	0	0	0	0	4.509472	-2.886275	8.221073	0.000557	0.003050	0.006917	-0.983154	-0.533447	-0.897461	-0.469827	-0.132572	0.249632	-0.836284	-19.221921	-27.148805	126.027725	-0.523374	0.719630	0.456303	-0.852006	-0.433892	-0.292955	-0.012833	-0.542098	0.840217	0	0	0
13635	0	0	0	0	0	4.484747	-2.884504	8.245696	0.000557	0.003050	0.006917	-0.982666	-0.525879	-0.904541	-0.469836	-0.132558	0.249632	-0.836281	-19.222341	-27.147556	126.026572	-0.523365	0.719649	0.456284	-0.852011	-0.433876	-0.292964	-0.012861	-0.542086	0.840224	0	0	0
13636	0	0	0	0	0	4.502872	-2.852361	8.285756	0.002389	-0.000170	0.006134	-0.985840	-0.533203	-0.902832	-0.469827	-0.132565	0.249631	-0.836286	-19.222156	-27.148057	126.027827	-0.523379	0.719634	0.456291	-0.852003	-0.433894	-0.292960	-0.012842	-0.542091	0.840222	0	0	0
13637	0	0	0	0	0	4.502610	-2.852490	8.285854	0.000632	0.002612	0.005159	-0.982422	-0.528320	-0.900146	-0.469847	-0.132550	0.249633	-0.836276	-19.222412	-27.147081	126.024969	-0.523347	0.719666	0.456276	-0.852022	-0.433854	-0.292967	-0.012881	-0.542081	0.840228	0	0	0
13638	0	0	0	0	0	4.474061	-2.865544	8.234865	0.002719	0.003603	0.007232	-0.985596	-0.535156	-0.895996	-0.469838	-0.132541	0.249622	-0.836286	-19.221978	-27.145333	126.026092	-0.523370	0.719667	0.456249	-0.852008	-0.433882	-0.292965	-0.012879	-0.542057	0.840243	0	0	0
13639	0	0	0	0	0	4.503808	-2.864173	8.264708	0.001157	0.000134	0.003946	-0.986084	-0.524658	-0.901367	-0.469851	-0.132545	0.249625	-0.836277	-19.221652	-27.146141	126.024330	-0.523344	0.719678	0.456262	-0.852024	-0.433855	-0.292958	-0.012884	-0.542064	0.840239	0	0	0
13640	0	0	0	0	0	4.525945	-2.854935	8.261761	-0.000224	0.001316	0.005274	-0.988770	-0.527344	-0.897705	-0.469849	-0.132541	0.249631	-0.836277	-19.222582	-27.146000	126.024747	-0.523350	0.719675	0.456259	-0.852020	-0.433853	-0.292972	-0.012895	-0.542069	0.840235	0	0	0
13641	0	0	0	0	0	4.480999	-2.873922	8.267843	0.001938	0.001869	0.005590	-0.991699	-0.531982	-0.896973	-0.469828	-0.132544	0.249625	-0.836290	-19.222437	-27.145510	126.027528	-0.523387	0.719653	0.456252	-0.851998	-0.433898	-0.292971	-0.012871	-0.542063	0.840239	0	0	0
13642	0	0	0	0	0	4.493390	-2.845244	8.253723	0.001082	0.000573	0.005704	-0.980713	-0.527100	-0.900635	-0.469823	-0.132546	0.249627	-0.836292	-19.222810	-27.145690	126.028365	-0.523397	0.719644	0.456255	-0.851992	-0.433906	-0.292976	-0.012867	-0.542068	0.840236	0	0	0
13643	0	0	0	0	0	4.493156	-2.845456	8.253778	-0.000224	0.001317	0.005274	-0.980957	-0.526611	-0.908203	-0.469819	-0.132543	0.249632	-0.836293	-19.223667	-27.145605	126.028953	-0.523404	0.719639	0.456253	-0.851987	-0.433907	-0.292989	-0.012875	-0.542074	0.840232	0	0	0
13644	0	0	0	0	0	4.502555	-2.865238	8.265022	-0.002460	0.001203	0.006717	-0.982910	-0.534180	-0.901367	-0.469813	-0.132532	0.249649	-0.836294	-19.226290	-27.145253	126.030271	-0.523423	0.719630	0.456248	-0.851976	-0.433903	-0.293028	-0.012904	-0.542090	0.840222	0	0	0
13645	0	0	0	0	0	4.500402	-2.854079	8.286506	0.001157	0.000134	0.003946	-0.986572	-0.532959	-0.904053	-0.469849	-0.132526	0.249655	-0.836272	-19.226076	-27.145785	126.025248	-0.523357	0.719672	0.456256	-0.852015	-0.433828	-0.293024	-0.012944	-0.542093	0.840219	0	0	0
13646	0	0	0	0	0	4.500143	-2.854335	8.286559	-0.001604	0.002499	0.006603	-0.980957	-0.527100	-0.902100	-0.469844	-0.132512	0.249664	-0.836274	-19.228051	-27.144753	126.026222	-0.523374	0.719670	0.456240	-0.852004	-0.433828	-0.293056	-0.012973	-0.542096	0.840216	0	0	0
13647	0	0	0	0	0	4.503795	-2.877454	8.243668	0.002463	-0.000609	0.004377	-0.985840	-0.535889	-0.909668	-0.469863	-0.132517	0.249665	-0.836263	-19.227298	-27.145704	126.023542	-0.523336	0.719688	0.456255	-0.852028	-0.433792	-0.293042	-0.012979	-0.542101	0.840213	0	0	0
13648	0	0	0	0	0	4.481294	-2.886976	8.246708	-0.000223	0.001317	0.005275	-0.989990	-0.532227	-0.896729	-0.469861	-0.132513	0.249671	-0.836263	-19.228228	-27.145563	126.023959	-0.523342	0.719685	0.456253	-0.852024	-0.433790	-0.293056	-0.012990	-0.542107	0.840209	0	0	0
13649	0	0	0	0	0	4.499402	-2.854806	8.286799	0.002794	0.003164	0.005476	-0.990234	-0.528564	-0.903076	-0.469882	-0.132502	0.249662	-0.836255	-19.227090	-27.144409	126.020910	-0.523309	0.719720	0.456235	-0.852044	-0.433760	-0.293042	-0.013012	-0.542084	0.840224	0	0	0
13650	0	0	0	0	0	4.478662	-2.875711	8.268488	0.000707	0.002173	0.003402	-0.986816	-0.526123	-0.899658	-0.469888	-0.132499	0.249661	-0.836253	-19.226885	-27.144158	126.020007	-0.523299	0.719730	0.456231	-0.852050	-0.433750	-0.293040	-0.013020	-0.542079	0.840227	0	0	0
13651	0	0	0	0	0	4.498813	-2.855118	8.287011	-0.002385	0.000765	0.004959	-0.987793	-0.532227	-0.898682	-0.469877	-0.132496	0.249676	-0.836255	-19.229106	-27.144385	126.021853	-0.523321	0.719712	0.456234	-0.852036	-0.433755	-0.293072	-0.013033	-0.542099	0.840214	0	0	0
13652	0	0	0	0	0	4.488916	-2.836050	8.275794	-0.000223	0.001317	0.005275	-0.981689	-0.528564	-0.896240	-0.469875	-0.132492	0.249682	-0.836255	-19.230036	-27.144243	126.022270	-0.523327	0.719709	0.456232	-0.852032	-0.433753	-0.293086	-0.013045	-0.542104	0.840210	0	0	0
13653	0	0	0	0	0	4.479937	-2.887927	8.247112	0.001157	0.000134	0.003947	-0.994629	-0.531982	-0.899658	-0.469878	-0.132499	0.249683	-0.836252	-19.229758	-27.145088	126.021913	-0.523318	0.719707	0.456245	-0.852038	-0.433747	-0.293080	-0.013037	-0.542112	0.840205	0	0	0
13654	0	0	0	0	0	4.509733	-2.886743	8.276874	-0.001604	0.002500	0.006604	-0.989502	-0.533691	-0.899902	-0.469872	-0.132485	0.249693	-0.836254	-19.231733	-27.144055	126.022886	-0.523335	0.719705	0.456229	-0.852027	-0.433747	-0.293111	-0.013066	-0.542115	0.840203	0	0	0
13655	0	0	0	0	0	4.477361	-2.876825	8.268805	0.003799	0.003582	0.001845	-0.991699	-0.533936	-0.897217	-0.469879	-0.132489	0.249673	-0.836256	-19.229036	-27.143549	126.021507	-0.523320	0.719721	0.456221	-0.852036	-0.433754	-0.293073	-0.013043	-0.542088	0.840220	0	0	0
13656	0	0	0	0	0	4.491795	-2.859447	8.233229	0.000301	-0.001161	0.004062	-0.985107	-0.533691	-0.901367	-0.469879	-0.132498	0.249682	-0.836252	-19.229569	-27.144977	126.021712	-0.523316	0.719710	0.456244	-0.852039	-0.433746	-0.293077	-0.013037	-0.542109	0.840207	0	0	0
13657	0	0	0	0	0	4.499389	-2.867481	8.265968	0.002013	0.001430	0.003833	-0.987061	-0.530273	-0.904541	-0.469889	-0.132500	0.249677	-0.836247	-19.228557	-27.145206	126.020133	-0.523295	0.719722	0.456247	-0.852052	-0.433731	-0.293062	-0.013035	-0.542104	0.840210	0	0	0
13658	0	0	0	0	0	4.501179	-2.878937	8.244579	0.002463	-0.000609	0.004378	-0.989258	-0.529053	-0.899414	-0.469887	-0.132512	0.249675	-0.836247	-19.227885	-27.146275	126.020413	-0.523294	0.719713	0.456264	-0.852053	-0.433737	-0.293049	-0.013013	-0.542112	0.840206	0	0	0
13659	0	0	0	0	0	4.497145	-2.856023	8.287605	0.002013	0.001430	0.003833	-0.988281	-0.527344	-0.902100	-0.469891	-0.132514	0.249671	-0.836246	-19.227103	-27.146355	126.019750	-0.523285	0.719719	0.456265	-0.852058	-0.433735	-0.293037	-0.013007	-0.542107	0.840209	0	0	0
13660	0	0	0	0	0	4.491190	-2.859447	8.233559	0.004625	-0.000058	0.004694	-0.985107	-0.528809	-0.894531	-0.469886	-0.132528	0.249659	-0.836250	-19.225227	-27.147067	126.020105	-0.523286	0.719711	0.456276	-0.852058	-0.433755	-0.293008	-0.012969	-0.542101	0.840213	0	0	0
13661	0	0	0	0	0	4.496824	-2.856019	8.287780	-0.001079	0.000022	0.005390	-0.986328	-0.524658	-0.906250	-0.469872	-0.132531	0.249670	-0.836254	-19.226793	-27.147678	126.022383	-0.523312	0.719686	0.456286	-0.852042	-0.433771	-0.293029	-0.012966	-0.542121	0.840201	0	0	0
13662	0	0	0	0	0	4.498590	-2.867648	8.266345	0.000782	0.001735	0.001644	-0.987061	-0.530029	-0.902100	-0.469885	-0.132533	0.249668	-0.836247	-19.226099	-27.147996	126.020503	-0.523287	0.719701	0.456290	-0.852058	-0.433748	-0.293018	-0.012970	-0.542119	0.840202	0	0	0
13663	0	0	0	0	0	4.477973	-2.888702	8.247907	-0.001154	0.000461	0.007149	-0.982666	-0.532715	-0.898926	-0.469879	-0.132525	0.249682	-0.836247	-19.228259	-27.147841	126.021613	-0.523302	0.719692	0.456288	-0.852048	-0.433745	-0.293051	-0.012993	-0.542133	0.840192	0	0	0
13664	0	0	0	0	0	4.488417	-2.848750	8.255220	0.000633	0.002613	0.005161	-0.995117	-0.531494	-0.899658	-0.469879	-0.132518	0.249681	-0.836249	-19.228541	-27.147019	126.021686	-0.523306	0.719697	0.456275	-0.852045	-0.433747	-0.293057	-0.013004	-0.542126	0.840197	0	0	0
13665	0	0	0	0	0	4.510420	-2.839505	8.252369	0.001939	0.001869	0.005592	-0.989990	-0.526855	-0.896484	-0.469874	-0.132518	0.249676	-0.836253	-19.228100	-27.146667	126.022201	-0.523315	0.719694	0.456270	-0.852040	-0.433760	-0.293051	-0.012996	-0.542118	0.840202	0	0	0
13666	0	0	0	0	0	4.467354	-2.869734	8.237047	0.002870	0.002725	0.003719	-0.984375	-0.529541	-0.905762	-0.469878	-0.132517	0.249665	-0.836254	-19.226690	-27.146057	126.021373	-0.523307	0.719706	0.456260	-0.852045	-0.433764	-0.293032	-0.012988	-0.542100	0.840213	0	0	0
13667	0	0	0	0	0	4.497179	-2.868312	8.266882	0.001157	0.000135	0.003948	-0.983398	-0.525146	-0.906006	-0.469876	-0.132524	0.249666	-0.836254	-19.226592	-27.146806	126.021678	-0.523307	0.719698	0.456272	-0.852045	-0.433766	-0.293029	-0.012977	-0.542108	0.840208	0	0	0
13668	0	0	0	0	0	4.519188	-2.859025	8.264045	0.003953	0.003299	0.009426	-0.985840	-0.522949	-0.906738	-0.469857	-0.132516	0.249653	-0.836270	-19.226089	-27.144809	126.024198	-0.523348	0.719688	0.456241	-0.852020	-0.433817	-0.293027	-0.012963	-0.542082	0.840226	0	0	0
13669	0	0	0	0	0	4.464434	-2.858254	8.259054	0.005106	0.002837	0.002276	-0.987549	-0.526367	-0.896973	-0.469872	-0.132517	0.249632	-0.836267	-19.223229	-27.144134	126.021557	-0.523318	0.719716	0.456230	-0.852039	-0.433807	-0.292986	-0.012951	-0.542051	0.840246	0	0	0
13670	0	0	0	0	0	4.486615	-2.848672	8.256226	0.003768	-0.001353	0.004810	-0.984375	-0.530029	-0.899902	-0.469866	-0.132534	0.249628	-0.836269	-19.222001	-27.145525	126.022257	-0.523321	0.719701	0.456252	-0.852038	-0.433824	-0.292965	-0.012914	-0.542059	0.840241	0	0	0
13671	0	0	0	0	0	4.497976	-2.879506	8.246128	0.002796	0.003165	0.005478	-0.991211	-0.534668	-0.904297	-0.469856	-0.132532	0.249615	-0.836279	-19.221039	-27.144411	126.023439	-0.523341	0.719697	0.456235	-0.852026	-0.433855	-0.292954	-0.012898	-0.542038	0.840255	0	0	0
13672	0	0	0	0	0	4.516095	-2.847135	8.286292	0.004176	0.001981	0.004150	-0.988281	-0.535156	-0.899414	-0.469857	-0.132537	0.249600	-0.836282	-19.219073	-27.144122	126.023031	-0.523337	0.719703	0.456230	-0.852029	-0.433869	-0.292926	-0.012875	-0.542020	0.840267	0	0	0
13673	0	0	0	0	0	4.474973	-2.888692	8.249539	0.002870	0.002725	0.003719	-0.986084	-0.531006	-0.896240	-0.469875	-0.132535	0.249590	-0.836276	-19.217402	-27.143640	126.020295	-0.523305	0.719731	0.456223	-0.852048	-0.433846	-0.292902	-0.012881	-0.542001	0.840279	0	0	0
13674	0	0	0	0	0	4.485502	-2.848371	8.256935	0.002088	0.000991	0.002075	-0.984131	-0.528076	-0.897949	-0.469884	-0.132541	0.249584	-0.836271	-19.216152	-27.144278	126.018836	-0.523284	0.719740	0.456233	-0.852061	-0.433833	-0.292882	-0.012870	-0.541999	0.840281	0	0	0
13675	0	0	0	0	0	4.485394	-2.848327	8.257008	0.002463	-0.000609	0.004379	-0.984131	-0.529297	-0.904785	-0.469877	-0.132556	0.249582	-0.836274	-19.215357	-27.145453	126.019716	-0.523289	0.719725	0.456251	-0.852058	-0.433849	-0.292868	-0.012840	-0.542007	0.840276	0	0	0
13676	0	0	0	0	0	4.485140	-2.848251	8.257173	0.003727	0.004020	0.003605	-0.984619	-0.531738	-0.896729	-0.469883	-0.132552	0.249564	-0.836276	-19.213299	-27.144163	126.018545	-0.523280	0.719744	0.456231	-0.852064	-0.433856	-0.292841	-0.012832	-0.541976	0.840296	0	0	0
13677	0	0	0	0	0	4.492458	-2.856086	8.290124	0.002870	0.002725	0.003720	-0.984863	-0.529785	-0.898682	-0.469900	-0.132548	0.249553	-0.836271	-19.211758	-27.143537	126.015958	-0.523251	0.719771	0.456221	-0.852082	-0.433835	-0.292820	-0.012839	-0.541956	0.840309	0	0	0
13678	0	0	0	0	0	4.494097	-2.867520	8.268833	0.003245	0.001126	0.006024	-0.991455	-0.530762	-0.906250	-0.469892	-0.132552	0.249545	-0.836277	-19.210928	-27.143357	126.016871	-0.523263	0.719764	0.456218	-0.852075	-0.433857	-0.292808	-0.012819	-0.541948	0.840314	0	0	0
13679	0	0	0	0	0	4.508447	-2.850180	8.233313	0.002871	0.002725	0.003720	-0.979980	-0.530518	-0.907715	-0.469900	-0.132550	0.249534	-0.836276	-19.209472	-27.142757	126.015513	-0.523249	0.719780	0.456209	-0.852084	-0.433853	-0.292788	-0.012816	-0.541929	0.840326	0	0	0
13680	0	0	0	0	0	4.485725	-2.859517	8.236513	0.002796	0.003165	0.005479	-0.984863	-0.529785	-0.896729	-0.469897	-0.132545	0.249523	-0.836281	-19.208551	-27.141577	126.015662	-0.523256	0.719787	0.456191	-0.852079	-0.433869	-0.292778	-0.012811	-0.541908	0.840340	0	0	0
13681	0	0	0	0	0	4.493080	-2.867467	8.269404	0.003245	0.001126	0.006025	-0.990479	-0.523682	-0.901855	-0.469911	-0.132542	0.249518	-0.836275	-19.207602	-27.141289	126.013588	-0.523232	0.719807	0.456186	-0.852094	-0.433848	-0.292765	-0.012819	-0.541897	0.840347	0	0	0
13682	0	0	0	0	0	4.492781	-2.867433	8.269578	0.002871	0.002725	0.003720	-0.991943	-0.526855	-0.901855	-0.469916	-0.132542	0.249506	-0.836277	-19.206192	-27.140678	126.012761	-0.523224	0.719819	0.456177	-0.852099	-0.433852	-0.292746	-0.012811	-0.541879	0.840359	0	0	0
13683	0	0	0	0	0	4.475114	-2.839931	8.225861	0.003802	0.003581	0.001847	-0.978027	-0.520264	-0.898438	-0.469901	-0.132550	0.249485	-0.836290	-19.203872	-27.139992	126.014405	-0.523248	0.719808	0.456166	-0.852085	-0.433901	-0.292713	-0.012767	-0.541854	0.840376	0	0	0
13684	0	0	0	0	0	4.504816	-2.838234	8.255866	0.006339	0.002532	0.004468	-0.998291	-0.534180	-0.900146	-0.469899	-0.132557	0.249460	-0.836297	-19.200702	-27.139345	126.014075	-0.523247	0.719816	0.456156	-0.852086	-0.433929	-0.292669	-0.012728	-0.541822	0.840397	0	0	0
13685	0	0	0	0	0	4.504381	-2.838248	8.256098	0.000486	0.003495	0.008681	-0.990723	-0.526611	-0.899658	-0.469868	-0.132547	0.249458	-0.836317	-19.202019	-27.137460	126.018517	-0.523311	0.719787	0.456127	-0.852047	-0.433990	-0.292693	-0.012722	-0.541811	0.840404	0	0	0
13686	0	0	0	0	0	4.468993	-2.876466	8.273456	0.003393	0.000246	0.002507	-0.989014	-0.531250	-0.903809	-0.469873	-0.132559	0.249449	-0.836315	-19.200213	-27.138419	126.017478	-0.523294	0.719790	0.456142	-0.852058	-0.433988	-0.292664	-0.012697	-0.541808	0.840406	0	0	0
13687	0	0	0	0	0	4.513435	-2.857722	8.267639	0.000260	0.004214	0.002858	-0.980713	-0.527588	-0.903809	-0.469875	-0.132551	0.249444	-0.836317	-19.199944	-27.137224	126.017149	-0.523295	0.719801	0.456123	-0.852057	-0.433991	-0.292663	-0.012706	-0.541792	0.840417	0	0	0
13688	0	0	0	0	0	4.513047	-2.857947	8.267773	-0.000297	0.001760	0.007037	-0.988770	-0.530518	-0.905762	-0.469866	-0.132542	0.249450	-0.836321	-19.201363	-27.136510	126.018543	-0.523316	0.719793	0.456112	-0.852044	-0.434001	-0.292686	-0.012720	-0.541795	0.840415	0	0	0
13689	0	0	0	0	0	4.466116	-2.865353	8.295298	0.002014	0.001431	0.003835	-0.980469	-0.525146	-0.905273	-0.469887	-0.132538	0.249447	-0.836311	-19.200591	-27.136430	126.015544	-0.523279	0.719821	0.456111	-0.852066	-0.433964	-0.292675	-0.012738	-0.541787	0.840419	0	0	0
13690	0	0	0	0	0	4.504777	-2.850278	8.235288	0.000634	0.002615	0.005163	-0.987793	-0.537109	-0.898682	-0.469887	-0.132531	0.249446	-0.836312	-19.200874	-27.135607	126.015618	-0.523284	0.719825	0.456098	-0.852063	-0.433966	-0.292681	-0.012748	-0.541780	0.840424	0	0	0
13691	0	0	0	0	0	4.510307	-2.846826	8.289549	0.002462	-0.000609	0.004381	-0.986328	-0.530029	-0.896484	-0.469903	-0.132537	0.249447	-0.836302	-19.200049	-27.136637	126.013374	-0.523251	0.719839	0.456114	-0.852083	-0.433936	-0.292666	-0.012748	-0.541785	0.840420	0	0	0
13692	0	0	0	0	0	4.514084	-2.869944	8.246623	-0.002311	0.000330	0.003201	-0.987793	-0.528564	-0.901611	-0.469909	-0.132535	0.249462	-0.836294	-19.201696	-27.137420	126.012740	-0.523239	0.719840	0.456126	-0.852090	-0.433908	-0.292688	-0.012772	-0.541807	0.840406	0	0	0
13693	0	0	0	0	0	4.481900	-2.860173	8.238368	0.001008	0.001016	0.007469	-0.987549	-0.528320	-0.901123	-0.469889	-0.132536	0.249464	-0.836305	-19.202492	-27.137125	126.015588	-0.523276	0.719816	0.456122	-0.852068	-0.433944	-0.292701	-0.012760	-0.541810	0.840404	0	0	0
13694	0	0	0	0	0	4.479704	-2.848952	8.259882	-0.001454	0.001625	0.003087	-0.990479	-0.535889	-0.902344	-0.469898	-0.132531	0.249472	-0.836299	-19.203491	-27.137229	126.014610	-0.523263	0.719824	0.456123	-0.852075	-0.433919	-0.292715	-0.012783	-0.541818	0.840398	0	0	0
13695	0	0	0	0	0	4.511478	-2.859107	8.268228	0.003319	0.000686	0.004267	-0.985840	-0.527344	-0.896484	-0.469901	-0.132539	0.249464	-0.836298	-19.202032	-27.137711	126.013998	-0.523253	0.719827	0.456131	-0.852082	-0.433922	-0.292692	-0.012763	-0.541813	0.840402	0	0	0
13696	0	0	0	0	0	4.479310	-2.849081	8.260051	0.001083	0.000576	0.005710	-0.987061	-0.525146	-0.905273	-0.469895	-0.132541	0.249466	-0.836300	-19.202406	-27.137888	126.014836	-0.523263	0.719818	0.456133	-0.852076	-0.433930	-0.292697	-0.012759	-0.541818	0.840399	0	0	0
13697	0	0	0	0	0	4.479091	-2.849167	8.260140	0.002014	0.001431	0.003836	-0.984619	-0.527344	-0.899414	-0.469888	-0.132546	0.249461	-0.836305	-19.201736	-27.137939	126.015748	-0.523274	0.719809	0.456134	-0.852069	-0.433950	-0.292687	-0.012740	-0.541814	0.840402	0	0	0
13698	0	0	0	0	0	4.490414	-2.880067	8.250053	0.002014	0.001431	0.003836	-0.984131	-0.524902	-0.898438	-0.469890	-0.132548	0.249456	-0.836305	-19.200974	-27.138007	126.015266	-0.523268	0.719813	0.456135	-0.852073	-0.433950	-0.292676	-0.012732	-0.541809	0.840405	0	0	0
13699	0	0	0	0	0	4.508707	-2.847808	8.290082	0.002388	-0.000169	0.006141	-0.985352	-0.533203	-0.905762	-0.469873	-0.132558	0.249454	-0.836314	-19.200834	-27.138506	126.017711	-0.523296	0.719788	0.456143	-0.852056	-0.433985	-0.292673	-0.012703	-0.541814	0.840402	0	0	0
13700	0	0	0	0	0	4.478594	-2.849207	8.260395	0.002536	-0.001049	0.002623	-0.986572	-0.520752	-0.903076	-0.469877	-0.132574	0.249452	-0.836310	-19.199676	-27.140144	126.017016	-0.523280	0.719784	0.456169	-0.852066	-0.433979	-0.292652	-0.012678	-0.541825	0.840396	0	0	0
13701	0	0	0	0	0	4.504714	-2.862908	8.214521	-0.001453	0.001625	0.003087	-0.986572	-0.531494	-0.895752	-0.469891	-0.132565	0.249462	-0.836300	-19.200765	-27.140117	126.015211	-0.523257	0.719800	0.456168	-0.852080	-0.433942	-0.292668	-0.012712	-0.541832	0.840391	0	0	0
13702	0	0	0	0	0	4.500485	-2.840129	8.257576	0.002724	0.003606	0.007241	-0.989014	-0.530762	-0.900879	-0.469882	-0.132556	0.249451	-0.836310	-19.200332	-27.138366	126.016339	-0.523280	0.719801	0.456141	-0.852066	-0.433970	-0.292666	-0.012710	-0.541808	0.840406	0	0	0
13703	0	0	0	0	0	4.498247	-2.828820	8.279143	0.000225	-0.000718	0.005825	-0.981934	-0.532227	-0.903809	-0.469869	-0.132564	0.249459	-0.836313	-19.201189	-27.139389	126.018298	-0.523300	0.719777	0.456157	-0.852054	-0.433987	-0.292676	-0.012695	-0.541827	0.840394	0	0	0
13704	0	0	0	0	0	4.500041	-2.840508	8.257688	-0.000148	0.000881	0.003519	-0.986816	-0.532227	-0.894043	-0.469874	-0.132565	0.249464	-0.836309	-19.201632	-27.139813	126.017740	-0.523291	0.719779	0.456163	-0.852060	-0.433973	-0.292681	-0.012703	-0.541836	0.840388	0	0	0
13705	0	0	0	0	0	4.529887	-2.839278	8.287465	0.001083	0.000576	0.005710	-0.987793	-0.528809	-0.903564	-0.469880	-0.132564	0.249467	-0.836305	-19.201751	-27.140075	126.016876	-0.523279	0.719785	0.456167	-0.852067	-0.433958	-0.292682	-0.012711	-0.541839	0.840386	0	0	0
13706	0	0	0	0	0	4.479305	-2.861656	8.239263	0.000299	-0.001159	0.004065	-0.979736	-0.521240	-0.908691	-0.469880	-0.132573	0.249476	-0.836301	-19.202286	-27.141500	126.017082	-0.523274	0.719774	0.456190	-0.852069	-0.433950	-0.292686	-0.012705	-0.541860	0.840372	0	0	0
13707	0	0	0	0	0	4.501621	-2.852523	8.236236	-0.001006	-0.000414	0.003634	-0.988770	-0.524902	-0.909180	-0.469896	-0.132570	0.249490	-0.836288	-19.203549	-27.142346	126.015150	-0.523246	0.719786	0.456203	-0.852086	-0.433906	-0.292703	-0.012734	-0.541880	0.840360	0	0	0
13708	0	0	0	0	0	4.509062	-2.860673	8.269004	0.001867	0.002311	0.007356	-0.986084	-0.531006	-0.901123	-0.469885	-0.132565	0.249486	-0.836296	-19.203764	-27.141273	126.016622	-0.523270	0.719780	0.456186	-0.852072	-0.433930	-0.292709	-0.012733	-0.541869	0.840367	0	0	0
13709	0	0	0	0	0	4.476729	-2.850925	8.260813	-0.001228	0.000908	0.008913	-0.988281	-0.528809	-0.898193	-0.469874	-0.132553	0.249501	-0.836300	-19.206382	-27.140566	126.018498	-0.523297	0.719767	0.456175	-0.852055	-0.433936	-0.292749	-0.012760	-0.541881	0.840359	0	0	0
13710	0	0	0	0	0	4.506490	-2.849914	8.290564	-0.001453	0.001626	0.003088	-0.993164	-0.531006	-0.897461	-0.469882	-0.132547	0.249509	-0.836294	-19.207381	-27.140669	126.017520	-0.523284	0.719776	0.456177	-0.852063	-0.433911	-0.292763	-0.012783	-0.541889	0.840353	0	0	0
13711	0	0	0	0	0	4.476289	-2.851555	8.260835	0.000225	-0.000718	0.005825	-0.986084	-0.532227	-0.897461	-0.469854	-0.132560	0.249515	-0.836306	-19.208315	-27.141764	126.021601	-0.523330	0.719731	0.456194	-0.852035	-0.433959	-0.292774	-0.012749	-0.541910	0.840340	0	0	0
13712	0	0	0	0	0	4.476158	-2.851841	8.260807	-0.001080	0.000027	0.005394	-0.992920	-0.533447	-0.903320	-0.469850	-0.132560	0.249528	-0.836304	-19.209895	-27.142297	126.022364	-0.523337	0.719721	0.456202	-0.852030	-0.433953	-0.292796	-0.012761	-0.541929	0.840328	0	0	0
13713	0	0	0	0	0	4.509921	-2.873831	8.247547	-0.003243	-0.000522	0.005077	-0.988770	-0.522705	-0.911865	-0.469850	-0.132558	0.249550	-0.836298	-19.212464	-27.143353	126.022910	-0.523339	0.719709	0.456218	-0.852029	-0.433932	-0.292831	-0.012785	-0.541961	0.840307	0	0	0
13714	0	0	0	0	0	4.483513	-2.860777	8.293349	-0.003390	0.000359	0.008596	-0.992432	-0.534668	-0.900146	-0.469835	-0.132547	0.249573	-0.836301	-19.216223	-27.143102	126.025550	-0.523373	0.719687	0.456214	-0.852007	-0.433937	-0.292886	-0.012818	-0.541987	0.840289	0	0	0
13715	0	0	0	0	0	4.501870	-2.867049	8.214636	-0.003243	-0.000522	0.005077	-0.987305	-0.530273	-0.907471	-0.469834	-0.132543	0.249596	-0.836295	-19.219075	-27.143944	126.026098	-0.523376	0.719676	0.456228	-0.852005	-0.433915	-0.292926	-0.012848	-0.542019	0.840268	0	0	0
13716	0	0	0	0	0	4.507402	-2.864141	8.268709	-0.004695	0.001104	0.008165	-0.990967	-0.526855	-0.906982	-0.469823	-0.132526	0.249623	-0.836296	-19.223390	-27.143371	126.028318	-0.523407	0.719660	0.456219	-0.851985	-0.433909	-0.292991	-0.012896	-0.542045	0.840251	0	0	0
13717	0	0	0	0	0	4.499387	-2.856662	8.236022	0.000637	0.002615	0.005166	-0.987793	-0.531250	-0.896973	-0.469833	-0.132514	0.249624	-0.836293	-19.223731	-27.142430	126.026997	-0.523395	0.719678	0.456204	-0.851992	-0.433890	-0.292998	-0.012922	-0.542036	0.840256	0	0	0
13718	0	0	0	0	0	4.486266	-2.885464	8.250423	0.002873	0.002724	0.003723	-0.992920	-0.530273	-0.900635	-0.469837	-0.132513	0.249612	-0.836294	-19.222322	-27.141819	126.026173	-0.523387	0.719689	0.456195	-0.851997	-0.433894	-0.292979	-0.012914	-0.542018	0.840268	0	0	0
13719	0	0	0	0	0	4.508389	-2.876276	8.247532	-0.001080	0.000027	0.005395	-0.991699	-0.532959	-0.902832	-0.469820	-0.132519	0.249623	-0.836299	-19.223756	-27.142569	126.028705	-0.523415	0.719661	0.456206	-0.851980	-0.433915	-0.292998	-0.012905	-0.542038	0.840255	0	0	0
13720	0	0	0	0	0	4.481963	-2.862929	8.293444	-0.000221	0.001321	0.005280	-0.987549	-0.522949	-0.906738	-0.469818	-0.132515	0.249628	-0.836299	-19.224688	-27.142423	126.029125	-0.523421	0.719658	0.456204	-0.851976	-0.433913	-0.293012	-0.012916	-0.542044	0.840251	0	0	0
13721	0	0	0	0	0	4.520714	-2.847956	8.233401	0.002015	0.001430	0.003838	-0.986572	-0.534668	-0.907715	-0.469820	-0.132517	0.249624	-0.836299	-19.223982	-27.142458	126.028772	-0.523417	0.719661	0.456204	-0.851979	-0.433914	-0.293002	-0.012908	-0.542039	0.840254	0	0	0
13722	0	0	0	0	0	4.473858	-2.855152	8.260909	0.002388	-0.000169	0.006144	-0.985596	-0.530273	-0.898926	-0.469811	-0.132524	0.249623	-0.836304	-19.223802	-27.142956	126.030033	-0.523430	0.719647	0.456212	-0.851971	-0.433933	-0.292998	-0.012890	-0.542044	0.840252	0	0	0
13723	0	0	0	0	0	4.498057	-2.857309	8.236524	0.003766	-0.001355	0.004816	-0.984375	-0.528564	-0.898193	-0.469826	-0.132536	0.249620	-0.836294	-19.222349	-27.144345	126.027711	-0.523395	0.719659	0.456234	-0.851993	-0.433906	-0.292973	-0.012878	-0.542049	0.840249	0	0	0
13724	0	0	0	0	0	4.507485	-2.876658	8.247893	0.001643	0.003029	0.001532	-0.989990	-0.527832	-0.899414	-0.469841	-0.132534	0.249611	-0.836289	-19.221007	-27.143982	126.025489	-0.523368	0.719681	0.456228	-0.852009	-0.433887	-0.292954	-0.012882	-0.542034	0.840258	0	0	0
13725	0	0	0	0	0	4.482879	-2.874421	8.272526	0.002874	0.002724	0.003724	-0.983643	-0.536865	-0.905029	-0.469835	-0.132537	0.249598	-0.836295	-19.219532	-27.143483	126.026027	-0.523378	0.719680	0.456220	-0.852004	-0.433911	-0.292934	-0.012859	-0.542017	0.840269	0	0	0
13726	0	0	0	0	0	4.497407	-2.857080	8.236959	0.003766	-0.001355	0.004816	-0.991455	-0.533447	-0.904541	-0.469829	-0.132554	0.249593	-0.836297	-19.218308	-27.144872	126.026732	-0.523380	0.719664	0.456242	-0.852003	-0.433928	-0.292912	-0.012823	-0.542024	0.840265	0	0	0
13727	0	0	0	0	0	4.504900	-2.865024	8.269766	0.001942	0.001871	0.005598	-0.988281	-0.531738	-0.904541	-0.469854	-0.132545	0.249591	-0.836285	-19.217723	-27.144389	126.023172	-0.523337	0.719700	0.456234	-0.852029	-0.433882	-0.292905	-0.012852	-0.542013	0.840272	0	0	0
13728	0	0	0	0	0	4.493104	-2.834158	8.280110	0.003246	0.001125	0.006030	-0.983643	-0.531494	-0.896484	-0.469847	-0.132549	0.249584	-0.836291	-19.216894	-27.144207	126.024089	-0.523350	0.719693	0.456232	-0.852021	-0.433905	-0.292893	-0.012832	-0.542005	0.840277	0	0	0
13729	0	0	0	0	0	4.483816	-2.885874	8.251612	0.002800	0.003165	0.005484	-0.986572	-0.532959	-0.905029	-0.469854	-0.132543	0.249573	-0.836291	-19.215756	-27.143100	126.022779	-0.523339	0.719712	0.456214	-0.852028	-0.433900	-0.292880	-0.012837	-0.541983	0.840292	0	0	0
13730	0	0	0	0	0	4.492475	-2.834213	8.280433	0.002388	-0.000169	0.006145	-0.992188	-0.532227	-0.898438	-0.469845	-0.132550	0.249572	-0.836295	-19.215576	-27.143597	126.024040	-0.523352	0.719697	0.456222	-0.852020	-0.433919	-0.292876	-0.012818	-0.541988	0.840289	0	0	0
13731	0	0	0	0	0	4.503798	-2.865333	8.270260	0.000151	-0.000276	0.007588	-0.989258	-0.534424	-0.910889	-0.469837	-0.132551	0.249581	-0.836297	-19.216890	-27.144003	126.025395	-0.523367	0.719682	0.456228	-0.852011	-0.433925	-0.292894	-0.012822	-0.542003	0.840279	0	0	0
13732	0	0	0	0	0	4.503516	-2.865461	8.270369	0.004105	0.002419	0.005917	-0.991943	-0.531250	-0.898438	-0.469831	-0.132551	0.249567	-0.836305	-19.215412	-27.143143	126.025969	-0.523378	0.719682	0.456215	-0.852004	-0.433951	-0.292874	-0.012802	-0.541981	0.840293	0	0	0
13733	0	0	0	0	0	4.495443	-2.857659	8.237830	-0.001971	0.004108	0.004303	-0.989502	-0.529297	-0.904053	-0.469849	-0.132530	0.249574	-0.836296	-19.216649	-27.141730	126.023591	-0.523355	0.719713	0.456193	-0.852018	-0.433910	-0.292896	-0.012855	-0.541973	0.840297	0	0	0
13734	0	0	0	0	0	4.489951	-2.894390	8.284954	0.005484	0.001232	0.004589	-0.991943	-0.527588	-0.907959	-0.469846	-0.132541	0.249555	-0.836301	-19.214128	-27.141763	126.023608	-0.523355	0.719713	0.456194	-0.852018	-0.433934	-0.292859	-0.012817	-0.541955	0.840310	0	0	0
13735	0	0	0	0	0	4.500481	-2.854097	8.292389	0.001497	0.003911	0.005053	-0.987793	-0.530518	-0.900635	-0.469847	-0.132530	0.249548	-0.836305	-19.213834	-27.140217	126.023396	-0.523360	0.719725	0.456170	-0.852015	-0.433940	-0.292859	-0.012828	-0.541934	0.840323	0	0	0
13736	0	0	0	0	0	4.479632	-2.874982	8.274089	0.001942	0.001871	0.005599	-0.985840	-0.539307	-0.891846	-0.469843	-0.132528	0.249544	-0.836309	-19.213561	-27.139714	126.023892	-0.523368	0.719723	0.456162	-0.852010	-0.433952	-0.292856	-0.012823	-0.541926	0.840328	0	0	0
13737	0	0	0	0	0	4.497950	-2.842792	8.314114	0.001157	0.000136	0.003953	-0.990967	-0.532471	-0.899170	-0.469849	-0.132536	0.249545	-0.836303	-19.213032	-27.140736	126.022925	-0.523351	0.719726	0.456178	-0.852021	-0.433938	-0.292846	-0.012816	-0.541934	0.840323	0	0	0
13738	0	0	0	0	0	4.506768	-2.829144	8.224326	0.002016	0.001430	0.003839	-0.989014	-0.531738	-0.894775	-0.469852	-0.132539	0.249540	-0.836303	-19.212271	-27.140803	126.022444	-0.523345	0.719730	0.456179	-0.852025	-0.433938	-0.292835	-0.012808	-0.541929	0.840327	0	0	0
13739	0	0	0	0	0	4.479015	-2.875197	8.274349	0.001083	0.000577	0.005714	-0.992676	-0.532715	-0.908691	-0.469834	-0.132547	0.249540	-0.836312	-19.212421	-27.141259	126.025003	-0.523375	0.719703	0.456186	-0.852007	-0.433973	-0.292836	-0.012783	-0.541936	0.840322	0	0	0
13740	0	0	0	0	0	4.513966	-2.837386	8.257188	-0.000221	0.001323	0.005282	-0.992676	-0.533203	-0.906738	-0.469832	-0.132543	0.249545	-0.836312	-19.213352	-27.141112	126.025423	-0.523381	0.719700	0.456184	-0.852003	-0.433971	-0.292850	-0.012794	-0.541942	0.840319	0	0	0
13741	0	0	0	0	0	4.491484	-2.847050	8.260094	-0.002798	-0.002558	0.005625	-0.988525	-0.529053	-0.902100	-0.469838	-0.132545	0.249573	-0.836300	-19.216141	-27.143001	126.025023	-0.523367	0.719692	0.456213	-0.852011	-0.433931	-0.292886	-0.012823	-0.541985	0.840290	0	0	0
13742	0	0	0	0	0	4.491328	-2.847382	8.260064	0.000638	0.002617	0.005168	-0.993896	-0.532959	-0.891846	-0.469838	-0.132538	0.249572	-0.836301	-19.216423	-27.142176	126.025099	-0.523372	0.719697	0.456200	-0.852008	-0.433932	-0.292892	-0.012833	-0.541977	0.840295	0	0	0
13743	0	0	0	0	0	4.500666	-2.867108	8.271349	-0.000708	-0.001569	0.007704	-0.989502	-0.524414	-0.903076	-0.469802	-0.132551	0.249585	-0.836316	-19.218425	-27.143427	126.030376	-0.523432	0.719640	0.456220	-0.851971	-0.433987	-0.292918	-0.012802	-0.542009	0.840275	0	0	0
13744	0	0	0	0	0	4.480077	-2.888256	8.252809	-0.001080	0.000029	0.005396	-0.989746	-0.533691	-0.895752	-0.469799	-0.132550	0.249597	-0.836314	-19.220004	-27.143958	126.031140	-0.523440	0.719630	0.456228	-0.851966	-0.433981	-0.292940	-0.012814	-0.542027	0.840263	0	0	0
13745	0	0	0	0	0	4.490779	-2.848416	8.260006	-0.001153	0.000471	0.007157	-0.995850	-0.524658	-0.911377	-0.469775	-0.132550	0.249608	-0.836324	-19.222014	-27.144063	126.034736	-0.523484	0.719596	0.456229	-0.851939	-0.434015	-0.292969	-0.012809	-0.542044	0.840252	0	0	0
13746	0	0	0	0	0	4.498183	-2.856779	8.292712	-0.001153	0.000471	0.007158	-0.984619	-0.524170	-0.899902	-0.469764	-0.132545	0.249621	-0.836327	-19.224081	-27.144024	126.036477	-0.523506	0.719581	0.456229	-0.851925	-0.434022	-0.292999	-0.012824	-0.542060	0.840242	0	0	0
13747	0	0	0	0	0	4.492079	-2.860707	8.238607	-0.000739	0.003804	0.006497	-0.988770	-0.526123	-0.901611	-0.469750	-0.132530	0.249624	-0.836337	-19.225651	-27.142199	126.038641	-0.523542	0.719573	0.456200	-0.851903	-0.434046	-0.293027	-0.012842	-0.542051	0.840248	0	0	0
13748	0	0	0	0	0	4.499377	-2.868996	8.271396	0.000151	-0.000275	0.007590	-0.981934	-0.525635	-0.900879	-0.469736	-0.132531	0.249633	-0.836342	-19.227164	-27.142482	126.040803	-0.523568	0.719551	0.456205	-0.851887	-0.434063	-0.293049	-0.012842	-0.542066	0.840238	0	0	0
13749	0	0	0	0	0	4.501043	-2.880777	8.249973	0.001010	0.001018	0.007476	-0.991699	-0.532227	-0.902588	-0.469722	-0.132528	0.249636	-0.836349	-19.228067	-27.142039	126.042786	-0.523595	0.719536	0.456198	-0.851871	-0.434086	-0.293063	-0.012840	-0.542068	0.840237	0	0	0
13750	0	0	0	0	0	4.489123	-2.850112	8.260321	0.000121	0.005098	0.006383	-0.990723	-0.525879	-0.905518	-0.469720	-0.132507	0.249632	-0.836354	-19.228742	-27.139642	126.043076	-0.523610	0.719549	0.456161	-0.851861	-0.434094	-0.293079	-0.012868	-0.542045	0.840251	0	0	0
13751	0	0	0	0	0	4.513039	-2.852502	8.236038	0.002388	-0.000169	0.006148	-0.986816	-0.532471	-0.904053	-0.469707	-0.132516	0.249631	-0.836361	-19.228560	-27.140178	126.044904	-0.523630	0.719529	0.456169	-0.851849	-0.434120	-0.293075	-0.012844	-0.542050	0.840248	0	0	0
13752	0	0	0	0	0	4.498184	-2.869847	8.271750	0.001529	-0.001463	0.006262	-0.987793	-0.531006	-0.900879	-0.469696	-0.132527	0.249636	-0.836364	-19.229030	-27.141353	126.046511	-0.523645	0.719506	0.456187	-0.851840	-0.434135	-0.293079	-0.012825	-0.542068	0.840237	0	0	0
13753	0	0	0	0	0	4.488582	-2.850642	8.260432	0.000596	-0.002315	0.008138	-0.985352	-0.532959	-0.899414	-0.469690	-0.132533	0.249650	-0.836362	-19.230430	-27.142676	126.047550	-0.523652	0.719488	0.456208	-0.851836	-0.434132	-0.293096	-0.012825	-0.542094	0.840220	0	0	0
13754	0	0	0	0	0	4.505579	-2.878362	8.304406	-0.000293	0.001765	0.007045	-0.990723	-0.529053	-0.906982	-0.469682	-0.132525	0.249656	-0.836366	-19.231848	-27.141957	126.048948	-0.523673	0.719480	0.456197	-0.851823	-0.434142	-0.293119	-0.012839	-0.542097	0.840218	0	0	0
13755	0	0	0	0	0	4.497735	-2.870660	8.271712	0.001529	-0.001463	0.006263	-0.982178	-0.534180	-0.903809	-0.469682	-0.132533	0.249663	-0.836363	-19.232163	-27.143154	126.048978	-0.523667	0.719472	0.456215	-0.851826	-0.434135	-0.293120	-0.012833	-0.542114	0.840207	0	0	0
13756	0	0	0	0	0	4.477094	-2.891629	8.253247	-0.000220	0.001324	0.005284	-0.989502	-0.528809	-0.906982	-0.469680	-0.132529	0.249668	-0.836363	-19.233094	-27.143006	126.049399	-0.523673	0.719469	0.456213	-0.851822	-0.434133	-0.293134	-0.012844	-0.542119	0.840204	0	0	0
13757	0	0	0	0	0	4.508127	-2.830838	8.279091	0.002730	0.003605	0.007249	-0.987793	-0.527832	-0.911133	-0.469698	-0.132512	0.249660	-0.836358	-19.232479	-27.141164	126.046755	-0.523649	0.719505	0.456184	-0.851837	-0.434107	-0.293130	-0.012876	-0.542092	0.840221	0	0	0
13758	0	0	0	0	0	4.472371	-2.869043	8.296509	0.000493	0.003500	0.008692	-0.988281	-0.529541	-0.906738	-0.469684	-0.132496	0.249660	-0.836368	-19.233736	-27.139195	126.048786	-0.523683	0.719499	0.456154	-0.851815	-0.434133	-0.293154	-0.012892	-0.542078	0.840229	0	0	0
13759	0	0	0	0	0	4.488777	-2.863528	8.239427	0.001602	-0.001904	0.004502	-0.993652	-0.536621	-0.905273	-0.469701	-0.132503	0.249668	-0.836355	-19.233744	-27.140754	126.046572	-0.523648	0.719510	0.456178	-0.851837	-0.434094	-0.293150	-0.012900	-0.542097	0.840217	0	0	0
13760	0	0	0	0	0	4.486763	-2.852277	8.260856	-0.001153	0.000472	0.007160	-0.995361	-0.532227	-0.904785	-0.469690	-0.132498	0.249681	-0.836358	-19.235811	-27.140713	126.048313	-0.523670	0.719494	0.456177	-0.851823	-0.434100	-0.293180	-0.012915	-0.542112	0.840207	0	0	0
13761	0	0	0	0	0	4.526147	-2.870660	8.301880	0.001158	0.000136	0.003955	-0.989014	-0.525635	-0.905518	-0.469699	-0.132504	0.249684	-0.836351	-19.235485	-27.141618	126.047132	-0.523651	0.719499	0.456191	-0.851835	-0.434082	-0.293173	-0.012913	-0.542120	0.840202	0	0	0
13762	0	0	0	0	0	4.506890	-2.831814	8.279430	0.002017	0.001429	0.003841	-0.983887	-0.530029	-0.912842	-0.469702	-0.132506	0.249679	-0.836351	-19.234723	-27.141685	126.046653	-0.523645	0.719503	0.456192	-0.851839	-0.434082	-0.293161	-0.012906	-0.542115	0.840205	0	0	0
13763	0	0	0	0	0	4.475230	-2.892904	8.253811	-0.001450	0.001630	0.003090	-0.984619	-0.532227	-0.898926	-0.469733	-0.132492	0.249691	-0.836332	-19.235764	-27.141549	126.042477	-0.523593	0.719542	0.456190	-0.851870	-0.434010	-0.293177	-0.012962	-0.542120	0.840201	0	0	0
13764	0	0	0	0	0	4.506354	-2.832164	8.279602	0.001871	0.002312	0.007364	-0.993164	-0.530518	-0.908203	-0.469722	-0.132486	0.249687	-0.836340	-19.235978	-27.140473	126.043952	-0.523617	0.719535	0.456174	-0.851855	-0.434035	-0.293183	-0.012960	-0.542110	0.840208	0	0	0
13765	0	0	0	0	0	4.474547	-2.893459	8.253987	-0.001226	0.000914	0.008922	-0.987305	-0.524170	-0.905762	-0.469716	-0.132475	0.249701	-0.836341	-19.238366	-27.139910	126.045159	-0.523635	0.719528	0.456165	-0.851844	-0.434032	-0.293220	-0.012989	-0.542121	0.840200	0	0	0
13766	0	0	0	0	0	4.483233	-2.841942	8.282792	0.002507	0.004321	0.001419	-0.993896	-0.528320	-0.895508	-0.469732	-0.132469	0.249686	-0.836338	-19.236373	-27.138870	126.042594	-0.523607	0.719558	0.456149	-0.851861	-0.434018	-0.293193	-0.012993	-0.542093	0.840218	0	0	0
13767	0	0	0	0	0	4.509116	-2.855812	8.237039	-0.001153	0.000473	0.007160	-0.986328	-0.527832	-0.908447	-0.469700	-0.132471	0.249696	-0.836352	-19.238496	-27.138941	126.047372	-0.523667	0.719514	0.456150	-0.851824	-0.434068	-0.293224	-0.012979	-0.542111	0.840207	0	0	0
13768	0	0	0	0	0	4.494225	-2.873390	8.272671	-0.000636	-0.002009	0.005946	-0.994141	-0.526855	-0.902344	-0.469691	-0.132480	0.249712	-0.836351	-19.240171	-27.140471	126.048902	-0.523679	0.719490	0.456174	-0.851817	-0.434069	-0.293245	-0.012976	-0.542142	0.840186	0	0	0
13769	0	0	0	0	0	4.486489	-2.865680	8.239925	0.001084	0.000578	0.005718	-0.990967	-0.531250	-0.904785	-0.469683	-0.132481	0.249714	-0.836355	-19.240601	-27.140613	126.050015	-0.523692	0.719479	0.456176	-0.851809	-0.434081	-0.293250	-0.012970	-0.542148	0.840183	0	0	0
13770	0	0	0	0	0	4.525884	-2.884036	8.280956	0.000224	-0.000716	0.005832	-0.993164	-0.524902	-0.905273	-0.469676	-0.132486	0.249723	-0.836355	-19.241626	-27.141465	126.051201	-0.523703	0.719463	0.456189	-0.851802	-0.434085	-0.293263	-0.012967	-0.542166	0.840172	0	0	0
13771	0	0	0	0	0	4.463728	-2.875383	8.242937	0.001012	0.001019	0.007480	-0.986816	-0.525391	-0.898682	-0.469658	-0.132485	0.249725	-0.836365	-19.242522	-27.141098	126.053851	-0.523738	0.719441	0.456183	-0.851781	-0.434117	-0.293277	-0.012959	-0.542169	0.840170	0	0	0
13772	0	0	0	0	0	4.495510	-2.885664	8.251282	0.002534	-0.001053	0.002627	-0.989746	-0.527344	-0.909912	-0.469662	-0.132501	0.249723	-0.836361	-19.241369	-27.142737	126.053161	-0.523722	0.719437	0.456209	-0.851791	-0.434111	-0.293256	-0.012934	-0.542179	0.840163	0	0	0
13773	0	0	0	0	0	4.493498	-2.874284	8.272756	0.001382	-0.000579	0.009789	-0.988037	-0.527588	-0.905029	-0.469637	-0.132503	0.249730	-0.836373	-19.242863	-27.142718	126.056885	-0.523769	0.719403	0.456208	-0.851763	-0.434153	-0.293278	-0.012921	-0.542191	0.840156	0	0	0
13774	0	0	0	0	0	4.481807	-2.843338	8.283085	0.005115	0.002826	0.002285	-0.989502	-0.536621	-0.905273	-0.469646	-0.132509	0.249708	-0.836373	-19.239761	-27.142323	126.055164	-0.523749	0.719421	0.456202	-0.851775	-0.434158	-0.293234	-0.012895	-0.542163	0.840175	0	0	0
13775	0	0	0	0	0	4.507698	-2.856973	8.237412	0.001945	0.001871	0.005604	-0.986572	-0.524170	-0.898193	-0.469661	-0.132502	0.249705	-0.836367	-19.239282	-27.141829	126.053008	-0.523724	0.719444	0.456195	-0.851790	-0.434133	-0.293228	-0.012912	-0.542153	0.840181	0	0	0
13776	0	0	0	0	0	4.490659	-2.862852	8.294695	-0.000662	0.003365	0.004738	-0.996338	-0.528809	-0.907471	-0.469664	-0.132490	0.249708	-0.836366	-19.240117	-27.140679	126.052664	-0.523725	0.719454	0.456177	-0.851789	-0.434124	-0.293243	-0.012938	-0.542145	0.840185	0	0	0
13777	0	0	0	0	0	4.514610	-2.865162	8.270442	0.004182	0.001975	0.004161	-0.983398	-0.533203	-0.902832	-0.469648	-0.132500	0.249691	-0.836378	-19.238215	-27.140460	126.054441	-0.523749	0.719440	0.456173	-0.851775	-0.434170	-0.293216	-0.012894	-0.542129	0.840197	0	0	0
13778	0	0	0	0	0	4.491834	-2.874377	8.273627	0.001502	0.003911	0.005057	-0.990967	-0.533447	-0.906250	-0.469649	-0.132489	0.249683	-0.836382	-19.237846	-27.138954	126.054175	-0.523752	0.719452	0.456150	-0.851773	-0.434175	-0.293214	-0.012904	-0.542108	0.840210	0	0	0
13779	0	0	0	0	0	4.471131	-2.895207	8.255225	0.000370	-0.001598	0.002309	-0.983398	-0.523926	-0.904053	-0.469682	-0.132496	0.249694	-0.836359	-19.237607	-27.140963	126.049801	-0.523688	0.719479	0.456181	-0.851812	-0.434104	-0.293206	-0.012925	-0.542129	0.840196	0	0	0
13780	0	0	0	0	0	4.504380	-2.845934	8.259481	0.002242	0.000714	0.009676	-0.987061	-0.529785	-0.909180	-0.469659	-0.132495	0.249694	-0.836372	-19.238404	-27.140315	126.053020	-0.523731	0.719453	0.456171	-0.851786	-0.434147	-0.293219	-0.012912	-0.542128	0.840197	0	0	0
13781	0	0	0	0	0	4.491162	-2.874716	8.273874	0.002879	0.002722	0.003729	-0.988525	-0.537109	-0.902832	-0.469679	-0.132488	0.249684	-0.836365	-19.237006	-27.139528	126.050005	-0.523697	0.719486	0.456159	-0.851806	-0.434119	-0.293201	-0.012926	-0.542107	0.840210	0	0	0
13782	0	0	0	0	0	4.483228	-2.866569	8.241390	0.005116	0.002826	0.002286	-0.996582	-0.528320	-0.908936	-0.469688	-0.132494	0.249662	-0.836366	-19.233903	-27.139133	126.048284	-0.523677	0.719504	0.456153	-0.851819	-0.434124	-0.293156	-0.012900	-0.542079	0.840229	0	0	0
13783	0	0	0	0	0	4.513010	-2.865081	8.271343	0.003322	0.000682	0.004276	-0.984131	-0.533936	-0.902100	-0.469698	-0.132500	0.249655	-0.836361	-19.232415	-27.139608	126.046692	-0.523655	0.719516	0.456160	-0.851833	-0.434113	-0.293133	-0.012889	-0.542073	0.840233	0	0	0
13784	0	0	0	0	0	4.492301	-2.885783	8.252988	0.002018	0.001429	0.003843	-0.985107	-0.524414	-0.900879	-0.469701	-0.132503	0.249650	-0.836361	-19.231654	-27.139674	126.046214	-0.523649	0.719520	0.456161	-0.851837	-0.434113	-0.293122	-0.012882	-0.542068	0.840236	0	0	0
13785	0	0	0	0	0	4.480676	-2.854708	8.263319	0.004255	0.001533	0.002400	-0.984863	-0.526611	-0.906006	-0.469717	-0.132510	0.249635	-0.836355	-19.229039	-27.139963	126.043496	-0.523613	0.719543	0.456166	-0.851859	-0.434096	-0.293083	-0.012866	-0.542051	0.840247	0	0	0
13786	0	0	0	0	0	4.488105	-2.862491	8.296203	0.003322	0.000682	0.004276	-0.992920	-0.533203	-0.901367	-0.469716	-0.132518	0.249627	-0.836356	-19.227723	-27.140351	126.043440	-0.523611	0.719541	0.456172	-0.851861	-0.434106	-0.293062	-0.012843	-0.542045	0.840251	0	0	0
13787	0	0	0	0	0	4.489761	-2.873955	8.274899	0.004479	0.000819	0.008234	-0.991211	-0.524414	-0.900391	-0.469704	-0.132522	0.249616	-0.836366	-19.226720	-27.139957	126.045035	-0.523633	0.719529	0.456166	-0.851848	-0.434141	-0.293049	-0.012817	-0.542033	0.840259	0	0	0
13788	0	0	0	0	0	4.513900	-2.876022	8.250640	0.004401	0.000649	-0.001124	-0.983887	-0.530273	-0.901855	-0.469724	-0.132540	0.249600	-0.836356	-19.223291	-27.141383	126.041702	-0.523584	0.719550	0.456188	-0.851878	-0.434118	-0.292995	-0.012785	-0.542024	0.840266	0	0	0
13789	0	0	0	0	0	4.502266	-2.844908	8.260987	0.000272	0.004217	0.002863	-0.986816	-0.533936	-0.905273	-0.469728	-0.132531	0.249594	-0.836358	-19.222951	-27.140181	126.041093	-0.523582	0.719563	0.456169	-0.851879	-0.434117	-0.292993	-0.012796	-0.542007	0.840277	0	0	0
13790	0	0	0	0	0	4.479650	-2.854307	8.264014	0.001897	-0.003059	0.008577	-0.991699	-0.531006	-0.898682	-0.469705	-0.132546	0.249603	-0.836365	-19.224006	-27.141782	126.044444	-0.523617	0.719522	0.456194	-0.851858	-0.434150	-0.293004	-0.012766	-0.542034	0.840259	0	0	0
13791	0	0	0	0	0	4.489021	-2.873794	8.275356	0.004183	0.001975	0.004163	-0.988525	-0.531982	-0.898926	-0.469714	-0.132551	0.249589	-0.836364	-19.221799	-27.141624	126.042911	-0.523598	0.719537	0.456192	-0.851870	-0.434149	-0.292972	-0.012749	-0.542015	0.840272	0	0	0
13792	0	0	0	0	0	4.511205	-2.864526	8.272520	0.002388	-0.000168	0.006153	-0.986084	-0.532959	-0.906006	-0.469705	-0.132558	0.249588	-0.836368	-19.221621	-27.142119	126.044176	-0.523612	0.719523	0.456199	-0.851862	-0.434167	-0.292968	-0.012731	-0.542020	0.840269	0	0	0
13793	0	0	0	0	0	4.523936	-2.835845	8.258361	0.003322	0.000682	0.004277	-0.990967	-0.534424	-0.903564	-0.469719	-0.132563	0.249580	-0.836362	-19.220049	-27.142578	126.041961	-0.523582	0.719540	0.456206	-0.851880	-0.434147	-0.292944	-0.012724	-0.542013	0.840274	0	0	0
13794	0	0	0	0	0	4.477075	-2.842786	8.285833	0.001158	0.000137	0.003958	-0.991211	-0.530029	-0.908203	-0.469720	-0.132569	0.249582	-0.836359	-19.219938	-27.143322	126.041826	-0.523577	0.719536	0.456218	-0.851884	-0.434143	-0.292940	-0.012717	-0.542021	0.840269	0	0	0
13795	0	0	0	0	0	4.490263	-2.885345	8.254250	-0.000073	0.000442	0.001762	-0.989990	-0.521484	-0.904541	-0.469745	-0.132570	0.249588	-0.836344	-19.219743	-27.144355	126.038468	-0.523530	0.719560	0.456234	-0.851912	-0.434091	-0.292935	-0.012737	-0.542031	0.840262	0	0	0
13796	0	0	0	0	0	4.523469	-2.835813	8.258627	0.006348	0.002520	0.004482	-0.989258	-0.533203	-0.902100	-0.469743	-0.132577	0.249563	-0.836351	-19.216573	-27.143710	126.038147	-0.523529	0.719568	0.456224	-0.851913	-0.434119	-0.292890	-0.012699	-0.542000	0.840283	0	0	0
13797	0	0	0	0	0	4.499164	-2.904606	8.265928	0.003104	0.002010	0.009564	-0.989502	-0.522705	-0.895264	-0.469714	-0.132576	0.249555	-0.836370	-19.216746	-27.142409	126.042186	-0.523586	0.719539	0.456204	-0.851879	-0.434182	-0.292896	-0.012674	-0.541986	0.840292	0	0	0
13798	0	0	0	0	0	4.500360	-2.845054	8.261975	0.000788	0.001735	0.001648	-0.991699	-0.534180	-0.899414	-0.469727	-0.132577	0.249553	-0.836363	-19.216051	-27.142724	126.040308	-0.523560	0.719554	0.456209	-0.851894	-0.434160	-0.292885	-0.012679	-0.541984	0.840293	0	0	0
13799	0	0	0	0	0	4.500074	-2.845068	8.262126	0.001577	0.003470	0.003296	-0.993896	-0.530029	-0.902100	-0.469710	-0.132580	0.249542	-0.836375	-19.215105	-27.142038	126.042393	-0.523590	0.719539	0.456198	-0.851877	-0.434203	-0.292873	-0.012651	-0.541970	0.840303	0	0	0
13800	0	0	0	0	0	4.499899	-2.845112	8.262206	0.001600	-0.001903	0.004506	-0.987793	-0.528320	-0.906982	-0.469706	-0.132595	0.249547	-0.836374	-19.215089	-27.143781	126.043024	-0.523590	0.719522	0.456225	-0.851877	-0.434205	-0.292868	-0.012630	-0.541990	0.840290	0	0	0
13801	0	0	0	0	0	4.486819	-2.873910	8.276510	0.000643	0.002620	0.005173	-0.990967	-0.533691	-0.905273	-0.469704	-0.132588	0.249546	-0.836376	-19.215341	-27.142987	126.043296	-0.523597	0.719525	0.456213	-0.851872	-0.434210	-0.292874	-0.012638	-0.541983	0.840295	0	0	0
13802	0	0	0	0	0	4.523792	-2.847666	8.237927	0.001158	0.000137	0.003958	-0.991211	-0.536621	-0.902344	-0.469705	-0.132594	0.249548	-0.836374	-19.215230	-27.143731	126.043162	-0.523592	0.719522	0.456224	-0.851876	-0.434206	-0.292870	-0.012631	-0.541991	0.840290	0	0	0
13803	0	0	0	0	0	4.486361	-2.874207	8.276655	0.001012	0.001022	0.007483	-0.989502	-0.530762	-0.899414	-0.469709	-0.132589	0.249551	-0.836372	-19.215781	-27.143472	126.042741	-0.523588	0.719527	0.456220	-0.851878	-0.434195	-0.292879	-0.012646	-0.541992	0.840289	0	0	0
13804	0	0	0	0	0	4.480338	-2.878000	8.222575	-0.000587	0.002925	0.002977	-0.984375	-0.529541	-0.901367	-0.469719	-0.132580	0.249553	-0.836367	-19.216128	-27.142892	126.041419	-0.523574	0.719543	0.456211	-0.851886	-0.434175	-0.292886	-0.012668	-0.541987	0.840291	0	0	0
13805	0	0	0	0	0	4.498789	-2.845798	8.262574	0.003764	-0.001358	0.004826	-0.988281	-0.530762	-0.897949	-0.469715	-0.132598	0.249548	-0.836368	-19.214733	-27.144375	126.041830	-0.523572	0.719530	0.456234	-0.851888	-0.434188	-0.292861	-0.012631	-0.541994	0.840287	0	0	0
13806	0	0	0	0	0	4.487583	-2.885902	8.255513	0.002881	0.002722	0.003730	-0.982666	-0.532227	-0.898682	-0.469719	-0.132597	0.249536	-0.836369	-19.213321	-27.143762	126.041009	-0.523564	0.719541	0.456225	-0.851893	-0.434192	-0.292842	-0.012623	-0.541976	0.840299	0	0	0
13807	0	0	0	0	0	4.498253	-2.845564	8.262947	0.005045	0.003267	0.004050	-0.994873	-0.536377	-0.906250	-0.469726	-0.132600	0.249514	-0.836372	-19.210426	-27.142938	126.039517	-0.523550	0.719560	0.456212	-0.851902	-0.434200	-0.292802	-0.012601	-0.541944	0.840320	0	0	0
13808	0	0	0	0	0	4.497913	-2.845413	8.263184	0.001650	0.003027	0.001534	-0.989746	-0.531738	-0.899902	-0.469741	-0.132598	0.249506	-0.836366	-19.209080	-27.142575	126.037296	-0.523523	0.719583	0.456206	-0.851918	-0.434182	-0.292783	-0.012605	-0.541929	0.840330	0	0	0
13809	0	0	0	0	0	4.482817	-2.862528	8.299048	0.003250	0.001125	0.006041	-0.988525	-0.535400	-0.902832	-0.469739	-0.132602	0.249498	-0.836369	-19.208009	-27.142564	126.037331	-0.523524	0.719582	0.456206	-0.851918	-0.434192	-0.292767	-0.012589	-0.541921	0.840335	0	0	0
13810	0	0	0	0	0	4.505045	-2.853441	8.296138	0.000223	-0.000712	0.005836	-0.990967	-0.531494	-0.898682	-0.469732	-0.132607	0.249507	-0.836369	-19.209035	-27.143413	126.038518	-0.523535	0.719566	0.456219	-0.851911	-0.434197	-0.292780	-0.012586	-0.541939	0.840324	0	0	0
13811	0	0	0	0	0	4.519576	-2.836470	8.260533	0.001505	0.003913	0.005059	-0.982910	-0.527588	-0.906494	-0.469738	-0.132597	0.249499	-0.836370	-19.208389	-27.142086	126.037486	-0.523528	0.719584	0.456199	-0.851915	-0.434193	-0.292774	-0.012597	-0.541918	0.840337	0	0	0
13812	0	0	0	0	0	4.484021	-2.874509	8.277819	0.000665	-0.002752	0.006384	-0.990967	-0.531738	-0.909668	-0.469726	-0.132611	0.249511	-0.836371	-19.209512	-27.143936	126.039438	-0.523544	0.719554	0.456227	-0.851906	-0.434204	-0.292786	-0.012580	-0.541949	0.840317	0	0	0
13813	0	0	0	0	0	4.485821	-2.886274	8.256340	-0.001448	0.001634	0.003091	-0.989502	-0.528564	-0.902832	-0.469756	-0.132598	0.249522	-0.836353	-19.210468	-27.143869	126.035446	-0.523494	0.719591	0.456226	-0.851936	-0.434136	-0.292800	-0.012632	-0.541955	0.840313	0	0	0
13814	0	0	0	0	0	4.506102	-2.865680	8.274901	0.003250	0.001125	0.006042	-0.981934	-0.527588	-0.901367	-0.469748	-0.132602	0.249515	-0.836359	-19.209640	-27.143685	126.036368	-0.523507	0.719584	0.456224	-0.851928	-0.434158	-0.292788	-0.012613	-0.541946	0.840318	0	0	0
13815	0	0	0	0	0	4.520763	-2.848333	8.239359	0.005632	0.000341	0.001074	-0.985596	-0.522461	-0.905762	-0.469761	-0.132620	0.249495	-0.836355	-19.206084	-27.144844	126.034170	-0.523473	0.719597	0.456242	-0.851949	-0.434154	-0.292733	-0.012571	-0.541933	0.840328	0	0	0
13816	0	0	0	0	0	4.505872	-2.865261	8.275171	0.002461	-0.000610	0.004393	-0.994629	-0.537354	-0.897949	-0.469758	-0.132632	0.249494	-0.836355	-19.205419	-27.145910	126.034457	-0.523472	0.719587	0.456258	-0.851950	-0.434160	-0.292721	-0.012549	-0.541940	0.840323	0	0	0
13817	0	0	0	0	0	4.496238	-2.845803	8.263961	0.002020	0.001430	0.003845	-0.993408	-0.528076	-0.906250	-0.469755	-0.132637	0.249488	-0.836357	-19.204569	-27.146083	126.034719	-0.523475	0.719584	0.456261	-0.851949	-0.434171	-0.292708	-0.012532	-0.541936	0.840326	0	0	0
13818	0	0	0	0	0	4.475481	-2.866533	8.245612	0.002020	0.001430	0.003845	-0.990479	-0.534180	-0.904541	-0.469758	-0.132640	0.249483	-0.836357	-19.203807	-27.146148	126.034241	-0.523468	0.719588	0.456262	-0.851953	-0.434171	-0.292696	-0.012525	-0.541931	0.840330	0	0	0
13819	0	0	0	0	0	4.482869	-2.874429	8.278470	0.003323	0.000682	0.004280	-0.984375	-0.527344	-0.909912	-0.469761	-0.132648	0.249475	-0.836356	-19.202416	-27.146586	126.033670	-0.523459	0.719590	0.456269	-0.851959	-0.434174	-0.292675	-0.012506	-0.541925	0.840334	0	0	0
13820	0	0	0	0	0	4.507027	-2.876880	8.254098	-0.002310	0.000342	0.003205	-0.998291	-0.523926	-0.899902	-0.469767	-0.132645	0.249491	-0.836348	-19.204062	-27.147361	126.033034	-0.523447	0.719591	0.456281	-0.851966	-0.434146	-0.292697	-0.012530	-0.541947	0.840319	0	0	0
13821	0	0	0	0	0	4.482646	-2.874675	8.278506	0.003764	-0.001358	0.004828	-0.988525	-0.528076	-0.893311	-0.469745	-0.132666	0.249484	-0.836359	-19.203015	-27.148728	126.035963	-0.523478	0.719555	0.456302	-0.851948	-0.434194	-0.292678	-0.012475	-0.541956	0.840314	0	0	0
13822	0	0	0	0	0	4.516356	-2.896455	8.265434	0.001158	0.000138	0.003960	-0.987793	-0.531982	-0.901367	-0.469746	-0.132672	0.249486	-0.836357	-19.202903	-27.149470	126.035829	-0.523473	0.719552	0.456313	-0.851951	-0.434190	-0.292674	-0.012468	-0.541964	0.840309	0	0	0
13823	0	0	0	0	0	4.473298	-2.926171	8.250063	0.004034	0.002242	-0.003434	-0.984863	-0.522217	-0.909424	-0.469767	-0.132691	0.249464	-0.836349	-19.198708	-27.150677	126.032362	-0.523423	0.719576	0.456332	-0.851982	-0.434173	-0.292610	-0.012428	-0.541946	0.840322	0	0	0
13824	0	0	0	0	0	4.493651	-2.905092	8.268755	0.001355	0.004181	-0.002540	-0.987061	-0.532471	-0.906982	-0.469801	-0.132689	0.249451	-0.836334	-19.196289	-27.150457	126.027420	-0.523362	0.719622	0.456329	-0.852019	-0.434123	-0.292575	-0.012440	-0.541924	0.840336	0	0	0
13825	0	0	0	0	0	4.482433	-2.944837	8.261827	0.003738	0.003396	-0.007507	-0.988770	-0.528564	-0.898438	-0.469870	-0.132694	0.249430	-0.836301	-19.191272	-27.151370	126.017205	-0.523230	0.719709	0.456343	-0.852101	-0.434015	-0.292499	-0.012455	-0.541894	0.840354	0	0	0
13826	0	0	0	0	0	4.448681	-2.922119	8.275248	0.007056	0.003460	-0.014352	-0.991211	-0.525879	-0.899170	-0.469947	-0.132723	0.249387	-0.836266	-19.182378	-27.153763	126.005231	-0.523068	0.719803	0.456380	-0.852200	-0.433911	-0.292362	-0.012415	-0.541853	0.840382	0	0	0
13827	0	0	0	0	0	4.535120	-2.932107	8.289284	0.007202	0.002574	-0.017876	-0.985840	-0.521240	-0.900635	-0.470013	-0.132768	0.249340	-0.836236	-19.172528	-27.157464	125.994856	-0.522921	0.719874	0.456438	-0.852292	-0.433835	-0.292208	-0.012335	-0.541820	0.840404	0	0	0
13828	0	0	0	0	0	4.471794	-2.909664	8.273049	0.017897	0.000193	-0.022660	-0.986328	-0.533447	-0.900391	-0.470114	-0.132847	0.249254	-0.836192	-19.155429	-27.163184	125.978518	-0.522688	0.719986	0.456526	-0.852437	-0.433730	-0.291942	-0.012185	-0.541755	0.840448	0	0	0
13829	0	0	0	0	0	4.502582	-2.905821	8.303287	0.017183	-0.001985	-0.026067	-0.987061	-0.526367	-0.906494	-0.470219	-0.132939	0.249173	-0.836143	-19.138017	-27.170740	125.961792	-0.522443	0.720090	0.456644	-0.852590	-0.433614	-0.291667	-0.012019	-0.541709	0.840480	0	0	0
13830	0	0	0	0	0	4.537041	-2.853503	8.307913	0.024635	-0.004871	-0.025767	-0.986816	-0.527100	-0.908447	-0.470322	-0.133058	0.249069	-0.836096	-19.116675	-27.179775	125.944626	-0.522185	0.720188	0.456784	-0.852751	-0.433523	-0.291330	-0.011786	-0.541651	0.840521	0	0	0
13831	0	0	0	0	0	4.656281	-2.909692	8.212104	0.032434	-0.003980	-0.024366	-0.979736	-0.532227	-0.901123	-0.470420	-0.133186	0.248932	-0.836062	-19.091362	-27.187852	125.927552	-0.521932	0.720292	0.456909	-0.852909	-0.433475	-0.290938	-0.011501	-0.541552	0.840588	0	0	0
13832	0	0	0	0	0	4.516020	-2.713127	8.346611	0.029483	-0.006261	-0.026329	-0.982178	-0.535645	-0.905762	-0.470521	-0.133323	0.248810	-0.836019	-19.067210	-27.197732	125.910325	-0.521670	0.720385	0.457063	-0.853074	-0.433407	-0.290558	-0.011220	-0.541483	0.840637	0	0	0
13833	0	0	0	0	0	4.582067	-2.838790	8.228096	0.042028	-0.017237	-0.030663	-0.986084	-0.530518	-0.897217	-0.470651	-0.133531	0.248663	-0.835957	-19.035486	-27.214230	125.888216	-0.521314	0.720480	0.457319	-0.853296	-0.433309	-0.290049	-0.010814	-0.541435	0.840673	0	0	0
13834	0	0	0	0	0	4.544996	-2.848875	8.288738	0.037160	-0.010473	-0.031299	-0.985352	-0.537842	-0.895752	-0.470762	-0.133710	0.248515	-0.835910	-19.005941	-27.227303	125.868830	-0.521009	0.720571	0.457522	-0.853487	-0.433246	-0.289582	-0.010445	-0.541364	0.840724	0	0	0
13835	0	0	0	0	0	4.547834	-2.986364	8.255112	0.042720	-0.010304	-0.039568	-0.988281	-0.534424	-0.899902	-0.470898	-0.133915	0.248337	-0.835853	-18.970689	-27.241990	125.845276	-0.520644	0.720690	0.457750	-0.853715	-0.433168	-0.289026	-0.010016	-0.541268	0.840791	0	0	0
13836	0	0	0	0	0	4.442315	-2.918765	8.241428	0.064001	-0.003227	-0.038661	-0.986328	-0.535400	-0.899170	-0.471030	-0.134136	0.248056	-0.835827	-18.922997	-27.252485	125.819862	-0.520276	0.720853	0.457912	-0.853946	-0.433197	-0.288299	-0.009455	-0.541028	0.840952	0	0	0
13837	0	0	0	0	0	4.487883	-2.822367	8.254103	0.055690	-0.001638	-0.038835	-0.986816	-0.535156	-0.902588	-0.471167	-0.134333	0.247804	-0.835793	-18.879792	-27.262211	125.794654	-0.519913	0.721019	0.458063	-0.854172	-0.433190	-0.287640	-0.008966	-0.540813	0.841095	0	0	0
13838	0	0	0	0	0	4.502248	-2.858588	8.224338	0.059359	0.002840	-0.033451	-0.988525	-0.540283	-0.904297	-0.471288	-0.134511	0.247532	-0.835776	-18.835619	-27.268416	125.771132	-0.519588	0.721192	0.458160	-0.854375	-0.433231	-0.286975	-0.008476	-0.540549	0.841270	0	0	0
13839	0	0	0	0	0	4.497455	-2.817372	8.290165	0.055702	-0.001631	-0.038804	-0.982178	-0.542725	-0.900879	-0.471439	-0.134703	0.247282	-0.835735	-18.792427	-27.277977	125.743976	-0.519201	0.721376	0.458308	-0.854614	-0.433194	-0.286316	-0.008006	-0.540332	0.841414	0	0	0
13840	0	0	0	0	0	4.532112	-2.761453	8.295497	0.055367	-0.005405	-0.039878	-0.983398	-0.546387	-0.906006	-0.471580	-0.134914	0.247041	-0.835692	-18.749514	-27.289808	125.718227	-0.518822	0.721533	0.458491	-0.854849	-0.433167	-0.285656	-0.007507	-0.540146	0.841538	0	0	0
13841	0	0	0	0	0	4.515091	-2.787789	8.257045	0.053059	-0.005057	-0.036667	-0.981201	-0.538818	-0.902832	-0.471752	-0.135101	0.246815	-0.835631	-18.708445	-27.300748	125.688384	-0.518395	0.721732	0.458661	-0.855112	-0.433064	-0.285024	-0.007081	-0.539962	0.841660	0	0	0
13842	0	0	0	0	0	4.547840	-2.720941	8.283382	0.044255	-0.006365	-0.034424	-0.979492	-0.543701	-0.895996	-0.471877	-0.135283	0.246627	-0.835587	-18.673498	-27.312067	125.666140	-0.518062	0.721859	0.458837	-0.855317	-0.433016	-0.284482	-0.006672	-0.539830	0.841748	0	0	0
13843	0	0	0	0	0	4.503353	-2.794134	8.294827	0.038623	-0.006724	-0.035496	-0.985107	-0.551025	-0.899414	-0.472030	-0.135448	0.246463	-0.835522	-18.641341	-27.323669	125.640349	-0.517683	0.722017	0.459017	-0.855549	-0.432887	-0.283980	-0.006336	-0.539723	0.841819	0	0	0
13844	0	0	0	0	0	4.509024	-2.812980	8.252646	0.032092	-0.013300	-0.033466	-0.992676	-0.540527	-0.901367	-0.472150	-0.135630	0.246342	-0.835461	-18.614270	-27.338556	125.620101	-0.517358	0.722103	0.459247	-0.855748	-0.432780	-0.283544	-0.005995	-0.539694	0.841840	0	0	0
13845	0	0	0	0	0	4.538212	-2.653004	8.337293	0.026383	-0.024153	-0.039667	-0.982178	-0.543701	-0.902588	-0.472296	-0.135848	0.246268	-0.835364	-18.589576	-27.360555	125.596884	-0.516963	0.722169	0.459588	-0.855989	-0.432577	-0.283125	-0.005657	-0.539768	0.841795	0	0	0
13846	0	0	0	0	0	4.490845	-2.672737	8.288544	0.001453	-0.024823	-0.039034	-0.984863	-0.545898	-0.894043	-0.472446	-0.136012	0.246298	-0.835244	-18.579562	-27.382702	125.575579	-0.516591	0.722217	0.459932	-0.856215	-0.432264	-0.282921	-0.005518	-0.539955	0.841676	0	0	0
13847	0	0	0	0	0	4.529897	-2.704799	8.252860	-0.010075	-0.029130	-0.032929	-0.980225	-0.548096	-0.901123	-0.472586	-0.136156	0.246392	-0.835114	-18.578112	-27.406063	125.557001	-0.516248	0.722231	0.460294	-0.856422	-0.431906	-0.282840	-0.005472	-0.540221	0.841505	0	0	0
13848	0	0	0	0	0	4.542067	-2.652321	8.279411	-0.013169	-0.030529	-0.031369	-0.980957	-0.544678	-0.902832	-0.472707	-0.136299	0.246502	-0.834989	-18.579155	-27.429908	125.541548	-0.515941	0.722215	0.460663	-0.856607	-0.431570	-0.282794	-0.005430	-0.540512	0.841319	0	0	0
13849	0	0	0	0	0	4.480239	-2.691975	8.265517	-0.016486	-0.030586	-0.024538	-0.979248	-0.544678	-0.900391	-0.472840	-0.136414	0.246635	-0.834856	-18.583834	-27.452336	125.524909	-0.515627	0.722218	0.461011	-0.856796	-0.431187	-0.282805	-0.005466	-0.540814	0.841124	0	0	0
13850	0	0	0	0	0	4.537555	-2.693183	8.268939	-0.020326	-0.028161	-0.016508	-0.990479	-0.548096	-0.899902	-0.472906	-0.136513	0.246780	-0.834760	-18.592936	-27.472184	125.518062	-0.515448	0.722149	0.461318	-0.856903	-0.430918	-0.282888	-0.005497	-0.541119	0.840928	0	0	0
13851	0	0	0	0	0	4.519106	-2.643803	8.265675	-0.019017	-0.028900	-0.016066	-0.982910	-0.544922	-0.902832	-0.472990	-0.136610	0.246923	-0.834654	-18.601341	-27.492289	125.508712	-0.515236	0.722102	0.461629	-0.857031	-0.430618	-0.282960	-0.005540	-0.541421	0.840733	0	0	0
13852	0	0	0	0	0	4.576190	-2.645569	8.269002	-0.020721	-0.030843	-0.004730	-0.990723	-0.550293	-0.897461	-0.473004	-0.136704	0.247084	-0.834583	-18.614252	-27.511442	125.509633	-0.515158	0.721968	0.461926	-0.857077	-0.430433	-0.283100	-0.005561	-0.541747	0.840523	0	0	0
13853	0	0	0	0	0	4.556176	-2.787708	8.257712	-0.034503	-0.025624	-0.012488	-0.986816	-0.547852	-0.895752	-0.473090	-0.136747	0.247287	-0.834467	-18.632192	-27.529160	125.501527	-0.514973	0.721924	0.462200	-0.857187	-0.430071	-0.283318	-0.005755	-0.542093	0.840299	0	0	0
13854	0	0	0	0	0	4.542087	-2.833838	8.194674	-0.019859	-0.029545	-0.004842	-0.984619	-0.553711	-0.906006	-0.473105	-0.136838	0.247440	-0.834398	-18.644460	-27.547628	125.502123	-0.514893	0.721797	0.462486	-0.857235	-0.429889	-0.283450	-0.005776	-0.542405	0.840097	0	0	0
13855	0	0	0	0	0	4.614445	-2.719945	8.276156	-0.010013	-0.022252	-0.002608	-0.971436	-0.548096	-0.897705	-0.473160	-0.136907	0.247542	-0.834326	-18.650672	-27.561687	125.496222	-0.514753	0.721758	0.462703	-0.857319	-0.429686	-0.283505	-0.005805	-0.542619	0.839959	0	0	0
13856	0	0	0	0	0	4.501745	-2.723892	8.210308	-0.017653	-0.023426	0.003588	-0.980713	-0.547607	-0.894775	-0.473146	-0.136967	0.247678	-0.834283	-18.663482	-27.575288	125.500721	-0.514746	0.721628	0.462914	-0.857323	-0.429577	-0.283657	-0.005838	-0.542878	0.839791	0	0	0
13857	0	0	0	0	0	4.586713	-2.783851	8.248202	-0.013370	-0.016948	0.002993	-0.985352	-0.551270	-0.887695	-0.473185	-0.136997	0.247784	-0.834225	-18.672641	-27.585323	125.497260	-0.514655	0.721593	0.463069	-0.857377	-0.429398	-0.283766	-0.005922	-0.543066	0.839669	0	0	0
13858	0	0	0	0	0	4.555882	-2.775265	8.238837	-0.013587	-0.015610	0.008264	-0.985596	-0.545410	-0.892578	-0.473159	-0.137029	0.247888	-0.834203	-18.683703	-27.593822	125.503011	-0.514688	0.721486	0.463200	-0.857357	-0.429345	-0.283906	-0.005961	-0.543251	0.839549	0	0	0
13859	0	0	0	0	0	4.502549	-2.775908	8.232742	-0.004172	-0.016572	0.014152	-0.981689	-0.548828	-0.897217	-0.473108	-0.137080	0.247958	-0.834203	-18.690736	-27.602024	125.511394	-0.514755	0.721356	0.463327	-0.857317	-0.429370	-0.283987	-0.005917	-0.543402	0.839452	0	0	0
13860	0	0	0	0	0	4.478595	-2.703157	8.273355	-0.000555	-0.017650	0.011392	-0.991211	-0.550293	-0.901123	-0.473058	-0.137147	0.248014	-0.834204	-18.695418	-27.611054	125.519487	-0.514814	0.721224	0.463467	-0.857282	-0.429411	-0.284033	-0.005834	-0.543546	0.839359	0	0	0
13861	0	0	0	0	0	4.538392	-2.799088	8.217978	-0.002222	-0.014680	0.019741	-0.981689	-0.546631	-0.902344	-0.473019	-0.137175	0.248081	-0.834201	-18.702815	-27.616914	125.526199	-0.514871	0.721125	0.463558	-0.857248	-0.429417	-0.284126	-0.005831	-0.543672	0.839278	0	0	0
13862	0	0	0	0	0	4.493931	-2.747465	8.240327	0.001819	-0.022715	0.020523	-0.995117	-0.539307	-0.888916	-0.472923	-0.137257	0.248146	-0.834223	-18.709221	-27.627014	125.540939	-0.515009	0.720926	0.463714	-0.857166	-0.429536	-0.284193	-0.005701	-0.543842	0.839168	0	0	0
13863	0	0	0	0	0	4.549135	-2.879839	8.231958	0.001677	-0.021823	0.024040	-0.987061	-0.554688	-0.899170	-0.472808	-0.137333	0.248210	-0.834257	-18.716587	-27.636015	125.558232	-0.515185	0.720712	0.463853	-0.857061	-0.429689	-0.284278	-0.005570	-0.544006	0.839063	0	0	0
13864	0	0	0	0	0	4.592390	-2.778356	8.263322	0.021037	-0.021956	0.020526	-0.986572	-0.540771	-0.890381	-0.472699	-0.137457	0.248193	-0.834303	-18.711916	-27.645700	125.572820	-0.515322	0.720517	0.464003	-0.856980	-0.429912	-0.284184	-0.005279	-0.544088	0.839012	0	0	0
13865	0	0	0	0	0	4.595839	-2.658480	8.253949	0.019969	-0.021910	0.025922	-0.985840	-0.542969	-0.903320	-0.472594	-0.137566	0.248186	-0.834347	-18.709072	-27.654433	125.587082	-0.515461	0.720331	0.464138	-0.856899	-0.430117	-0.284120	-0.005027	-0.544172	0.838959	0	0	0
13866	0	0	0	0	0	4.477887	-2.768614	8.219606	0.013601	-0.018452	0.031334	-0.994629	-0.543457	-0.905273	-0.472450	-0.137645	0.248198	-0.834412	-18.711401	-27.660231	125.607565	-0.515691	0.720108	0.464227	-0.856761	-0.430378	-0.284139	-0.004818	-0.544260	0.838903	0	0	0
13867	0	0	0	0	0	4.520407	-2.797934	8.238702	0.021519	-0.023346	0.032196	-0.993408	-0.547607	-0.887451	-0.472316	-0.137751	0.248194	-0.834471	-18.709992	-27.668258	125.626001	-0.515885	0.719889	0.464351	-0.856646	-0.430635	-0.284098	-0.004553	-0.544346	0.838848	0	0	0
13868	0	0	0	0	0	4.521574	-2.667087	8.250739	0.015110	-0.014518	0.036373	-0.992920	-0.544678	-0.892334	-0.472154	-0.137811	0.248195	-0.834553	-18.712517	-27.670995	125.648759	-0.516158	0.719666	0.464394	-0.856483	-0.430940	-0.284127	-0.004351	-0.544400	0.838815	0	0	0
13869	0	0	0	0	0	4.422337	-2.816559	8.239242	0.011065	-0.021681	0.042818	-0.991455	-0.550049	-0.891846	-0.471957	-0.137887	0.248233	-0.834640	-18.719645	-27.676719	125.677212	-0.516488	0.719372	0.464482	-0.856285	-0.431274	-0.284217	-0.004138	-0.544523	0.838735	0	0	0
13870	0	0	0	0	0	4.614255	-2.714218	8.198848	0.021826	-0.018472	0.046154	-0.989258	-0.543457	-0.891113	-0.471745	-0.137967	0.248221	-0.834750	-18.721491	-27.679799	125.706786	-0.516844	0.719085	0.464530	-0.856071	-0.431686	-0.284236	-0.003859	-0.544576	0.838703	0	0	0
13871	0	0	0	0	0	4.643658	-2.570527	8.261793	0.019594	-0.018573	0.047607	-0.986816	-0.550537	-0.895264	-0.471544	-0.138037	0.248222	-0.834852	-18.724736	-27.682811	125.734955	-0.517184	0.718811	0.464576	-0.855867	-0.432064	-0.284275	-0.003614	-0.544638	0.838663	0	0	0
13872	0	0	0	0	0	4.601569	-2.673430	8.229319	0.001996	-0.021186	0.052138	-0.991455	-0.547852	-0.897949	-0.471317	-0.138074	0.248304	-0.834950	-18.739913	-27.686257	125.768762	-0.517591	0.718483	0.464630	-0.855621	-0.432411	-0.284489	-0.003489	-0.544796	0.838562	0	0	0
13873	0	0	0	0	0	4.557450	-2.765297	8.218109	0.009601	-0.018931	0.058801	-0.985596	-0.543945	-0.890625	-0.471112	-0.138097	0.248359	-0.835045	-18.752020	-27.687202	125.798961	-0.517965	0.718204	0.464644	-0.855395	-0.432743	-0.284663	-0.003375	-0.544900	0.838494	0	0	0
13874	0	0	0	0	0	4.622087	-2.656483	8.246251	0.012047	-0.014152	0.061962	-0.998535	-0.537598	-0.882568	-0.470846	-0.138116	0.248389	-0.835183	-18.763556	-27.685009	125.837325	-0.518457	0.717872	0.464610	-0.855098	-0.433215	-0.284838	-0.003201	-0.544963	0.838454	0	0	0
13875	0	0	0	0	0	4.564438	-2.777009	8.249966	0.005417	-0.014898	0.064554	-0.994629	-0.544189	-0.891357	-0.470552	-0.138128	0.248447	-0.835330	-18.779562	-27.682947	125.880198	-0.519004	0.717497	0.464579	-0.854767	-0.433710	-0.285078	-0.003050	-0.545062	0.838390	0	0	0
13876	0	0	0	0	0	4.532388	-2.911191	8.207977	0.021650	-0.011108	0.061360	-0.985840	-0.538330	-0.892822	-0.470285	-0.138157	0.248429	-0.835480	-18.785126	-27.679199	125.917557	-0.519489	0.717183	0.464521	-0.854472	-0.434230	-0.285169	-0.002810	-0.545062	0.838391	0	0	0
13877	0	0	0	0	0	4.609707	-2.772591	8.222080	0.033104	-0.016661	0.061226	-0.994629	-0.537842	-0.893066	-0.470014	-0.138235	0.248377	-0.835636	-18.784464	-27.678468	125.954612	-0.519956	0.716852	0.464509	-0.854189	-0.434792	-0.285161	-0.002453	-0.545050	0.838400	0	0	0
13878	0	0	0	0	0	4.554824	-2.843222	8.200681	0.028958	-0.007712	0.063966	-0.997070	-0.539551	-0.897705	-0.469735	-0.138264	0.248323	-0.835804	-18.786249	-27.672396	125.992857	-0.520464	0.716544	0.464415	-0.853881	-0.435369	-0.285203	-0.002168	-0.544993	0.838438	0	0	0
13879	0	0	0	0	0	4.663636	-2.714758	8.223254	0.037022	-0.007498	0.071202	-1.000732	-0.538818	-0.893311	-0.469423	-0.138302	0.248240	-0.835998	-18.785484	-27.664810	126.035225	-0.521029	0.716209	0.464298	-0.853537	-0.436038	-0.285212	-0.001819	-0.544899	0.838500	0	0	0
13880	0	0	0	0	0	4.615507	-2.650994	8.268334	0.025351	-0.005485	0.079656	-0.995361	-0.547119	-0.894287	-0.469084	-0.138294	0.248206	-0.836199	-18.793569	-27.654632	126.082609	-0.521670	0.715845	0.464141	-0.853146	-0.436708	-0.285356	-0.001577	-0.544842	0.838537	0	0	0
13881	0	0	0	0	0	4.580045	-2.631166	8.281868	0.014675	-0.003077	0.084467	-0.993896	-0.541748	-0.899414	-0.468758	-0.138239	0.248217	-0.836388	-18.808698	-27.642319	126.129292	-0.522312	0.715500	0.463950	-0.852753	-0.437309	-0.285610	-0.001464	-0.544813	0.838556	0	0	0
13882	0	0	0	0	0	4.597160	-2.673295	8.304636	0.000551	-0.005824	0.089779	-1.001221	-0.537354	-0.893799	-0.468393	-0.138162	0.248295	-0.836582	-18.833874	-27.630430	126.182926	-0.523038	0.715088	0.463767	-0.852308	-0.437915	-0.286009	-0.001432	-0.544866	0.838522	0	0	0
13883	0	0	0	0	0	4.495755	-2.837396	8.272448	-0.010370	-0.002720	0.088748	-1.000000	-0.533691	-0.885986	-0.468066	-0.138041	0.248413	-0.836750	-18.864614	-27.616946	126.232194	-0.523718	0.714726	0.463558	-0.851891	-0.438410	-0.286495	-0.001537	-0.544943	0.838472	0	0	0
13884	0	0	0	0	0	4.495230	-2.924098	8.234238	0.011483	-0.004672	0.076737	-0.999268	-0.528564	-0.890381	-0.467750	-0.138000	0.248433	-0.836927	-18.879685	-27.606808	126.277583	-0.524332	0.714377	0.463401	-0.851513	-0.438982	-0.286742	-0.001417	-0.544940	0.838474	0	0	0
13885	0	0	0	0	0	4.495843	-2.866991	8.229372	0.002962	-0.014222	0.060323	-0.997559	-0.535645	-0.901855	-0.467458	-0.138012	0.248495	-0.837070	-18.896029	-27.604999	126.320171	-0.524872	0.713999	0.463373	-0.851180	-0.439467	-0.286986	-0.001270	-0.545045	0.838406	0	0	0
13886	0	0	0	0	0	4.538800	-2.909482	8.227238	0.034384	-0.023463	0.051929	-0.997803	-0.537354	-0.894043	-0.467206	-0.138135	0.248446	-0.837205	-18.892765	-27.609634	126.354314	-0.525275	0.713656	0.463445	-0.850932	-0.439986	-0.286926	-0.000857	-0.545075	0.838387	0	0	0
13887	0	0	0	0	0	4.520265	-2.728287	8.237793	0.017974	-0.010190	0.054929	-0.998535	-0.541748	-0.898438	-0.466997	-0.138150	0.248440	-0.837321	-18.898394	-27.606343	126.383700	-0.525657	0.713408	0.463394	-0.850697	-0.440382	-0.287017	-0.000689	-0.545080	0.838384	0	0	0
13888	0	0	0	0	0	4.595221	-2.639378	8.277145	0.004598	-0.016076	0.064893	-1.005615	-0.538086	-0.891357	-0.466720	-0.138156	0.248508	-0.837454	-18.915153	-27.604561	126.424225	-0.526170	0.713048	0.463367	-0.850379	-0.440832	-0.287267	-0.000568	-0.545188	0.838313	0	0	0
13889	0	0	0	0	0	4.527552	-2.598770	8.302762	-0.020472	-0.010312	0.067895	-0.995850	-0.532959	-0.889893	-0.466491	-0.138067	0.248673	-0.837547	-18.946316	-27.599116	126.460548	-0.526648	0.712749	0.463282	-0.850083	-0.441096	-0.287737	-0.000732	-0.545365	0.838199	0	0	0
13890	0	0	0	0	0	4.475365	-2.626306	8.254013	-0.038025	-0.007899	0.069444	-0.993408	-0.535645	-0.889648	-0.466235	-0.137934	0.248903	-0.837644	-18.987979	-27.592017	126.502132	-0.527199	0.712413	0.463173	-0.849741	-0.441345	-0.288365	-0.001016	-0.545602	0.838043	0	0	0
13891	0	0	0	0	0	4.479947	-2.701036	8.289654	-0.065183	-0.008465	0.071642	-1.003906	-0.532471	-0.891602	-0.466001	-0.137733	0.249250	-0.837704	-19.045639	-27.584758	126.543281	-0.527745	0.712081	0.463060	-0.849401	-0.441435	-0.289227	-0.001542	-0.545962	0.837808	0	0	0
13892	0	0	0	0	0	4.525609	-2.857822	8.204802	-0.065731	-0.005515	0.074640	-1.007080	-0.530518	-0.889404	-0.465745	-0.137519	0.249594	-0.837779	-19.104393	-27.575325	126.587514	-0.528340	0.711735	0.462914	-0.849030	-0.441569	-0.290111	-0.002074	-0.546306	0.837583	0	0	0
13893	0	0	0	0	0	4.600868	-2.859688	8.204067	-0.077876	-0.007433	0.072674	-1.009766	-0.532227	-0.892334	-0.465500	-0.137289	0.249991	-0.837834	-19.169634	-27.567419	126.631344	-0.528923	0.711382	0.462792	-0.848666	-0.441629	-0.291086	-0.002691	-0.546718	0.837313	0	0	0
13894	0	0	0	0	0	4.624098	-2.954385	8.139030	-0.061250	0.000031	0.070548	-1.003906	-0.532227	-0.895264	-0.465265	-0.137067	0.250300	-0.837909	-19.224093	-27.555674	126.671871	-0.529483	0.711084	0.462610	-0.848315	-0.441757	-0.291913	-0.003213	-0.547002	0.837125	0	0	0
13895	0	0	0	0	0	4.544692	-3.039857	8.119046	-0.037633	0.000121	0.056459	-1.000732	-0.530762	-0.896484	-0.465093	-0.136912	0.250503	-0.837969	-19.260823	-27.546643	126.701024	-0.529888	0.710873	0.462471	-0.848060	-0.441875	-0.292473	-0.003557	-0.547181	0.837007	0	0	0
13896	0	0	0	0	0	4.454384	-3.112426	8.232320	-0.018301	-0.006676	0.041209	-1.010010	-0.522217	-0.896484	-0.464942	-0.136855	0.250627	-0.838025	-19.283039	-27.544026	126.725061	-0.530199	0.710667	0.462430	-0.847865	-0.442029	-0.292805	-0.003679	-0.547323	0.836913	0	0	0
13897	0	0	0	0	0	4.574433	-3.232369	8.192865	-0.005488	-0.009714	0.023767	-1.007324	-0.523438	-0.892578	-0.464861	-0.136859	0.250695	-0.838049	-19.293276	-27.546318	126.737950	-0.530347	0.710533	0.462466	-0.847772	-0.442112	-0.292948	-0.003688	-0.547430	0.836843	0	0	0
13898	0	0	0	0	0	4.470108	-3.284621	8.241563	0.022697	-0.010378	0.003199	-1.004395	-0.531982	-0.896729	-0.464838	-0.136960	0.250630	-0.838065	-19.281645	-27.552890	126.739592	-0.530336	0.710475	0.462567	-0.847781	-0.442221	-0.292761	-0.003442	-0.547417	0.836853	0	0	0
13899	0	0	0	0	0	4.581322	-3.296840	8.230462	0.038665	-0.007140	-0.018842	-1.010254	-0.527344	-0.890869	-0.464911	-0.137109	0.250478	-0.838045	-19.254225	-27.561922	126.725444	-0.530117	0.710548	0.462707	-0.847919	-0.442237	-0.292336	-0.003093	-0.547310	0.836924	0	0	0
13900	0	0	0	0	0	4.546908	-3.327950	8.250074	0.078637	0.001059	-0.040975	-1.002441	-0.526855	-0.885742	-0.465049	-0.137347	0.250122	-0.838036	-19.196937	-27.570644	126.697685	-0.529731	0.710748	0.462842	-0.848162	-0.442337	-0.291476	-0.002434	-0.546969	0.837149	0	0	0
13901	0	0	0	0	0	4.589410	-3.244855	8.187918	0.097225	0.002797	-0.062103	-0.999756	-0.528809	-0.890137	-0.465251	-0.137654	0.249668	-0.838009	-19.122778	-27.582569	126.658450	-0.529186	0.711033	0.463026	-0.848504	-0.442415	-0.290361	-0.001606	-0.546535	0.837435	0	0	0
13902	0	0	0	0	0	4.547708	-3.107712	8.231658	0.120778	0.007579	-0.088560	-1.005371	-0.534912	-0.881836	-0.465566	-0.138022	0.249087	-0.837946	-19.027218	-27.596606	126.600209	-0.528396	0.711480	0.463244	-0.848998	-0.442407	-0.288927	-0.000623	-0.545960	0.837811	0	0	0
13903	0	0	0	0	0	4.586521	-2.913310	8.251257	0.126748	0.011021	-0.097500	-0.999512	-0.527588	-0.889648	-0.465916	-0.138404	0.248466	-0.837873	-18.925159	-27.610550	126.536243	-0.527534	0.711979	0.463459	-0.849534	-0.442374	-0.287397	0.000402	-0.545336	0.838217	0	0	0
13904	0	0	0	0	0	4.553548	-2.864117	8.289974	0.129193	0.009771	-0.104158	-1.005615	-0.523926	-0.891357	-0.466293	-0.138802	0.247835	-0.837785	-18.820081	-27.626106	126.467929	-0.526610	0.712506	0.463700	-0.850106	-0.442298	-0.285819	0.001446	-0.544709	0.838624	0	0	0
13905	0	0	0	0	0	4.498528	-2.823611	8.331683	0.127249	0.002538	-0.108411	-0.996338	-0.540527	-0.888916	-0.466640	-0.139241	0.247220	-0.837700	-18.715912	-27.646185	126.404043	-0.525718	0.712962	0.464010	-0.850655	-0.442259	-0.284242	0.002559	-0.544144	0.838988	0	0	0
13906	0	0	0	0	0	4.568028	-2.697879	8.362835	0.127871	-0.011097	-0.108747	-1.000977	-0.543701	-0.895508	-0.467011	-0.139729	0.246639	-0.837583	-18.612207	-27.673690	126.337148	-0.524754	0.713396	0.464435	-0.851246	-0.442141	-0.282651	0.003703	-0.543671	0.839290	0	0	0
13907	0	0	0	0	0	4.609488	-2.586045	8.342213	0.111667	-0.020144	-0.104186	-0.999512	-0.542969	-0.891357	-0.467390	-0.140203	0.246153	-0.837436	-18.519718	-27.705100	126.271035	-0.523779	0.713795	0.464921	-0.851841	-0.441911	-0.281215	0.004723	-0.543333	0.839504	0	0	0
13908	0	0	0	0	0	4.585096	-2.585974	8.293301	0.097658	-0.018401	-0.103625	-0.990234	-0.547119	-0.888428	-0.467751	-0.140644	0.245719	-0.837288	-18.435357	-27.735451	126.208644	-0.522856	0.714166	0.465390	-0.852402	-0.441663	-0.279901	0.005649	-0.543047	0.839683	0	0	0
13909	0	0	0	0	0	4.635658	-2.638747	8.250760	0.090115	-0.019933	-0.099098	-0.996582	-0.550293	-0.890625	-0.468121	-0.141061	0.245325	-0.837126	-18.356534	-27.765617	126.145849	-0.521929	0.714541	0.465856	-0.852964	-0.441356	-0.278668	0.006488	-0.542803	0.839835	0	0	0
13910	0	0	0	0	0	4.635107	-2.714448	8.160970	0.088614	-0.013614	-0.108366	-0.997070	-0.548584	-0.886719	-0.468514	-0.141467	0.244914	-0.836958	-18.275424	-27.794062	126.079439	-0.520964	0.714959	0.466295	-0.853547	-0.441024	-0.277407	0.007313	-0.542524	0.840009	0	0	0
13911	0	0	0	0	0	4.638876	-2.630941	8.178817	0.085385	-0.008702	-0.104492	-0.999756	-0.554443	-0.877930	-0.468921	-0.141833	0.244510	-0.836786	-18.196600	-27.819000	126.011223	-0.519993	0.715414	0.466680	-0.854133	-0.440656	-0.276187	0.008057	-0.542222	0.840197	0	0	0
13912	0	0	0	0	0	4.606841	-2.656779	8.199077	0.081769	-0.002218	-0.102960	-0.991211	-0.553467	-0.880127	-0.469309	-0.142169	0.244104	-0.836630	-18.119784	-27.840113	125.945721	-0.519074	0.715869	0.467006	-0.854685	-0.440324	-0.275007	0.008765	-0.541892	0.840403	0	0	0
13913	0	0	0	0	0	4.628304	-2.612394	8.240440	0.080669	0.008597	-0.100068	-0.995605	-0.554199	-0.885498	-0.469705	-0.142454	0.243679	-0.836483	-18.043076	-27.854948	125.878935	-0.518168	0.716375	0.467235	-0.855227	-0.439995	-0.273844	0.009406	-0.541489	0.840655	0	0	0
13914	0	0	0	0	0	4.642643	-2.573181	8.227994	0.072573	0.014891	-0.095670	-0.993896	-0.554199	-0.878906	-0.470090	-0.142687	0.243276	-0.836345	-17.971959	-27.865295	125.814417	-0.517312	0.716890	0.467394	-0.855739	-0.439664	-0.272775	0.009947	-0.541077	0.840914	0	0	0
13915	0	0	0	0	0	4.569887	-2.542932	8.325399	0.061091	0.015550	-0.092519	-0.990967	-0.555664	-0.884521	-0.470470	-0.142887	0.242922	-0.836200	-17.908142	-27.874718	125.751758	-0.516482	0.717393	0.467540	-0.856235	-0.439294	-0.271814	0.010390	-0.540711	0.841144	0	0	0
13916	0	0	0	0	0	4.616992	-2.456099	8.315307	0.054780	0.013712	-0.085836	-0.991455	-0.559814	-0.886719	-0.470825	-0.143072	0.242604	-0.836061	-17.850129	-27.883850	125.693504	-0.515709	0.717857	0.467681	-0.856696	-0.438935	-0.270940	0.010786	-0.540386	0.841348	0	0	0
13917	0	0	0	0	0	4.639091	-2.498776	8.319072	0.038792	0.009275	-0.076793	-0.984375	-0.559326	-0.877441	-0.471162	-0.143221	0.242370	-0.835913	-17.804173	-27.893677	125.639642	-0.514987	0.718276	0.467832	-0.857127	-0.438525	-0.270240	0.011049	-0.540162	0.841489	0	0	0
13918	0	0	0	0	0	4.563657	-2.501310	8.318692	0.024178	0.003632	-0.069069	-0.995850	-0.556152	-0.882324	-0.471457	-0.143355	0.242215	-0.835769	-17.769440	-27.905291	125.593707	-0.514356	0.718612	0.468011	-0.857503	-0.438121	-0.269701	0.011235	-0.540044	0.841562	0	0	0
13919	0	0	0	0	0	4.588199	-2.558718	8.300179	0.021450	-0.004213	-0.062115	-0.984619	-0.568115	-0.887451	-0.471705	-0.143510	0.242093	-0.835638	-17.738904	-27.919995	125.554846	-0.513799	0.718863	0.468238	-0.857834	-0.437771	-0.269216	0.011452	-0.539994	0.841591	0	0	0
13920	0	0	0	0	0	4.598714	-2.633002	8.317607	0.017434	-0.006432	-0.058653	-0.981201	-0.558350	-0.883545	-0.471948	-0.143658	0.241998	-0.835503	-17.711947	-27.935240	125.517306	-0.513255	0.719098	0.468473	-0.858157	-0.437404	-0.268782	0.011632	-0.539977	0.841599	0	0	0
13921	0	0	0	0	0	4.568981	-2.619107	8.309353	0.015316	-0.012340	-0.057670	-0.989746	-0.562012	-0.885010	-0.472215	-0.143813	0.241929	-0.835345	-17.686762	-27.953311	125.476814	-0.512661	0.719340	0.468752	-0.858510	-0.436966	-0.268367	0.011782	-0.540010	0.841576	0	0	0
13922	0	0	0	0	0	4.630645	-2.580160	8.266093	0.018398	-0.015835	-0.056184	-0.979248	-0.560059	-0.880615	-0.472436	-0.143999	0.241853	-0.835210	-17.660803	-27.973231	125.442623	-0.512137	0.719513	0.469059	-0.858820	-0.436623	-0.267936	0.012018	-0.540057	0.841543	0	0	0
13923	0	0	0	0	0	4.678518	-2.629228	8.243437	0.012632	-0.010403	-0.056791	-0.984619	-0.568359	-0.888184	-0.472676	-0.144147	0.241788	-0.835067	-17.637355	-27.990136	125.406069	-0.511598	0.719727	0.469320	-0.859139	-0.436231	-0.267550	0.012169	-0.540089	0.841520	0	0	0
13924	0	0	0	0	0	4.606698	-2.717539	8.205194	0.021837	-0.010646	-0.056684	-0.987061	-0.565674	-0.879639	-0.472903	-0.144320	0.241686	-0.834939	-17.608768	-28.007282	125.370518	-0.511070	0.719930	0.469584	-0.859450	-0.435902	-0.267088	0.012408	-0.540084	0.841520	0	0	0
13925	0	0	0	0	0	4.641828	-2.663364	8.208171	0.020876	-0.001232	-0.059120	-0.990967	-0.562500	-0.890137	-0.473179	-0.144446	0.241566	-0.834795	-17.578895	-28.019598	125.327736	-0.510474	0.720229	0.469774	-0.859802	-0.435495	-0.266618	0.012558	-0.540014	0.841563	0	0	0
13926	0	0	0	0	0	4.641524	-2.646637	8.230027	0.029420	0.001945	-0.054340	-0.988281	-0.564941	-0.883301	-0.473405	-0.144582	0.241403	-0.834690	-17.545459	-28.029428	125.291140	-0.509967	0.720489	0.469925	-0.860099	-0.435224	-0.266103	0.012798	-0.539886	0.841641	0	0	0
13927	0	0	0	0	0	4.589042	-2.581579	8.220694	0.032004	0.010727	-0.057761	-0.984863	-0.560547	-0.878174	-0.473659	-0.144688	0.241208	-0.834585	-17.508795	-28.034879	125.250117	-0.509425	0.720817	0.470009	-0.860416	-0.434933	-0.265551	0.013009	-0.539682	0.841769	0	0	0
13928	0	0	0	0	0	4.606570	-2.530862	8.282044	0.032398	0.009166	-0.055418	-0.985107	-0.563965	-0.883789	-0.473896	-0.144802	0.241015	-0.834486	-17.472660	-28.040908	125.211427	-0.508910	0.721121	0.470102	-0.860718	-0.434669	-0.265005	0.013238	-0.539489	0.841889	0	0	0
13929	0	0	0	0	0	4.649147	-2.554710	8.303116	0.028703	0.005834	-0.047884	-0.987305	-0.570068	-0.871826	-0.474083	-0.144916	0.240848	-0.834408	-17.441210	-28.047352	125.180508	-0.508490	0.721352	0.470201	-0.860962	-0.434476	-0.264527	0.013474	-0.539335	0.841984	0	0	0
13930	0	0	0	0	0	4.572591	-2.618718	8.308243	0.028768	0.000484	-0.046582	-0.982666	-0.569824	-0.881836	-0.474275	-0.145046	0.240697	-0.834320	-17.410509	-28.056572	125.148966	-0.508050	0.721570	0.470343	-0.861219	-0.434256	-0.264053	0.013717	-0.539220	0.842053	0	0	0
13931	0	0	0	0	0	4.626685	-2.602104	8.334912	0.036396	-0.008147	-0.046663	-0.986816	-0.562744	-0.878906	-0.474453	-0.145232	0.240534	-0.834233	-17.375955	-28.070620	125.118821	-0.507604	0.721743	0.470559	-0.861476	-0.434075	-0.263511	0.014071	-0.539135	0.842102	0	0	0
13932	0	0	0	0	0	4.605414	-2.594482	8.359472	0.025710	-0.027780	-0.055427	-0.981201	-0.571289	-0.876953	-0.474651	-0.145484	0.240456	-0.834099	-17.346977	-28.096777	125.087252	-0.507082	0.721846	0.470962	-0.861777	-0.433775	-0.263021	0.014431	-0.539238	0.842030	0	0	0
13933	0	0	0	0	0	4.623399	-2.632647	8.327963	0.027651	-0.042447	-0.064607	-0.984619	-0.565674	-0.885254	-0.474854	-0.145817	0.240396	-0.833943	-17.315492	-28.132505	125.054650	-0.506503	0.721894	0.471512	-0.862110	-0.433447	-0.262471	0.014900	-0.539437	0.841894	0	0	0
13934	0	0	0	0	0	4.616850	-2.655453	8.341665	0.035431	-0.056881	-0.065121	-0.981934	-0.573975	-0.878418	-0.475049	-0.146225	0.240340	-0.833776	-17.280701	-28.176202	125.022637	-0.505893	0.721882	0.472185	-0.862457	-0.433129	-0.261852	0.015490	-0.539708	0.841710	0	0	0
13935	0	0	0	0	0	4.646644	-2.580557	8.330507	0.032700	-0.065477	-0.069217	-0.989258	-0.574707	-0.879150	-0.475259	-0.146664	0.240314	-0.833587	-17.247005	-28.225126	124.988934	-0.505237	0.721849	0.472937	-0.862831	-0.432756	-0.261238	0.016092	-0.540052	0.841478	0	0	0
13936	0	0	0	0	0	4.596056	-2.609723	8.371244	0.035770	-0.084362	-0.069625	-0.984863	-0.568604	-0.879150	-0.475440	-0.147193	0.240318	-0.833390	-17.213109	-28.284593	124.959328	-0.504582	0.721708	0.473851	-0.863200	-0.432408	-0.260594	0.016824	-0.540520	0.841163	0	0	0
13937	0	0	0	0	0	4.613962	-2.669496	8.406270	0.045793	-0.118966	-0.070399	-0.986816	-0.573486	-0.881348	-0.475571	-0.147891	0.240362	-0.833179	-17.176368	-28.363056	124.936366	-0.503921	0.721377	0.475057	-0.863566	-0.432117	-0.259863	0.017821	-0.541193	0.840709	0	0	0
13938	0	0	0	0	0	4.613393	-2.678216	8.437678	0.053486	-0.153952	-0.079004	-0.983154	-0.580811	-0.877197	-0.475694	-0.148762	0.240450	-0.832928	-17.135773	-28.462172	124.914163	-0.503170	0.720897	0.476578	-0.863977	-0.431798	-0.259025	0.019055	-0.542086	0.840107	0	0	0
13939	0	0	0	0	0	4.636871	-2.723511	8.490781	0.066069	-0.205667	-0.089964	-0.985596	-0.572998	-0.868896	-0.475813	-0.149885	0.240604	-0.832614	-17.089240	-28.591261	124.891756	-0.502272	0.720212	0.478558	-0.864463	-0.431423	-0.258026	0.020627	-0.543295	0.839288	0	0	0
13940	0	0	0	0	0	5.321188	-3.082344	8.436626	0.070145	-0.271081	-0.110447	-0.983643	-0.578369	-0.869873	-0.475912	-0.151321	0.240878	-0.832218	-17.040249	-28.759787	124.872134	-0.501219	0.719226	0.481139	-0.865026	-0.430971	-0.256895	0.022591	-0.544958	0.838159	0	0	0
13941	0	0	0	0	0	3.322572	-2.619244	8.711206	0.098287	-0.321755	-0.138716	-0.987305	-0.584229	-0.867188	-0.476042	-0.153069	0.241132	-0.831751	-16.971094	-28.960669	124.844717	-0.499908	0.718076	0.484209	-0.865716	-0.430479	-0.255389	0.025053	-0.546859	0.836850	0	0	0
13942	0	0	0	0	0	4.874391	-2.536649	8.610646	0.170138	-0.385678	-0.147141	-0.990967	-0.580566	-0.854980	-0.476076	-0.155264	0.241234	-0.831295	-16.863852	-29.198086	124.823370	-0.498490	0.716609	0.487830	-0.866428	-0.430316	-0.253238	0.028449	-0.548907	0.835399	0	0	0
13943	0	0	0	0	0	4.624480	-2.730273	8.554319	0.137123	-0.495643	-0.148406	-0.996582	-0.585938	-0.861084	-0.476009	-0.157835	0.241731	-0.830704	-16.784940	-29.495895	124.821070	-0.497007	0.714538	0.492361	-0.867153	-0.429963	-0.251352	0.032097	-0.551876	0.833308	0	0	0
13944	0	0	0	0	0	4.475682	-2.433101	8.698220	0.162142	-0.576689	-0.142766	-0.991455	-0.589355	-0.847656	-0.475793	-0.160797	0.242320	-0.830088	-16.700942	-29.837334	124.837813	-0.495531	0.711972	0.497539	-0.867829	-0.429804	-0.249282	0.036362	-0.555306	0.830851	0	0	0
13945	0	0	0	0	0	4.649220	-2.451735	8.761675	0.195529	-0.677704	-0.137428	-0.994873	-0.603516	-0.827637	-0.475418	-0.164241	0.243014	-0.829426	-16.608865	-30.233050	124.874151	-0.494005	0.708821	0.503518	-0.868473	-0.429844	-0.246958	0.041385	-0.559291	0.827938	0	0	0
13946	0	0	0	0	0	4.617647	-2.387550	8.732210	0.223767	-0.784255	-0.131022	-1.000244	-0.596191	-0.830811	-0.474839	-0.168192	0.243845	-0.828722	-16.512917	-30.686609	124.936577	-0.492479	0.704993	0.510342	-0.869044	-0.430136	-0.244431	0.047194	-0.563887	0.824503	0	0	0
13947	0	0	0	0	0	4.685205	-2.532591	8.686238	0.253286	-0.885797	-0.132285	-1.010498	-0.603760	-0.816162	-0.474138	-0.172624	0.244790	-0.827932	-16.408997	-31.196193	125.012384	-0.490788	0.700596	0.517970	-0.869622	-0.430542	-0.241643	0.053714	-0.569034	0.820558	0	0	0
13948	0	0	0	0	0	4.716092	-2.622568	8.660601	0.276922	-0.977721	-0.147446	-1.019287	-0.604248	-0.807373	-0.473325	-0.177514	0.245834	-0.827054	-16.296463	-31.758957	125.099553	-0.488904	0.695652	0.526347	-0.870208	-0.431058	-0.238592	0.060909	-0.574680	0.816108	0	0	0
13949	0	0	0	0	0	4.790706	-2.768055	8.554634	0.305130	-1.061391	-0.177895	-1.020264	-0.609131	-0.781494	-0.472513	-0.182845	0.246926	-0.826031	-16.165600	-32.372622	125.179548	-0.486599	0.690321	0.535423	-0.870918	-0.431518	-0.235144	0.068720	-0.580731	0.811190	0	0	0
13950	0	0	0	0	0	4.771616	-2.808031	8.553297	0.334657	-1.157341	-0.224241	-1.036377	-0.613281	-0.771973	-0.471713	-0.188698	0.248072	-0.824827	-16.011712	-33.046801	125.248467	-0.483759	0.684543	0.545324	-0.871785	-0.431893	-0.231211	0.077248	-0.587256	0.805707	0	0	0
13951	0	0	0	0	0	5.004693	-2.909749	8.621486	0.372225	-1.257619	-0.276045	-1.033936	-0.618652	-0.751953	-0.470939	-0.195115	0.249235	-0.823425	-15.827043	-33.784765	125.301403	-0.480293	0.678307	0.556075	-0.872825	-0.432196	-0.226678	0.086576	-0.594228	0.799624	0	0	0
13952	0	0	0	0	0	4.898227	-2.881228	8.607353	0.402715	-1.369226	-0.344858	-1.045410	-0.625488	-0.736328	-0.470265	-0.202134	0.250461	-0.821743	-15.610504	-34.594887	125.325584	-0.475985	0.671621	0.567770	-0.874128	-0.432239	-0.221517	0.096637	-0.601742	0.792822	0	0	0
13953	0	0	0	0	0	4.861633	-2.917528	8.577657	0.432137	-1.512210	-0.449244	-1.046143	-0.626221	-0.724365	-0.469778	-0.209932	0.251777	-0.819662	-15.349469	-35.500156	125.302785	-0.470474	0.664406	0.580705	-0.875830	-0.431834	-0.215501	0.107588	-0.609987	0.785074	0	0	0
13954	0	0	0	0	0	5.017379	-2.836271	8.644595	0.463915	-1.664590	-0.562710	-1.050781	-0.649170	-0.696533	-0.469501	-0.218552	0.253187	-0.817129	-15.038113	-36.506456	125.224261	-0.463609	0.656617	0.594913	-0.877955	-0.430931	-0.208553	0.119428	-0.618994	0.776263	0	0	0
13955	0	0	0	0	0	4.883842	-2.700383	8.685579	0.502603	-1.835907	-0.677505	-1.055176	-0.651611	-0.677734	-0.469397	-0.228085	0.254690	-0.814111	-14.668742	-37.623853	125.087813	-0.455287	0.648101	0.610475	-0.880465	-0.429598	-0.200567	0.132271	-0.628817	0.766220	0	0	0
13956	0	0	0	0	0	4.890100	-2.729839	8.741624	0.546350	-2.043123	-0.793481	-1.059814	-0.656738	-0.641357	-0.469391	-0.238688	0.256343	-0.810549	-14.237721	-38.872269	124.896266	-0.445401	0.638556	0.627586	-0.883300	-0.427922	-0.191480	0.146287	-0.639632	0.754633	0	0	0
13957	0	0	0	0	0	4.897625	-2.773716	8.839518	0.622398	-2.288413	-0.910349	-1.063965	-0.674561	-0.611084	-0.469384	-0.250579	0.258084	-0.806400	-13.723114	-40.271841	124.647511	-0.433778	0.627682	0.646415	-0.886364	-0.426142	-0.181003	0.161852	-0.651474	0.741206	0	0	0
