// General information: 
//  MT Manager version: 2022.2.0 
//  XDA version: 2022.2.0 build 7381 rev 124627 built on 2023-07-19
// Device information: 
//  DeviceId: 10B426F3
//  ProductCode: MTW2-3A7G6
//  Firmware Version: 4.14.0
//  Hardware Version: 3.0.0
// Device settings: 
//  Filter Profile: human(46.1)
//  Option Flags: Orientation Smoother Disabled, Position/Velocity Smoother Disabled, Continuous Zero Rotation Update Disabled, AHS Disabled, ICC Disabled
// Coordinate system: ENU
PacketCounter	SampleTimeFine	Year	Month	Day	Second	Acc_X	Acc_Y	Acc_Z	Gyr_X	Gyr_Y	Gyr_Z	Mag_X	Mag_Y	Mag_Z	Quat_q0	Quat_q1	Quat_q2	Quat_q3	Roll	Pitch	Yaw	Mat[1][1]	Mat[2][1]	Mat[3][1]	Mat[1][2]	Mat[2][2]	Mat[3][2]	Mat[1][3]	Mat[2][3]	Mat[3][3]	Vel_E	Vel_N	Vel_U
57202	0	0	0	0	0	4.457510	2.093428	8.511030	-0.001093	0.004418	0.007297	-0.749268	-0.008789	-0.496826	0.338924	-0.180026	-0.186814	-0.904335	14.005630	-26.887388	-142.274006	-0.705442	-0.545739	0.452238	0.680264	-0.700462	0.215854	0.198976	0.459915	0.865383	0	0	0
57203	0	0	0	0	0	4.490603	2.121040	8.489010	0.000516	0.004313	0.005331	-0.754639	-0.011963	-0.493652	0.338924	-0.180021	-0.186821	-0.904334	14.006643	-26.887161	-142.274196	-0.705446	-0.545738	0.452235	0.680265	-0.700457	0.215870	0.198962	0.459924	0.865381	0	0	0
57204	0	0	0	0	0	4.473613	2.106704	8.500384	-0.003836	0.005896	0.005204	-0.763184	-0.007324	-0.489746	0.338923	-0.180018	-0.186805	-0.904339	14.004924	-26.886183	-142.273995	-0.705450	-0.545745	0.452220	0.680258	-0.700470	0.215846	0.198969	0.459895	0.865395	0	0	0
57205	0	0	0	0	0	4.478159	2.072652	8.465480	0.000217	0.001802	0.008246	-0.743896	-0.017090	-0.487793	0.338933	-0.180028	-0.186813	-0.904331	14.005120	-26.887755	-142.272758	-0.705428	-0.545753	0.452244	0.680279	-0.700451	0.215846	0.198976	0.459916	0.865382	0	0	0
57206	0	0	0	0	0	4.456556	2.091951	8.511892	-0.002227	0.005790	0.003238	-0.753906	-0.013184	-0.490967	0.338923	-0.180022	-0.186807	-0.904338	14.004946	-26.886690	-142.274033	-0.705447	-0.545742	0.452228	0.680260	-0.700470	0.215845	0.198976	0.459900	0.865391	0	0	0
57207	0	0	0	0	0	4.509695	2.091679	8.485190	-0.002047	0.003215	0.009736	-0.752197	-0.014404	-0.496582	0.338939	-0.180031	-0.186800	-0.904331	14.003325	-26.887683	-142.271648	-0.705418	-0.545767	0.452243	0.680286	-0.700452	0.215819	0.198988	0.459897	0.865389	0	0	0
57208	0	0	0	0	0	4.456232	2.091023	8.512290	-0.000350	0.002488	0.006216	-0.748047	-0.017090	-0.491699	0.338941	-0.180039	-0.186805	-0.904328	14.003637	-26.888764	-142.271560	-0.705411	-0.545763	0.452260	0.680291	-0.700446	0.215822	0.198996	0.459911	0.865380	0	0	0
57209	0	0	0	0	0	4.475067	2.087836	8.483817	-0.001659	0.005104	0.005267	-0.750977	-0.017334	-0.481689	0.338939	-0.180034	-0.186801	-0.904330	14.003365	-26.888088	-142.271666	-0.705416	-0.545765	0.452249	0.680287	-0.700451	0.215819	0.198992	0.459901	0.865386	0	0	0
57210	0	0	0	0	0	4.492445	2.076469	8.496909	-0.003180	0.004588	0.005678	-0.750977	-0.015869	-0.491455	0.338936	-0.180037	-0.186791	-0.904333	14.002146	-26.887993	-142.271855	-0.705418	-0.545763	0.452248	0.680280	-0.700463	0.215801	0.199007	0.459885	0.865391	0	0	0
57211	0	0	0	0	0	4.472221	2.103730	8.501853	-0.000438	0.003110	0.007770	-0.745361	-0.007813	-0.488281	0.338945	-0.180042	-0.186794	-0.904328	14.002009	-26.888773	-142.270712	-0.705402	-0.545773	0.452260	0.680296	-0.700449	0.215797	0.199009	0.459895	0.865386	0	0	0
57212	0	0	0	0	0	4.488717	2.117416	8.490912	-0.001396	0.003238	0.000604	-0.752441	-0.008057	-0.487305	0.338921	-0.180043	-0.186798	-0.904336	14.003211	-26.888678	-142.273923	-0.705434	-0.545734	0.452258	0.680261	-0.700478	0.215815	0.199019	0.459897	0.865382	0	0	0
57213	0	0	0	0	0	4.471773	2.103129	8.502237	-0.003180	0.004588	0.005677	-0.748047	-0.006592	-0.487061	0.338920	-0.180044	-0.186788	-0.904338	14.001989	-26.888347	-142.273854	-0.705435	-0.545737	0.452253	0.680256	-0.700487	0.215798	0.199029	0.459879	0.865389	0	0	0
57214	0	0	0	0	0	4.473913	2.085913	8.484899	0.000997	0.004248	0.008913	-0.750977	-0.010254	-0.484375	0.338938	-0.180045	-0.186793	-0.904330	14.002064	-26.888936	-142.271575	-0.705410	-0.545762	0.452262	0.680286	-0.700458	0.215798	0.199017	0.459894	0.865384	0	0	0
57215	0	0	0	0	0	4.471449	2.102326	8.502606	-0.001871	0.001971	0.006627	-0.751953	-0.011963	-0.493896	0.338940	-0.180056	-0.186792	-0.904328	14.001508	-26.890190	-142.271321	-0.705399	-0.545759	0.452282	0.680291	-0.700457	0.215787	0.199036	0.459899	0.865377	0	0	0
57216	0	0	0	0	0	4.456906	2.071162	8.496367	-0.000311	0.006864	0.007963	-0.750000	-0.008301	-0.487061	0.338954	-0.180046	-0.186789	-0.904325	14.000995	-26.889154	-142.269398	-0.705388	-0.545787	0.452266	0.680310	-0.700441	0.215781	0.199015	0.459890	0.865387	0	0	0
57217	0	0	0	0	0	4.470995	2.101450	8.503062	-0.001959	0.002593	0.008180	-0.751709	-0.011719	-0.500732	0.338963	-0.180056	-0.186785	-0.904320	13.999908	-26.890278	-142.268079	-0.705368	-0.545798	0.452283	0.680326	-0.700431	0.215763	0.199030	0.459892	0.865382	0	0	0
57218	0	0	0	0	0	4.454096	2.087124	8.514365	-0.000136	0.005620	0.004855	-0.756592	-0.012939	-0.492432	0.338963	-0.180048	-0.186787	-0.904322	14.000422	-26.889416	-142.268138	-0.705374	-0.545802	0.452270	0.680324	-0.700430	0.215772	0.199015	0.459890	0.865387	0	0	0
57219	0	0	0	0	0	4.489525	2.098043	8.474815	0.000605	0.003690	0.003776	-0.750732	-0.014893	-0.492676	0.338955	-0.180045	-0.186797	-0.904323	14.001968	-26.889320	-142.269394	-0.705386	-0.545787	0.452268	0.680314	-0.700432	0.215795	0.199005	0.459904	0.865382	0	0	0
57220	0	0	0	0	0	4.487774	2.089777	8.516541	-0.000790	0.006929	0.004379	-0.750732	-0.011719	-0.492188	0.338952	-0.180031	-0.186794	-0.904327	14.002240	-26.887704	-142.269798	-0.705400	-0.545790	0.452243	0.680305	-0.700439	0.215803	0.198986	0.459891	0.865393	0	0	0
57221	0	0	0	0	0	4.487514	2.089392	8.516772	0.000042	0.003044	0.011351	-0.744629	-0.001953	-0.482422	0.338978	-0.180039	-0.186796	-0.904316	14.001373	-26.889017	-142.266432	-0.705360	-0.545825	0.452264	0.680347	-0.700403	0.215787	0.198985	0.459904	0.865386	0	0	0
57222	0	0	0	0	0	4.450578	2.102760	8.532813	-0.002223	0.005791	0.003236	-0.749512	-0.004150	-0.492676	0.338969	-0.180033	-0.186790	-0.904322	14.001084	-26.887931	-142.267408	-0.705376	-0.545818	0.452247	0.680331	-0.700419	0.215785	0.198983	0.459887	0.865396	0	0	0
57223	0	0	0	0	0	4.471748	2.082824	8.486799	-0.000262	0.001865	0.004661	-0.753174	-0.011719	-0.480957	0.338963	-0.180040	-0.186798	-0.904321	14.002011	-26.888972	-142.268395	-0.705379	-0.545801	0.452263	0.680325	-0.700421	0.215797	0.198992	0.459904	0.865384	0	0	0
57224	0	0	0	0	0	4.466880	2.116246	8.522037	0.000606	0.003690	0.003775	-0.756104	-0.011963	-0.486572	0.338957	-0.180039	-0.186808	-0.904321	14.003370	-26.889174	-142.269467	-0.705388	-0.545787	0.452266	0.680317	-0.700422	0.215817	0.198987	0.459919	0.865378	0	0	0
57225	0	0	0	0	0	4.454782	2.068589	8.498107	0.001826	0.001695	0.006279	-0.747803	-0.012695	-0.495361	0.338960	-0.180045	-0.186824	-0.904316	14.005050	-26.890534	-142.269472	-0.705380	-0.545780	0.452287	0.680327	-0.700406	0.215840	0.198984	0.459952	0.865361	0	0	0
57226	0	0	0	0	0	4.467547	2.091128	8.546178	0.001953	0.005449	0.006472	-0.752441	-0.015869	-0.488281	0.338968	-0.180036	-0.186835	-0.904312	14.006378	-26.890043	-142.268738	-0.705376	-0.545791	0.452280	0.680339	-0.700387	0.215861	0.198956	0.459967	0.865360	0	0	0
57227	0	0	0	0	0	4.487665	2.096178	8.476262	0.001866	0.006071	0.008025	-0.750977	-0.015625	-0.488770	0.338983	-0.180024	-0.186842	-0.904307	14.007280	-26.889212	-142.266974	-0.705364	-0.545817	0.452267	0.680362	-0.700361	0.215876	0.198921	0.459976	0.865363	0	0	0
57228	0	0	0	0	0	4.485103	2.112761	8.493980	-0.000262	0.001865	0.004661	-0.747314	-0.001709	-0.495605	0.338975	-0.180033	-0.186851	-0.904307	14.008179	-26.890486	-142.268138	-0.705367	-0.545797	0.452287	0.680354	-0.700365	0.215887	0.198935	0.459995	0.865349	0	0	0
57229	0	0	0	0	0	4.468186	2.098596	8.505243	-0.000134	0.005620	0.004853	-0.758789	-0.004639	-0.490723	0.338974	-0.180024	-0.186853	-0.904309	14.008861	-26.889466	-142.268422	-0.705376	-0.545798	0.452271	0.680350	-0.700365	0.215899	0.198917	0.459993	0.865355	0	0	0
57230	0	0	0	0	0	4.470148	2.081491	8.487969	-0.000309	0.006864	0.007960	-0.759766	-0.004150	-0.492432	0.338991	-0.180013	-0.186849	-0.904305	14.008177	-26.888412	-142.266050	-0.705360	-0.545832	0.452254	0.680374	-0.700345	0.215891	0.198894	0.459983	0.865365	0	0	0
57231	0	0	0	0	0	4.484193	2.111900	8.494675	-0.000915	0.003174	0.004185	-0.752441	-0.005615	-0.491943	0.338984	-0.180015	-0.186853	-0.904307	14.008772	-26.888660	-142.267130	-0.705369	-0.545818	0.452258	0.680363	-0.700352	0.215899	0.198898	0.459989	0.865361	0	0	0
57232	0	0	0	0	0	4.467245	2.097812	8.505930	0.002041	0.004827	0.004918	-0.756104	-0.019043	-0.496338	0.338986	-0.180008	-0.186865	-0.904305	14.010482	-26.888361	-142.267115	-0.705371	-0.545819	0.452254	0.680368	-0.700339	0.215926	0.198874	0.460007	0.865357	0	0	0
57233	0	0	0	0	0	4.469322	2.080892	8.488551	0.000520	0.004311	0.005328	-0.746094	-0.021484	-0.495361	0.338986	-0.180003	-0.186872	-0.904304	14.011497	-26.888135	-142.267306	-0.705374	-0.545818	0.452250	0.680369	-0.700334	0.215942	0.198861	0.460016	0.865355	0	0	0
57234	0	0	0	0	0	4.484391	2.086520	8.519120	-0.000915	0.003174	0.004185	-0.748535	-0.015869	-0.489502	0.338977	-0.180006	-0.186876	-0.904306	14.012138	-26.888459	-142.268654	-0.705385	-0.545800	0.452255	0.680356	-0.700344	0.215951	0.198868	0.460023	0.865350	0	0	0
57235	0	0	0	0	0	4.467876	2.105251	8.465016	-0.000221	0.006242	0.006406	-0.752441	-0.015869	-0.489502	0.338983	-0.179995	-0.186876	-0.904306	14.012289	-26.887309	-142.267873	-0.705385	-0.545815	0.452237	0.680362	-0.700336	0.215955	0.198846	0.460017	0.865358	0	0	0
57236	0	0	0	0	0	4.486305	2.069070	8.501957	-0.001218	0.000663	0.007099	-0.751953	-0.004639	-0.491455	0.338985	-0.180014	-0.186880	-0.904301	14.012033	-26.889560	-142.267679	-0.705369	-0.545807	0.452272	0.680370	-0.700331	0.215947	0.198875	0.460035	0.865342	0	0	0
57237	0	0	0	0	0	4.485205	2.093566	8.478210	-0.002221	0.005791	0.003234	-0.748291	-0.009521	-0.492920	0.338974	-0.180005	-0.186874	-0.904308	14.011965	-26.888221	-142.268945	-0.705389	-0.545798	0.452251	0.680351	-0.700349	0.215949	0.198870	0.460017	0.865352	0	0	0
57238	0	0	0	0	0	4.500267	2.098999	8.508831	0.000042	0.003044	0.011348	-0.749268	-0.006348	-0.489014	0.339002	-0.180015	-0.186875	-0.904295	14.010876	-26.889728	-142.265245	-0.705344	-0.545836	0.452275	0.680397	-0.700311	0.215929	0.198871	0.460031	0.865345	0	0	0
57239	0	0	0	0	0	4.465752	2.095619	8.507254	-0.001567	0.004483	0.003709	-0.752441	-0.012451	-0.486572	0.338993	-0.180011	-0.186874	-0.904300	14.011140	-26.889182	-142.266418	-0.705359	-0.545824	0.452266	0.680382	-0.700324	0.215934	0.198871	0.460025	0.865348	0	0	0
57240	0	0	0	0	0	4.499842	2.098235	8.509245	-0.001089	0.004417	0.007291	-0.754639	-0.015381	-0.490723	0.339002	-0.180013	-0.186871	-0.904297	14.010514	-26.889436	-142.265241	-0.705346	-0.545837	0.452270	0.680395	-0.700314	0.215924	0.198872	0.460024	0.865349	0	0	0
57241	0	0	0	0	0	4.484297	2.092026	8.479070	-0.001567	0.004483	0.003709	-0.749512	-0.010986	-0.489014	0.338993	-0.180010	-0.186870	-0.904301	14.010778	-26.888890	-142.266415	-0.705361	-0.545825	0.452262	0.680380	-0.700327	0.215929	0.198871	0.460018	0.865352	0	0	0
57242	0	0	0	0	0	4.449595	2.088753	8.477562	-0.000219	0.006241	0.006405	-0.754150	-0.017822	-0.485596	0.338998	-0.180001	-0.186870	-0.904301	14.010845	-26.887968	-142.265666	-0.705359	-0.545839	0.452247	0.680386	-0.700320	0.215932	0.198854	0.460013	0.865359	0	0	0
57243	0	0	0	0	0	4.498868	2.097229	8.510008	-0.001654	0.005104	0.005262	-0.751709	-0.021240	-0.489258	0.338997	-0.179997	-0.186866	-0.904303	14.010577	-26.887291	-142.265775	-0.705365	-0.545841	0.452237	0.680382	-0.700325	0.215929	0.198850	0.460003	0.865365	0	0	0
57244	0	0	0	0	0	4.464181	2.093846	8.508516	-0.001741	0.005726	0.006815	-0.750000	-0.007568	-0.492432	0.339000	-0.179994	-0.186859	-0.904304	14.009827	-26.886734	-142.265206	-0.705363	-0.545851	0.452228	0.680385	-0.700325	0.215919	0.198847	0.459990	0.865372	0	0	0
57245	0	0	0	0	0	4.483861	2.065602	8.504089	-0.003176	0.004589	0.005671	-0.752197	-0.011230	-0.488037	0.338998	-0.179994	-0.186849	-0.904306	14.008608	-26.886401	-142.265141	-0.705364	-0.545853	0.452223	0.680380	-0.700335	0.215901	0.198857	0.459973	0.865379	0	0	0
57246	0	0	0	0	0	4.463690	2.093094	8.508958	0.001348	0.001758	0.002696	-0.760254	-0.018799	-0.487305	0.338986	-0.180000	-0.186866	-0.904306	14.010850	-26.887456	-142.267191	-0.705377	-0.545823	0.452239	0.680366	-0.700339	0.215933	0.198860	0.460003	0.865363	0	0	0
57247	0	0	0	0	0	4.463461	2.092826	8.509144	-0.001828	0.006347	0.008367	-0.745361	-0.015137	-0.491455	0.339000	-0.179993	-0.186856	-0.904304	14.009521	-26.886519	-142.265171	-0.705364	-0.545852	0.452225	0.680383	-0.700328	0.215915	0.198848	0.459985	0.865375	0	0	0
57248	0	0	0	0	0	4.462238	2.117178	8.485516	-0.003175	0.004589	0.005671	-0.751709	-0.011719	-0.493164	0.338996	-0.179996	-0.186846	-0.904307	14.008290	-26.886412	-142.265323	-0.705366	-0.545851	0.452223	0.680377	-0.700340	0.215897	0.198863	0.459968	0.865380	0	0	0
57249	0	0	0	0	0	4.481986	2.088986	8.481041	-0.001001	0.003795	0.005737	-0.750732	-0.012451	-0.494141	0.338996	-0.179997	-0.186847	-0.904307	14.008355	-26.886529	-142.265340	-0.705365	-0.545850	0.452225	0.680377	-0.700339	0.215897	0.198863	0.459970	0.865379	0	0	0
57250	0	0	0	0	0	4.477924	2.097385	8.540293	-0.001566	0.004483	0.003708	-0.753906	-0.010986	-0.496338	0.338988	-0.179995	-0.186845	-0.904311	14.008494	-26.886141	-142.266402	-0.705378	-0.545839	0.452219	0.680364	-0.700352	0.215900	0.198866	0.459964	0.865381	0	0	0
57251	0	0	0	0	0	4.481386	2.088238	8.481542	-0.003827	0.005898	0.005195	-0.747314	-0.010742	-0.491943	0.338985	-0.179990	-0.186830	-0.904316	14.006944	-26.885014	-142.266430	-0.705385	-0.545844	0.452201	0.680355	-0.700367	0.215879	0.198871	0.459935	0.865396	0	0	0
57252	0	0	0	0	0	4.482003	2.063111	8.505673	0.002783	0.002894	0.003840	-0.750244	-0.020020	-0.484619	0.338980	-0.179988	-0.186851	-0.904314	14.009623	-26.885520	-142.267585	-0.705393	-0.545827	0.452209	0.680351	-0.700358	0.215918	0.198854	0.459968	0.865382	0	0	0
57253	0	0	0	0	0	4.497620	2.101676	8.470853	-0.003175	0.004589	0.005670	-0.744873	-0.014648	-0.492188	0.338979	-0.179989	-0.186840	-0.904316	14.008406	-26.885187	-142.267520	-0.705394	-0.545830	0.452204	0.680347	-0.700368	0.215901	0.198864	0.459951	0.865389	0	0	0
57254	0	0	0	0	0	4.461625	2.090357	8.510714	0.003261	0.002828	0.007421	-0.752930	-0.003906	-0.499268	0.338988	-0.179990	-0.186861	-0.904308	14.010493	-26.886260	-142.266834	-0.705381	-0.545833	0.452221	0.680366	-0.700341	0.215930	0.198847	0.459989	0.865373	0	0	0
57255	0	0	0	0	0	4.475732	2.120988	8.517366	-0.000608	0.005685	0.001269	-0.750488	-0.014160	-0.497559	0.338970	-0.179978	-0.186864	-0.904317	14.011909	-26.884707	-142.269342	-0.705415	-0.545810	0.452197	0.680335	-0.700363	0.215954	0.198832	0.459983	0.865380	0	0	0
57256	0	0	0	0	0	4.462492	2.098131	8.469623	-0.001000	0.003795	0.005736	-0.750977	-0.007080	-0.487549	0.338972	-0.179980	-0.186864	-0.904316	14.011774	-26.884927	-142.269019	-0.705410	-0.545813	0.452200	0.680339	-0.700359	0.215952	0.198833	0.459984	0.865378	0	0	0
57257	0	0	0	0	0	4.460744	2.089805	8.511311	-0.000043	0.004997	0.003298	-0.757080	-0.007080	-0.500977	0.338963	-0.179971	-0.186869	-0.904320	14.012991	-26.884038	-142.270369	-0.705429	-0.545800	0.452186	0.680324	-0.700368	0.215972	0.198819	0.459986	0.865381	0	0	0
57258	0	0	0	0	0	4.477166	2.103379	8.500494	-0.003174	0.004589	0.005669	-0.756104	-0.011963	-0.483398	0.338964	-0.179974	-0.186858	-0.904321	14.011550	-26.883912	-142.269972	-0.705426	-0.545806	0.452184	0.680324	-0.700375	0.215951	0.198831	0.459969	0.865387	0	0	0
57259	0	0	0	0	0	4.476895	2.102856	8.500766	-0.003174	0.004589	0.005669	-0.756836	-0.009766	-0.493896	0.338963	-0.179974	-0.186848	-0.904324	14.010333	-26.883579	-142.269908	-0.705427	-0.545808	0.452179	0.680319	-0.700385	0.215933	0.198841	0.459951	0.865394	0	0	0
57260	0	0	0	0	0	4.478866	2.085664	8.483506	-0.000781	0.006928	0.004375	-0.750732	-0.018066	-0.496094	0.338960	-0.179962	-0.186845	-0.904328	14.010559	-26.882076	-142.270261	-0.705440	-0.545811	0.452156	0.680311	-0.700390	0.215939	0.198824	0.459939	0.865405	0	0	0
57261	0	0	0	0	0	4.493620	2.091063	8.514297	-0.004477	0.007207	0.004717	-0.752930	-0.008789	-0.493652	0.338955	-0.179952	-0.186826	-0.904336	14.008679	-26.880156	-142.270383	-0.705453	-0.545819	0.452126	0.680298	-0.700411	0.215914	0.198824	0.459898	0.865427	0	0	0
57262	0	0	0	0	0	4.455612	2.129474	8.506441	0.000045	0.004376	0.001745	-0.755615	-0.020020	-0.496338	0.338939	-0.179947	-0.186833	-0.904341	14.010326	-26.879542	-142.272741	-0.705479	-0.545793	0.452116	0.680273	-0.700428	0.215940	0.198816	0.459904	0.865425	0	0	0
57263	0	0	0	0	0	4.477634	2.084606	8.484417	-0.003174	0.004589	0.005668	-0.756104	-0.010986	-0.492676	0.338937	-0.179947	-0.186823	-0.904344	14.009109	-26.879208	-142.272677	-0.705481	-0.545795	0.452111	0.680268	-0.700437	0.215923	0.198826	0.459886	0.865432	0	0	0
57264	0	0	0	0	0	4.477373	2.084122	8.484673	-0.003087	0.003968	0.004116	-0.752686	-0.011475	-0.491211	0.338928	-0.179951	-0.186815	-0.904348	14.008368	-26.879193	-142.273761	-0.705491	-0.545782	0.452111	0.680252	-0.700456	0.215911	0.198843	0.459873	0.865435	0	0	0
57265	0	0	0	0	0	4.474704	2.100581	8.502482	-0.000129	0.005618	0.004850	-0.754150	-0.015869	-0.498291	0.338926	-0.179941	-0.186818	-0.904350	14.009054	-26.878174	-142.274046	-0.705500	-0.545783	0.452095	0.680248	-0.700456	0.215924	0.198825	0.459871	0.865440	0	0	0
57266	0	0	0	0	0	4.476781	2.083538	8.485129	-0.000913	0.003173	0.004182	-0.758789	-0.011230	-0.497314	0.338919	-0.179945	-0.186821	-0.904352	14.009555	-26.878588	-142.275096	-0.705508	-0.545768	0.452101	0.680238	-0.700464	0.215931	0.198833	0.459877	0.865435	0	0	0
57267	0	0	0	0	0	4.458920	2.094197	8.472477	-0.001651	0.005104	0.005259	-0.752441	-0.010498	-0.496338	0.338917	-0.179940	-0.186817	-0.904354	14.009290	-26.877912	-142.275207	-0.705513	-0.545770	0.452091	0.680234	-0.700469	0.215928	0.198829	0.459868	0.865442	0	0	0
57268	0	0	0	0	0	4.471657	2.116284	8.520676	-0.003481	0.002078	0.008581	-0.749268	-0.018555	-0.494873	0.338928	-0.179957	-0.186807	-0.904349	14.007099	-26.879548	-142.273538	-0.705487	-0.545783	0.452116	0.680252	-0.700463	0.215892	0.198861	0.459862	0.865437	0	0	0
57269	0	0	0	0	0	4.458454	2.093184	8.472973	-0.001431	0.008236	0.003898	-0.752197	-0.008789	-0.486816	0.338923	-0.179937	-0.186800	-0.904356	14.007124	-26.876942	-142.274011	-0.705508	-0.545790	0.452076	0.680238	-0.700474	0.215897	0.198833	0.459836	0.865457	0	0	0
57270	0	0	0	0	0	4.474105	2.073980	8.527586	0.002133	0.004202	0.003364	-0.752197	-0.008057	-0.484131	0.338915	-0.179930	-0.186816	-0.904357	14.009534	-26.876707	-142.275456	-0.705523	-0.545773	0.452072	0.680228	-0.700473	0.215934	0.198813	0.459859	0.865450	0	0	0
57271	0	0	0	0	0	4.489689	2.112559	8.492836	-0.001738	0.005725	0.006811	-0.754395	-0.008789	-0.490967	0.338921	-0.179925	-0.186809	-0.904357	14.008739	-26.875901	-142.274503	-0.705519	-0.545789	0.452060	0.680235	-0.700470	0.215923	0.198805	0.459845	0.865459	0	0	0
57272	0	0	0	0	0	4.473573	2.073389	8.528010	-0.000348	0.002485	0.006210	-0.750000	-0.012939	-0.495117	0.338924	-0.179934	-0.186814	-0.904353	14.008956	-26.877119	-142.274276	-0.705509	-0.545786	0.452079	0.680242	-0.700462	0.215924	0.198816	0.459859	0.865449	0	0	0
57273	0	0	0	0	0	4.455812	2.084163	8.515277	0.000610	0.003687	0.003773	-0.750977	-0.009521	-0.496094	0.338916	-0.179930	-0.186824	-0.904355	14.010505	-26.877025	-142.275533	-0.705522	-0.545771	0.452077	0.680232	-0.700465	0.215948	0.198806	0.459873	0.865444	0	0	0
57274	0	0	0	0	0	4.454758	2.108859	8.491516	-0.000912	0.003173	0.004181	-0.753662	-0.015869	-0.492676	0.338910	-0.179933	-0.186827	-0.904356	14.010953	-26.877404	-142.276430	-0.705528	-0.545758	0.452083	0.680223	-0.700471	0.215954	0.198813	0.459879	0.865439	0	0	0
57275	0	0	0	0	0	4.506531	2.100522	8.506366	-0.000912	0.003173	0.004181	-0.755859	-0.017334	-0.486328	0.338903	-0.179935	-0.186831	-0.904358	14.011550	-26.877652	-142.277513	-0.705537	-0.545743	0.452087	0.680213	-0.700479	0.215962	0.198817	0.459885	0.865435	0	0	0
57276	0	0	0	0	0	4.452780	2.100071	8.533409	-0.001911	0.006967	0.009915	-0.751953	-0.006348	-0.493652	0.338922	-0.179930	-0.186818	-0.904354	14.009668	-26.876840	-142.274640	-0.705514	-0.545782	0.452074	0.680239	-0.700462	0.215936	0.198807	0.459864	0.865448	0	0	0
57277	0	0	0	0	0	4.486928	2.102449	8.535472	-0.001871	0.001971	0.006618	-0.747559	-0.012451	-0.490234	0.338923	-0.179941	-0.186818	-0.904351	14.009114	-26.878094	-142.274391	-0.705504	-0.545779	0.452094	0.680244	-0.700460	0.215925	0.198826	0.459870	0.865441	0	0	0
57278	0	0	0	0	0	4.505936	2.099189	8.507010	-0.000912	0.003173	0.004181	-0.752441	-0.017090	-0.492920	0.338917	-0.179945	-0.186821	-0.904352	14.009534	-26.878533	-142.275258	-0.705510	-0.545767	0.452101	0.680236	-0.700466	0.215930	0.198834	0.459876	0.865436	0	0	0
57279	0	0	0	0	0	4.454661	2.082175	8.516366	0.001175	0.002999	0.005801	-0.748291	-0.007568	-0.489014	0.338919	-0.179946	-0.186833	-0.904349	14.010883	-26.879103	-142.275358	-0.705507	-0.545763	0.452109	0.680241	-0.700455	0.215950	0.198825	0.459898	0.865426	0	0	0
57280	0	0	0	0	0	4.472767	2.103874	8.464008	-0.001086	0.004415	0.007286	-0.747070	-0.014893	-0.492676	0.338927	-0.179947	-0.186830	-0.904346	14.010302	-26.879291	-142.274256	-0.705495	-0.545775	0.452112	0.680253	-0.700446	0.215941	0.198825	0.459896	0.865427	0	0	0
57281	0	0	0	0	0	4.470945	2.095459	8.505722	-0.000126	0.005617	0.004849	-0.760254	-0.013672	-0.485596	0.338925	-0.179937	-0.186833	-0.904348	14.010990	-26.878273	-142.274543	-0.705504	-0.545777	0.452096	0.680249	-0.700447	0.215953	0.198807	0.459894	0.865432	0	0	0
57282	0	0	0	0	0	4.453819	2.081226	8.517038	-0.001736	0.005725	0.006809	-0.753662	-0.010010	-0.496826	0.338930	-0.179934	-0.186826	-0.904348	14.010124	-26.877724	-142.273687	-0.705500	-0.545790	0.452088	0.680255	-0.700445	0.215941	0.198804	0.459881	0.865440	0	0	0
57283	0	0	0	0	0	4.470301	2.094684	8.506252	-0.001085	0.004415	0.007285	-0.753174	-0.010498	-0.494629	0.338938	-0.179934	-0.186824	-0.904346	14.009661	-26.877712	-142.272642	-0.705490	-0.545803	0.452088	0.680266	-0.700436	0.215934	0.198801	0.459879	0.865442	0	0	0
57284	0	0	0	0	0	4.504394	2.097220	8.508312	-0.001562	0.004482	0.003704	-0.744141	-0.009277	-0.487305	0.338930	-0.179932	-0.186822	-0.904350	14.009762	-26.877331	-142.273610	-0.705501	-0.545793	0.452082	0.680254	-0.700447	0.215936	0.198803	0.459874	0.865444	0	0	0
57285	0	0	0	0	0	4.488948	2.090915	8.478113	-0.004131	0.003388	0.008101	-0.748291	-0.013184	-0.489990	0.338938	-0.179942	-0.186807	-0.904348	14.007395	-26.878003	-142.272216	-0.705484	-0.545807	0.452092	0.680264	-0.700448	0.215899	0.198828	0.459856	0.865448	0	0	0
57286	0	0	0	0	0	4.469676	2.093331	8.506913	-0.000911	0.003173	0.004180	-0.746826	-0.009277	-0.489746	0.338931	-0.179946	-0.186810	-0.904349	14.007856	-26.878450	-142.273196	-0.705491	-0.545792	0.452099	0.680255	-0.700455	0.215905	0.198836	0.459862	0.865443	0	0	0
57287	0	0	0	0	0	4.472734	2.051285	8.513409	-0.001871	0.001971	0.006617	-0.757324	-0.011719	-0.492920	0.338933	-0.179957	-0.186810	-0.904346	14.007303	-26.879704	-142.272948	-0.705480	-0.545789	0.452119	0.680260	-0.700454	0.215894	0.198855	0.459868	0.865435	0	0	0
57288	0	0	0	0	0	4.486988	2.081592	8.520113	-0.001561	0.004482	0.003704	-0.749756	-0.006836	-0.493164	0.338924	-0.179956	-0.186808	-0.904350	14.007419	-26.879379	-142.273994	-0.705492	-0.545778	0.452114	0.680247	-0.700466	0.215897	0.198859	0.459862	0.865437	0	0	0
57289	0	0	0	0	0	4.469177	2.092202	8.507453	-0.002521	0.003280	0.006140	-0.759521	-0.021484	-0.489014	0.338924	-0.179962	-0.186802	-0.904350	14.006535	-26.879839	-142.273839	-0.705488	-0.545778	0.452121	0.680247	-0.700470	0.215883	0.198873	0.459856	0.865437	0	0	0
57290	0	0	0	0	0	4.488911	2.063909	8.502992	-0.001171	0.005036	0.008836	-0.757080	-0.006592	-0.486572	0.338939	-0.179963	-0.186797	-0.904345	14.005464	-26.879934	-142.271799	-0.705468	-0.545802	0.452122	0.680269	-0.700454	0.215866	0.198871	0.459851	0.865440	0	0	0
57291	0	0	0	0	0	4.468643	2.091423	8.507925	0.001398	0.006130	0.004440	-0.750977	-0.013916	-0.490234	0.338937	-0.179947	-0.186806	-0.904347	14.007105	-26.878574	-142.272261	-0.705481	-0.545803	0.452101	0.680265	-0.700450	0.215894	0.198839	0.459857	0.865445	0	0	0
57292	0	0	0	0	0	4.468277	2.091234	8.508164	-0.001561	0.004482	0.003704	-0.758545	-0.018311	-0.494141	0.338929	-0.179947	-0.186805	-0.904351	14.007226	-26.878317	-142.273364	-0.705493	-0.545791	0.452097	0.680251	-0.700463	0.215896	0.198843	0.459852	0.865446	0	0	0
57293	0	0	0	0	0	4.482565	2.121590	8.514848	0.000216	0.001795	0.008236	-0.753418	-0.013428	-0.481934	0.338939	-0.179957	-0.186812	-0.904343	14.007424	-26.879893	-142.272134	-0.705471	-0.545799	0.452122	0.680271	-0.700443	0.215896	0.198850	0.459874	0.865433	0	0	0
57294	0	0	0	0	0	4.467932	2.090569	8.508508	-0.002210	0.005792	0.003227	-0.744141	-0.014404	-0.484375	0.338927	-0.179951	-0.186807	-0.904350	14.007327	-26.878844	-142.273613	-0.705492	-0.545785	0.452105	0.680250	-0.700464	0.215896	0.198850	0.459858	0.865442	0	0	0
57295	0	0	0	0	0	4.452504	2.084318	8.478285	-0.003394	0.001457	0.007023	-0.754395	-0.008789	-0.489258	0.338929	-0.179968	-0.186799	-0.904348	14.005822	-26.880440	-142.273192	-0.705478	-0.545783	0.452130	0.680254	-0.700467	0.215871	0.198884	0.459856	0.865435	0	0	0
57296	0	0	0	0	0	4.466753	2.114543	8.485027	-0.000211	0.006237	0.006399	-0.747559	-0.013672	-0.496826	0.338935	-0.179959	-0.186799	-0.904347	14.005856	-26.879546	-142.272382	-0.705476	-0.545797	0.452116	0.680262	-0.700459	0.215873	0.198866	0.459851	0.865442	0	0	0
57297	0	0	0	0	0	4.467173	2.089271	8.509226	-0.001733	0.005724	0.006807	-0.755371	-0.020752	-0.495117	0.338941	-0.179953	-0.186792	-0.904348	14.005064	-26.878741	-142.271431	-0.705472	-0.545813	0.452104	0.680268	-0.700456	0.215862	0.198858	0.459837	0.865451	0	0	0
57298	0	0	0	0	0	4.466915	2.088762	8.509486	-0.002607	0.003901	0.007691	-0.756104	-0.006836	-0.489258	0.338947	-0.179959	-0.186783	-0.904346	14.003612	-26.879176	-142.270302	-0.705458	-0.545825	0.452111	0.680278	-0.700453	0.215840	0.198872	0.459827	0.865453	0	0	0
57299	0	0	0	0	0	4.466703	2.088257	8.509721	-0.003083	0.003969	0.004111	-0.751709	-0.014893	-0.495361	0.338938	-0.179961	-0.186776	-0.904350	14.002930	-26.878972	-142.271305	-0.705469	-0.545813	0.452107	0.680263	-0.700471	0.215830	0.198885	0.459813	0.865457	0	0	0
57300	0	0	0	0	0	4.485586	2.085022	8.481343	0.000526	0.004306	0.005323	-0.747314	-0.009766	-0.494141	0.338939	-0.179959	-0.186783	-0.904349	14.003802	-26.878969	-142.271380	-0.705470	-0.545812	0.452107	0.680265	-0.700465	0.215843	0.198876	0.459824	0.865454	0	0	0
57301	0	0	0	0	0	4.466242	2.087407	8.510172	-0.004303	0.004630	0.011201	-0.759521	-0.012939	-0.494629	0.338962	-0.179967	-0.186762	-0.904343	14.000376	-26.879380	-142.267861	-0.705434	-0.545854	0.452114	0.680297	-0.700450	0.215790	0.198893	0.459798	0.865464	0	0	0
57302	0	0	0	0	0	4.450927	2.080975	8.479935	-0.001870	0.001970	0.006615	-0.750977	-0.013428	-0.493408	0.338964	-0.179980	-0.186761	-0.904340	13.999678	-26.880814	-142.267477	-0.705421	-0.545851	0.452136	0.680304	-0.700448	0.215777	0.198915	0.459804	0.865455	0	0	0
57303	0	0	0	0	0	4.465224	2.111157	8.486675	-0.003169	0.004590	0.005662	-0.741943	-0.018799	-0.491211	0.338963	-0.179980	-0.186750	-0.904343	13.998466	-26.880479	-142.267417	-0.705423	-0.545854	0.452131	0.680299	-0.700457	0.215759	0.198925	0.459786	0.865463	0	0	0
57304	0	0	0	0	0	4.465758	2.085827	8.510813	-0.000996	0.003793	0.005731	-0.752686	-0.005371	-0.486084	0.338962	-0.179982	-0.186751	-0.904342	13.998479	-26.880715	-142.267496	-0.705422	-0.545852	0.452135	0.680299	-0.700458	0.215759	0.198929	0.459788	0.865461	0	0	0
57305	0	0	0	0	0	4.482289	2.099343	8.500018	-0.001645	0.005103	0.005254	-0.752686	-0.010986	-0.504883	0.338961	-0.179978	-0.186747	-0.904345	13.998219	-26.880039	-142.267610	-0.705427	-0.545854	0.452124	0.680295	-0.700463	0.215757	0.198924	0.459778	0.865467	0	0	0
57306	0	0	0	0	0	4.481976	2.099006	8.500267	-0.001558	0.004482	0.003702	-0.750244	-0.005859	-0.485840	0.338954	-0.179976	-0.186745	-0.904348	13.998280	-26.879662	-142.268481	-0.705438	-0.545845	0.452118	0.680283	-0.700473	0.215758	0.198926	0.459773	0.865470	0	0	0
57307	0	0	0	0	0	4.464907	2.084610	8.511558	-0.004778	0.004698	0.007620	-0.759521	-0.015869	-0.488770	0.338960	-0.179981	-0.186726	-0.904349	13.995586	-26.879540	-142.267183	-0.705426	-0.545861	0.452116	0.680290	-0.700480	0.215718	0.198946	0.459743	0.865481	0	0	0
57308	0	0	0	0	0	4.481433	2.097960	8.500811	-0.001558	0.004482	0.003702	-0.751465	-0.014648	-0.491699	0.338951	-0.179981	-0.186724	-0.904353	13.995724	-26.879306	-142.268344	-0.705439	-0.545848	0.452113	0.680275	-0.700493	0.215720	0.198951	0.459738	0.865482	0	0	0
57309	0	0	0	0	0	4.465958	2.091840	8.470584	-0.001082	0.004413	0.007282	-0.747314	-0.006592	-0.499268	0.338958	-0.179980	-0.186722	-0.904350	13.995263	-26.879295	-142.267302	-0.705429	-0.545861	0.452112	0.680286	-0.700484	0.215713	0.198948	0.459736	0.865484	0	0	0
57310	0	0	0	0	0	4.464166	2.083390	8.512245	-0.000909	0.003172	0.004178	-0.749756	-0.015381	-0.489990	0.338952	-0.179983	-0.186725	-0.904351	13.995699	-26.879666	-142.268168	-0.705435	-0.545848	0.452118	0.680278	-0.700490	0.215719	0.198954	0.459742	0.865479	0	0	0
57311	0	0	0	0	0	4.463953	2.083011	8.512450	-0.001169	0.005034	0.008833	-0.751465	-0.009766	-0.488770	0.338967	-0.179982	-0.186721	-0.904347	13.994708	-26.879525	-142.266062	-0.705416	-0.545875	0.452116	0.680300	-0.700474	0.215705	0.198948	0.459736	0.865484	0	0	0
57312	0	0	0	0	0	4.478215	2.113180	8.519226	-0.002519	0.003280	0.006137	-0.750977	-0.020020	-0.494629	0.338967	-0.179990	-0.186715	-0.904347	13.993717	-26.880210	-142.265900	-0.705410	-0.545874	0.452127	0.680301	-0.700478	0.215688	0.198966	0.459731	0.865483	0	0	0
57313	0	0	0	0	0	4.465224	2.090196	8.471377	-0.000433	0.003103	0.007758	-0.747803	-0.013428	-0.495850	0.338976	-0.179995	-0.186717	-0.904342	13.993586	-26.880993	-142.264764	-0.705394	-0.545884	0.452139	0.680317	-0.700464	0.215685	0.198968	0.459740	0.865477	0	0	0
57314	0	0	0	0	0	4.463475	2.081722	8.513016	-0.000995	0.003792	0.005730	-0.751953	-0.013672	-0.492920	0.338975	-0.179997	-0.186718	-0.904341	13.993608	-26.881214	-142.264854	-0.705394	-0.545882	0.452142	0.680316	-0.700464	0.215685	0.198971	0.459742	0.865475	0	0	0
57315	0	0	0	0	0	4.496862	2.109187	8.491177	0.000529	0.004305	0.005322	-0.756592	-0.010010	-0.494629	0.338975	-0.179992	-0.186725	-0.904341	13.994630	-26.880992	-142.265050	-0.705397	-0.545880	0.452139	0.680317	-0.700459	0.215701	0.198958	0.459752	0.865473	0	0	0
57316	0	0	0	0	0	4.462944	2.081134	8.513438	-0.001730	0.005723	0.006804	-0.759033	-0.011719	-0.495850	0.338982	-0.179988	-0.186718	-0.904341	13.993709	-26.880386	-142.264014	-0.705391	-0.545896	0.452129	0.680324	-0.700455	0.215688	0.198953	0.459739	0.865481	0	0	0
57317	0	0	0	0	0	4.445111	2.091740	8.500800	-0.001081	0.004413	0.007281	-0.757080	-0.014893	-0.488525	0.338989	-0.179988	-0.186716	-0.904338	13.993249	-26.880374	-142.262972	-0.705381	-0.545909	0.452129	0.680335	-0.700447	0.215681	0.198950	0.459737	0.865483	0	0	0
57318	0	0	0	0	0	4.466340	2.071476	8.454931	-0.003340	0.005831	0.008762	-0.749023	-0.018066	-0.494385	0.339003	-0.179989	-0.186700	-0.904337	13.990883	-26.880038	-142.260827	-0.705363	-0.545937	0.452124	0.680352	-0.700441	0.215646	0.198957	0.459712	0.865495	0	0	0
57319	0	0	0	0	0	4.476578	2.110373	8.520782	0.000529	0.004304	0.005322	-0.749756	-0.017334	-0.494141	0.339003	-0.179984	-0.186707	-0.904336	13.991905	-26.879815	-142.261023	-0.705366	-0.545936	0.452121	0.680353	-0.700436	0.215662	0.198944	0.459722	0.865492	0	0	0
57320	0	0	0	0	0	4.479444	2.068462	8.527278	0.001091	0.003615	0.007350	-0.745850	-0.015381	-0.488281	0.339011	-0.179985	-0.186716	-0.904331	13.992697	-26.880373	-142.260187	-0.705355	-0.545943	0.452129	0.680368	-0.700418	0.215673	0.198934	0.459740	0.865485	0	0	0
57321	0	0	0	0	0	4.497756	2.090162	8.474930	-0.000346	0.002482	0.006205	-0.744141	-0.016113	-0.497559	0.339012	-0.179991	-0.186722	-0.904328	13.993096	-26.881286	-142.260116	-0.705348	-0.545940	0.452143	0.680373	-0.700412	0.215677	0.198940	0.459753	0.865477	0	0	0
57322	0	0	0	0	0	4.480776	2.075902	8.486121	-0.001167	0.005033	0.008831	-0.747314	-0.010986	-0.488525	0.339027	-0.179990	-0.186716	-0.904324	13.992036	-26.881246	-142.258026	-0.705329	-0.545966	0.452143	0.680394	-0.700396	0.215661	0.198935	0.459747	0.865481	0	0	0
57323	0	0	0	0	0	4.477554	2.117198	8.479970	-0.000346	0.002482	0.006205	-0.749268	-0.011719	-0.497314	0.339028	-0.179996	-0.186722	-0.904321	13.992436	-26.882159	-142.257955	-0.705322	-0.545962	0.452157	0.680399	-0.700389	0.215665	0.198941	0.459761	0.865472	0	0	0
57324	0	0	0	0	0	4.462809	2.086318	8.473604	0.001319	0.006747	0.005990	-0.750000	-0.015869	-0.496338	0.339035	-0.179982	-0.186727	-0.904320	13.993402	-26.880828	-142.257201	-0.705323	-0.545978	0.452136	0.680408	-0.700376	0.215682	0.198908	0.459763	0.865479	0	0	0
57325	0	0	0	0	0	4.477673	2.091774	8.504316	-0.001080	0.004413	0.007279	-0.751221	-0.011230	-0.494385	0.339043	-0.179981	-0.186725	-0.904318	13.992943	-26.880816	-142.256161	-0.705313	-0.545991	0.452136	0.680419	-0.700367	0.215675	0.198905	0.459761	0.865481	0	0	0
57326	0	0	0	0	0	4.459914	2.102408	8.491637	-0.001080	0.004413	0.007279	-0.757568	-0.012939	-0.489990	0.339051	-0.179982	-0.186723	-0.904315	13.992373	-26.880940	-142.255047	-0.705302	-0.546004	0.452138	0.680431	-0.700358	0.215667	0.198904	0.459759	0.865482	0	0	0
57327	0	0	0	0	0	4.494047	2.104942	8.493720	0.000617	0.003684	0.003770	-0.752441	-0.010010	-0.498047	0.339043	-0.179979	-0.186733	-0.904316	13.993926	-26.880848	-142.256307	-0.705315	-0.545989	0.452137	0.680421	-0.700361	0.215690	0.198894	0.459773	0.865477	0	0	0
57328	0	0	0	0	0	4.477029	2.090787	8.504898	-0.002517	0.003280	0.006134	-0.749756	-0.011963	-0.499512	0.339044	-0.179987	-0.186727	-0.904316	13.992905	-26.881519	-142.256052	-0.705308	-0.545989	0.452147	0.680422	-0.700365	0.215673	0.198913	0.459767	0.865476	0	0	0
57329	0	0	0	0	0	4.459295	2.101375	8.492218	-0.003078	0.003970	0.004106	-0.750977	-0.011963	-0.493408	0.339035	-0.179989	-0.186720	-0.904320	13.992226	-26.881314	-142.257058	-0.705319	-0.545977	0.452144	0.680407	-0.700382	0.215664	0.198926	0.459753	0.865480	0	0	0
57330	0	0	0	0	0	4.476530	2.089871	8.505386	-0.001727	0.005723	0.006802	-0.752686	-0.017090	-0.500000	0.339042	-0.179984	-0.186712	-0.904320	13.991295	-26.880632	-142.255948	-0.705313	-0.545994	0.452133	0.680415	-0.700378	0.215651	0.198920	0.459740	0.865488	0	0	0
57331	0	0	0	0	0	4.493076	2.103286	8.494644	-0.001079	0.004412	0.007278	-0.753662	-0.008545	-0.488281	0.339049	-0.179984	-0.186710	-0.904318	13.990837	-26.880620	-142.254908	-0.705303	-0.546007	0.452133	0.680426	-0.700370	0.215644	0.198917	0.459738	0.865490	0	0	0
57332	0	0	0	0	0	4.473645	2.105870	8.523437	-0.001554	0.004482	0.003700	-0.758301	-0.008301	-0.495117	0.339041	-0.179982	-0.186709	-0.904322	13.990993	-26.880262	-142.256030	-0.705316	-0.545995	0.452127	0.680412	-0.700383	0.215647	0.198920	0.459732	0.865492	0	0	0
57333	0	0	0	0	0	4.474076	2.080605	8.547563	-0.001079	0.004412	0.007278	-0.744873	-0.018311	-0.484375	0.339048	-0.179982	-0.186707	-0.904319	13.990534	-26.880250	-142.254990	-0.705306	-0.546008	0.452127	0.680423	-0.700374	0.215640	0.198917	0.459730	0.865494	0	0	0
57334	0	0	0	0	0	4.457944	2.099313	8.493437	-0.003164	0.004591	0.005657	-0.751465	-0.007568	-0.492432	0.339046	-0.179985	-0.186696	-0.904322	13.989226	-26.880152	-142.254957	-0.705306	-0.546009	0.452126	0.680419	-0.700384	0.215621	0.198931	0.459713	0.865500	0	0	0
57335	0	0	0	0	0	4.492079	2.101705	8.495563	-0.000906	0.003171	0.004176	-0.750000	-0.015869	-0.483154	0.339039	-0.179987	-0.186700	-0.904323	13.989828	-26.880401	-142.256043	-0.705315	-0.545994	0.452130	0.680408	-0.700392	0.215629	0.198936	0.459719	0.865496	0	0	0
57336	0	0	0	0	0	4.494300	2.084515	8.478154	-0.001955	0.002590	0.008161	-0.750977	-0.013428	-0.496826	0.339048	-0.179999	-0.186696	-0.904318	13.988622	-26.881789	-142.254712	-0.705294	-0.546004	0.452151	0.680425	-0.700382	0.215608	0.198956	0.459722	0.865490	0	0	0
57337	0	0	0	0	0	4.474990	2.086986	8.506905	-0.001079	0.004412	0.007278	-0.759033	-0.008301	-0.489502	0.339055	-0.179999	-0.186694	-0.904316	13.988164	-26.881778	-142.253672	-0.705284	-0.546017	0.452151	0.680436	-0.700374	0.215601	0.198953	0.459720	0.865491	0	0	0
57338	0	0	0	0	0	4.509104	2.089293	8.509064	-0.003163	0.004591	0.005656	-0.753662	-0.007813	-0.495605	0.339054	-0.180002	-0.186683	-0.904318	13.986807	-26.881670	-142.253502	-0.705283	-0.546019	0.452149	0.680433	-0.700383	0.215581	0.198966	0.459703	0.865497	0	0	0
57339	0	0	0	0	0	4.472250	2.102969	8.524885	-0.000173	0.001240	0.003102	-0.749512	-0.003662	-0.494873	0.339041	-0.180010	-0.186694	-0.904319	13.988268	-26.882844	-142.255557	-0.705295	-0.545988	0.452168	0.680416	-0.700393	0.215601	0.198979	0.459724	0.865483	0	0	0
57340	0	0	0	0	0	4.474271	2.085842	8.507563	-0.003020	0.008344	0.005847	-0.753174	-0.013672	-0.484863	0.339047	-0.179996	-0.186677	-0.904323	13.986572	-26.880629	-142.254391	-0.705298	-0.546013	0.452133	0.680418	-0.700398	0.215580	0.198964	0.459687	0.865506	0	0	0
57341	0	0	0	0	0	4.488297	2.116102	8.514489	-0.000115	0.005613	0.004844	-0.757813	-0.013428	-0.489014	0.339045	-0.179986	-0.186680	-0.904325	13.987268	-26.879613	-142.254682	-0.705307	-0.546015	0.452117	0.680414	-0.700398	0.215592	0.198946	0.459685	0.865511	0	0	0
57342	0	0	0	0	0	4.456089	2.096277	8.495161	-0.001697	0.000729	0.003507	-0.751221	-0.014648	-0.492188	0.339031	-0.180003	-0.186685	-0.904326	13.987697	-26.881446	-142.256687	-0.705315	-0.545981	0.452146	0.680396	-0.700414	0.215595	0.198979	0.459701	0.865496	0	0	0
57343	0	0	0	0	0	4.490956	2.073758	8.521157	-0.001725	0.005722	0.006800	-0.756592	-0.016846	-0.492920	0.339037	-0.179997	-0.186678	-0.904327	13.986911	-26.880640	-142.255741	-0.705311	-0.545997	0.452133	0.680403	-0.700411	0.215585	0.198971	0.459687	0.865505	0	0	0
57344	0	0	0	0	0	4.473104	2.084417	8.508526	-0.001639	0.005102	0.005249	-0.749756	-0.007568	-0.495361	0.339034	-0.179994	-0.186674	-0.904329	13.986598	-26.880167	-142.255968	-0.705316	-0.545996	0.452126	0.680397	-0.700417	0.215581	0.198971	0.459678	0.865510	0	0	0
57345	0	0	0	0	0	4.472053	2.108939	8.484929	-0.002286	0.006413	0.004772	-0.759277	-0.007568	-0.491211	0.339031	-0.179985	-0.186665	-0.904334	13.986014	-26.878697	-142.256179	-0.705327	-0.546001	0.452103	0.680388	-0.700428	0.215575	0.198962	0.459656	0.865523	0	0	0
57346	0	0	0	0	0	4.506756	2.086415	8.511014	-0.000992	0.003791	0.005726	-0.749268	-0.014404	-0.487549	0.339033	-0.179987	-0.186666	-0.904332	13.985877	-26.879048	-142.255936	-0.705322	-0.546002	0.452109	0.680392	-0.700425	0.215572	0.198966	0.459659	0.865521	0	0	0
57347	0	0	0	0	0	4.474465	2.066505	8.491743	-0.001639	0.005102	0.005249	-0.747803	-0.015137	-0.495361	0.339031	-0.179983	-0.186662	-0.904335	13.985621	-26.878373	-142.256054	-0.705328	-0.546004	0.452098	0.680388	-0.700430	0.215569	0.198961	0.459649	0.865527	0	0	0
57348	0	0	0	0	0	4.454330	2.094089	8.496623	0.000532	0.004302	0.005320	-0.753418	-0.008545	-0.499512	0.339031	-0.179980	-0.186669	-0.904334	13.986567	-26.878320	-142.256289	-0.705330	-0.546001	0.452097	0.680388	-0.700426	0.215584	0.198951	0.459659	0.865524	0	0	0
57349	0	0	0	0	0	4.471427	2.082820	8.509799	0.000677	0.008055	0.005511	-0.753174	-0.014160	-0.483643	0.339035	-0.179959	-0.186670	-0.904336	13.987357	-26.876039	-142.255785	-0.705340	-0.546018	0.452062	0.680390	-0.700419	0.215600	0.198911	0.459650	0.865538	0	0	0
57350	0	0	0	0	0	4.489587	2.104554	8.457607	-0.000905	0.003171	0.004175	-0.753906	-0.011963	-0.495361	0.339028	-0.179963	-0.186673	-0.904337	13.987822	-26.876520	-142.256794	-0.705346	-0.546004	0.452069	0.680381	-0.700426	0.215606	0.198919	0.459656	0.865533	0	0	0
57351	0	0	0	0	0	4.470353	2.107167	8.486265	-0.001223	0.000658	0.007085	-0.752686	-0.013672	-0.493164	0.339031	-0.179979	-0.186677	-0.904332	13.987599	-26.878569	-142.256458	-0.705330	-0.545998	0.452101	0.680390	-0.700419	0.215599	0.198944	0.459674	0.865518	0	0	0
57352	0	0	0	0	0	4.487821	2.095592	8.499322	-0.002602	0.003900	0.007681	-0.751465	-0.012695	-0.496338	0.339039	-0.179986	-0.186668	-0.904330	13.986074	-26.879082	-142.255189	-0.705315	-0.546011	0.452109	0.680402	-0.700415	0.215575	0.198958	0.459664	0.865520	0	0	0
57353	0	0	0	0	0	4.489927	2.078536	8.481938	0.002143	0.004193	0.003364	-0.747070	-0.005127	-0.493896	0.339032	-0.179977	-0.186685	-0.904331	13.988580	-26.878651	-142.256623	-0.705331	-0.545996	0.452102	0.680392	-0.700413	0.215614	0.198934	0.459686	0.865514	0	0	0
57354	0	0	0	0	0	4.470550	2.081355	8.510617	-0.000345	0.002480	0.006202	-0.749268	-0.011719	-0.492432	0.339035	-0.179985	-0.186690	-0.904327	13.988785	-26.879710	-142.256271	-0.705321	-0.545995	0.452119	0.680400	-0.700404	0.215615	0.198942	0.459699	0.865505	0	0	0
57355	0	0	0	0	0	4.489539	2.078182	8.482230	0.001971	0.005433	0.006464	-0.757568	-0.010010	-0.492676	0.339043	-0.179974	-0.186700	-0.904324	13.990232	-26.879019	-142.255580	-0.705319	-0.546007	0.452108	0.680411	-0.700386	0.215638	0.198911	0.459713	0.865505	0	0	0
57356	0	0	0	0	0	4.450272	2.108713	8.515630	-0.002515	0.003280	0.006130	-0.750488	-0.010986	-0.496094	0.339043	-0.179982	-0.186694	-0.904324	13.989206	-26.879699	-142.255319	-0.705312	-0.546006	0.452119	0.680413	-0.700390	0.215621	0.198929	0.459708	0.865503	0	0	0
57357	0	0	0	0	0	4.486801	2.094290	8.500182	-0.000905	0.003171	0.004174	-0.754639	-0.011230	-0.493164	0.339036	-0.179984	-0.186698	-0.904325	13.989809	-26.879948	-142.256406	-0.705321	-0.545992	0.452123	0.680402	-0.700397	0.215630	0.198933	0.459714	0.865499	0	0	0
57358	0	0	0	0	0	4.472015	2.063479	8.493769	0.001972	0.005432	0.006464	-0.751465	-0.017822	-0.491699	0.339044	-0.179975	-0.186708	-0.904322	13.991107	-26.879435	-142.255573	-0.705316	-0.546005	0.452115	0.680416	-0.700378	0.215650	0.198905	0.459728	0.865498	0	0	0
57359	0	0	0	0	0	4.452491	2.066195	8.522545	-0.001637	0.005102	0.005247	-0.745850	-0.008057	-0.493896	0.339043	-0.179970	-0.186704	-0.904324	13.990853	-26.878759	-142.255691	-0.705322	-0.546006	0.452104	0.680411	-0.700383	0.215648	0.198901	0.459718	0.865504	0	0	0
57360	0	0	0	0	0	4.483566	2.110263	8.518429	-0.001637	0.005102	0.005247	-0.750000	-0.010742	-0.490723	0.339041	-0.179967	-0.186700	-0.904326	13.990482	-26.878242	-142.255748	-0.705326	-0.546008	0.452096	0.680408	-0.700388	0.215643	0.198900	0.459708	0.865510	0	0	0
57361	0	0	0	0	0	4.468732	2.079200	8.512099	-0.003161	0.004591	0.005652	-0.743652	-0.008789	-0.494141	0.339040	-0.179968	-0.186690	-0.904329	13.989277	-26.877907	-142.255693	-0.705327	-0.546011	0.452091	0.680403	-0.700398	0.215626	0.198910	0.459691	0.865517	0	0	0
57362	0	0	0	0	0	4.485389	2.092519	8.501363	-0.002515	0.003280	0.006129	-0.745605	-0.009033	-0.495117	0.339041	-0.179975	-0.186684	-0.904328	13.988222	-26.878525	-142.255329	-0.705320	-0.546012	0.452100	0.680406	-0.700400	0.215608	0.198927	0.459685	0.865516	0	0	0
57363	0	0	0	0	0	4.487606	2.075206	8.483982	-0.003953	0.002150	0.004984	-0.746826	-0.007324	-0.493164	0.339034	-0.179988	-0.186675	-0.904330	13.986922	-26.879454	-142.256070	-0.705321	-0.545998	0.452115	0.680395	-0.700418	0.215587	0.198959	0.459675	0.865514	0	0	0
57364	0	0	0	0	0	4.450623	2.088857	8.499852	-0.000758	0.006923	0.004365	-0.757813	-0.009766	-0.490234	0.339033	-0.179974	-0.186672	-0.904334	13.987082	-26.877777	-142.256138	-0.705332	-0.546006	0.452089	0.680390	-0.700421	0.215593	0.198938	0.459661	0.865526	0	0	0
57365	0	0	0	0	0	4.450263	2.088520	8.500124	-0.001076	0.004411	0.007274	-0.749023	-0.011230	-0.487061	0.339040	-0.179974	-0.186670	-0.904332	13.986626	-26.877767	-142.255100	-0.705322	-0.546019	0.452089	0.680401	-0.700412	0.215586	0.198935	0.459659	0.865528	0	0	0
57366	0	0	0	0	0	4.484379	2.090777	8.502325	-0.003160	0.004591	0.005651	-0.754639	-0.011719	-0.489746	0.339039	-0.179977	-0.186659	-0.904334	13.985278	-26.877718	-142.254993	-0.705322	-0.546020	0.452088	0.680397	-0.700422	0.215566	0.198949	0.459642	0.865533	0	0	0
57367	0	0	0	0	0	4.467189	2.076620	8.513539	-0.000025	0.004992	0.003291	-0.743652	-0.007813	-0.488037	0.339030	-0.179968	-0.186664	-0.904338	13.986506	-26.876832	-142.256348	-0.705340	-0.546008	0.452074	0.680382	-0.700430	0.215586	0.198935	0.459645	0.865536	0	0	0
57368	0	0	0	0	0	4.466288	2.101257	8.489870	-0.001076	0.004410	0.007274	-0.749512	-0.007568	-0.495605	0.339038	-0.179970	-0.186662	-0.904335	13.985888	-26.877062	-142.255183	-0.705328	-0.546021	0.452078	0.680395	-0.700421	0.215576	0.198936	0.459643	0.865536	0	0	0
57369	0	0	0	0	0	4.483658	2.089885	8.502924	0.001826	0.001678	0.006273	-0.745361	-0.013184	-0.487061	0.339041	-0.179976	-0.186679	-0.904329	13.987569	-26.878431	-142.255194	-0.705319	-0.546014	0.452099	0.680405	-0.700404	0.215599	0.198932	0.459676	0.865519	0	0	0
57370	0	0	0	0	0	4.466585	2.075891	8.514033	-0.000111	0.005612	0.004841	-0.745605	-0.015137	-0.487305	0.339041	-0.179968	-0.186680	-0.904330	13.988109	-26.877596	-142.255331	-0.705326	-0.546016	0.452086	0.680403	-0.700404	0.215609	0.198917	0.459675	0.865524	0	0	0
57371	0	0	0	0	0	4.487232	2.080767	8.444259	-0.000990	0.003791	0.005723	-0.754395	-0.017090	-0.492676	0.339041	-0.179969	-0.186681	-0.904330	13.988183	-26.877715	-142.255357	-0.705325	-0.546016	0.452088	0.680403	-0.700403	0.215609	0.198918	0.459677	0.865522	0	0	0
57372	0	0	0	0	0	4.485328	2.072222	8.485915	-0.002514	0.003280	0.006128	-0.748291	-0.010254	-0.498291	0.339039	-0.179977	-0.186676	-0.904330	13.987262	-26.878380	-142.255365	-0.705321	-0.546012	0.452098	0.680402	-0.700409	0.215594	0.198937	0.459671	0.865521	0	0	0
57373	0	0	0	0	0	4.450725	2.069207	8.484150	0.001974	0.005430	0.006463	-0.750000	-0.010254	-0.486572	0.339047	-0.179966	-0.186686	-0.904327	13.988710	-26.877690	-142.254674	-0.705319	-0.546024	0.452087	0.680413	-0.700391	0.215617	0.198906	0.459685	0.865521	0	0	0
57374	0	0	0	0	0	4.465548	2.074770	8.514851	0.001974	0.005430	0.006463	-0.750488	-0.007324	-0.484863	0.339056	-0.179957	-0.186697	-0.904324	13.989995	-26.877182	-142.253816	-0.705314	-0.546037	0.452080	0.680427	-0.700371	0.215638	0.198877	0.459699	0.865520	0	0	0
57375	0	0	0	0	0	4.464673	2.099571	8.491137	0.000621	0.003681	0.003768	-0.748047	-0.016113	-0.493896	0.339048	-0.179954	-0.186707	-0.904325	13.991551	-26.877092	-142.255077	-0.705326	-0.546022	0.452078	0.680416	-0.700374	0.215661	0.198868	0.459713	0.865515	0	0	0
57376	0	0	0	0	0	4.482029	2.088344	8.504162	0.001826	0.001678	0.006272	-0.754883	-0.018311	-0.494629	0.339051	-0.179962	-0.186723	-0.904319	13.993104	-26.878688	-142.255042	-0.705316	-0.546015	0.452103	0.680427	-0.700358	0.215682	0.198868	0.459747	0.865497	0	0	0
57377	0	0	0	0	0	4.481885	2.088146	8.504286	0.000450	0.004920	0.006867	-0.744629	-0.010742	-0.486572	0.339059	-0.179956	-0.186727	-0.904316	13.993601	-26.878338	-142.254178	-0.705310	-0.546027	0.452098	0.680438	-0.700344	0.215690	0.198851	0.459753	0.865497	0	0	0
57378	0	0	0	0	0	4.482283	2.062900	8.528356	-0.000430	0.003099	0.007749	-0.749756	-0.015625	-0.490479	0.339067	-0.179963	-0.186730	-0.904311	13.993395	-26.879322	-142.253114	-0.705294	-0.546035	0.452113	0.680453	-0.700331	0.215685	0.198857	0.459763	0.865491	0	0	0
57379	0	0	0	0	0	4.496082	2.118130	8.511242	0.000536	0.004300	0.005317	-0.747803	-0.015381	-0.487549	0.339067	-0.179958	-0.186737	-0.904311	13.994423	-26.879102	-142.253314	-0.705297	-0.546034	0.452109	0.680454	-0.700325	0.215701	0.198844	0.459773	0.865488	0	0	0
57380	0	0	0	0	0	4.466146	2.081460	8.474343	-0.004597	0.003463	0.004504	-0.751465	-0.006836	-0.500000	0.339057	-0.179968	-0.186723	-0.904315	13.992739	-26.879444	-142.254279	-0.705304	-0.546021	0.452115	0.680437	-0.700350	0.215675	0.198875	0.459752	0.865492	0	0	0
57381	0	0	0	0	0	4.461248	2.114761	8.509680	0.002147	0.004190	0.003363	-0.758057	-0.012207	-0.488770	0.339049	-0.179959	-0.186740	-0.904317	13.995247	-26.879015	-142.255713	-0.705320	-0.546005	0.452108	0.680427	-0.700348	0.215714	0.198852	0.459774	0.865486	0	0	0
57382	0	0	0	0	0	4.497687	2.100472	8.494269	-0.001074	0.004410	0.007271	-0.754883	-0.018311	-0.496582	0.339058	-0.179961	-0.186737	-0.904314	13.994614	-26.879218	-142.254483	-0.705307	-0.546019	0.452111	0.680440	-0.700338	0.215704	0.198852	0.459772	0.865487	0	0	0
57383	0	0	0	0	0	4.465396	2.080796	8.474901	0.002147	0.004190	0.003363	-0.747559	-0.012939	-0.492432	0.339051	-0.179952	-0.186754	-0.904315	13.997122	-26.878788	-142.255917	-0.705324	-0.546004	0.452105	0.680430	-0.700335	0.215742	0.198829	0.459794	0.865481	0	0	0
57384	0	0	0	0	0	4.462886	2.097450	8.492601	-0.000344	0.002479	0.006199	-0.755371	-0.011230	-0.486084	0.339052	-0.179960	-0.186759	-0.904312	13.997458	-26.879850	-142.255909	-0.705317	-0.545999	0.452121	0.680435	-0.700330	0.215745	0.198837	0.459808	0.865471	0	0	0
57385	0	0	0	0	0	4.461014	2.088925	8.534220	-0.002513	0.003281	0.006126	-0.745117	-0.010742	-0.488525	0.339052	-0.179966	-0.186753	-0.904312	13.996582	-26.880309	-142.255763	-0.705313	-0.545998	0.452128	0.680435	-0.700334	0.215731	0.198852	0.459802	0.865471	0	0	0
57386	0	0	0	0	0	4.480061	2.085523	8.505891	-0.000988	0.003791	0.005721	-0.752686	-0.007324	-0.488770	0.339052	-0.179969	-0.186754	-0.904311	13.996517	-26.880701	-142.255744	-0.705310	-0.545996	0.452134	0.680436	-0.700334	0.215730	0.198857	0.459805	0.865468	0	0	0
57387	0	0	0	0	0	4.462290	2.096471	8.493156	0.001503	0.005501	0.002885	-0.753418	-0.006104	-0.496826	0.339043	-0.179955	-0.186766	-0.904315	13.998699	-26.879477	-142.257272	-0.705332	-0.545984	0.452115	0.680421	-0.700337	0.215765	0.198829	0.459815	0.865469	0	0	0
57388	0	0	0	0	0	4.462627	2.071158	8.517261	-0.005563	0.002262	0.006934	-0.752197	-0.017578	-0.495361	0.339045	-0.179974	-0.186747	-0.904314	13.995686	-26.880846	-142.256462	-0.705316	-0.545987	0.452137	0.680425	-0.700349	0.215717	0.198875	0.459793	0.865470	0	0	0
57389	0	0	0	0	0	4.459571	2.112495	8.511121	0.002148	0.004189	0.003363	-0.750977	-0.013672	-0.488037	0.339037	-0.179965	-0.186763	-0.904315	13.998195	-26.880416	-142.257897	-0.705332	-0.545971	0.452130	0.680415	-0.700347	0.215755	0.198851	0.459815	0.865464	0	0	0
57390	0	0	0	0	0	4.496512	2.073443	8.519598	0.000064	0.004372	0.001740	-0.752686	-0.011475	-0.487549	0.339020	-0.179960	-0.186771	-0.904321	13.999896	-26.879855	-142.260427	-0.705360	-0.545943	0.452121	0.680388	-0.700364	0.215782	0.198845	0.459822	0.865462	0	0	0
57391	0	0	0	0	0	4.444370	2.081551	8.504915	-0.003243	0.005212	0.007197	-0.754395	-0.010986	-0.489502	0.339026	-0.179959	-0.186758	-0.904322	13.998164	-26.879389	-142.259313	-0.705352	-0.545959	0.452114	0.680394	-0.700366	0.215757	0.198851	0.459800	0.865472	0	0	0
57392	0	0	0	0	0	4.478461	2.083833	8.507147	0.000537	0.004300	0.005316	-0.747803	-0.007324	-0.488525	0.339026	-0.179958	-0.186765	-0.904321	13.999056	-26.879456	-142.259486	-0.705354	-0.545956	0.452115	0.680395	-0.700361	0.215770	0.198842	0.459811	0.865468	0	0	0
57393	0	0	0	0	0	4.478181	2.083588	8.507354	-0.001546	0.004482	0.003693	-0.751709	-0.008789	-0.489990	0.339017	-0.179954	-0.186764	-0.904325	13.999335	-26.878910	-142.260669	-0.705368	-0.545944	0.452106	0.680380	-0.700374	0.215776	0.198842	0.459806	0.865471	0	0	0
57394	0	0	0	0	0	4.459969	2.119296	8.470714	-0.000429	0.003098	0.007747	-0.755615	-0.016846	-0.491699	0.339027	-0.179961	-0.186766	-0.904319	13.999004	-26.879941	-142.259314	-0.705349	-0.545956	0.452122	0.680399	-0.700358	0.215769	0.198847	0.459816	0.865465	0	0	0
57395	0	0	0	0	0	4.458140	2.110784	8.512296	-0.001782	0.001350	0.005052	-0.755859	-0.013428	-0.495605	0.339021	-0.179974	-0.186768	-0.904318	13.998985	-26.881325	-142.260137	-0.705348	-0.545939	0.452144	0.680393	-0.700365	0.215766	0.198871	0.459825	0.865454	0	0	0
57396	0	0	0	0	0	4.460212	2.093676	8.494936	-0.000751	0.006923	0.004361	-0.754395	-0.010742	-0.481689	0.339017	-0.179961	-0.186766	-0.904323	13.999291	-26.879722	-142.260616	-0.705363	-0.545941	0.452119	0.680383	-0.700372	0.215773	0.198852	0.459813	0.865465	0	0	0
57397	0	0	0	0	0	4.474471	2.123700	8.501874	-0.004295	0.004631	0.011176	-0.754883	-0.011475	-0.492920	0.339040	-0.179969	-0.186745	-0.904317	13.995876	-26.880130	-142.257112	-0.705327	-0.545982	0.452125	0.680415	-0.700357	0.215721	0.198869	0.459787	0.865475	0	0	0
57398	0	0	0	0	0	4.459592	2.092519	8.495547	-0.002190	0.005794	0.003215	-0.750977	-0.007324	-0.496582	0.339029	-0.179963	-0.186739	-0.904324	13.995697	-26.879106	-142.258389	-0.705345	-0.545972	0.452109	0.680396	-0.700376	0.215720	0.198869	0.459771	0.865484	0	0	0
57399	0	0	0	0	0	4.493670	2.094773	8.497802	-0.002512	0.003281	0.006124	-0.747803	-0.013428	-0.493896	0.339029	-0.179969	-0.186734	-0.904324	13.994821	-26.879565	-142.258244	-0.705341	-0.545971	0.452117	0.680396	-0.700380	0.215706	0.198884	0.459765	0.865483	0	0	0
57400	0	0	0	0	0	4.461477	2.074836	8.478425	-0.002512	0.003281	0.006123	-0.754395	-0.008789	-0.495117	0.339030	-0.179976	-0.186728	-0.904323	13.993772	-26.880153	-142.257874	-0.705334	-0.545973	0.452126	0.680399	-0.700382	0.215689	0.198901	0.459759	0.865483	0	0	0
57401	0	0	0	0	0	4.458906	2.091157	8.496242	-0.001717	0.005721	0.006791	-0.757568	-0.006592	-0.493896	0.339036	-0.179970	-0.186721	-0.904323	13.992993	-26.879348	-142.256934	-0.705330	-0.545988	0.452113	0.680405	-0.700379	0.215679	0.198893	0.459745	0.865492	0	0	0
57402	0	0	0	0	0	4.476141	2.079644	8.509393	-0.000343	0.002478	0.006197	-0.754883	-0.023438	-0.490723	0.339040	-0.179979	-0.186726	-0.904319	13.993180	-26.880491	-142.256590	-0.705320	-0.545987	0.452131	0.680414	-0.700371	0.215680	0.198901	0.459759	0.865482	0	0	0
57403	0	0	0	0	0	4.478306	2.062644	8.491955	0.000624	0.003679	0.003766	-0.748291	-0.020996	-0.498047	0.339032	-0.179975	-0.186736	-0.904321	13.994738	-26.880402	-142.257852	-0.705332	-0.545972	0.452130	0.680403	-0.700374	0.215703	0.198892	0.459773	0.865477	0	0	0
57404	0	0	0	0	0	4.458400	2.090098	8.496768	-0.003650	0.003319	0.011652	-0.744873	-0.007568	-0.490234	0.339053	-0.179990	-0.186720	-0.904313	13.991718	-26.881721	-142.254646	-0.705293	-0.546005	0.452150	0.680436	-0.700357	0.215655	0.198918	0.459759	0.865479	0	0	0
57405	0	0	0	0	0	4.455916	2.106488	8.514524	0.002150	0.004188	0.003363	-0.748535	-0.007568	-0.488770	0.339046	-0.179981	-0.186737	-0.904314	13.994228	-26.881293	-142.256081	-0.705310	-0.545989	0.452144	0.680426	-0.700355	0.215694	0.198894	0.459781	0.865472	0	0	0
57406	0	0	0	0	0	4.473279	2.095042	8.527590	-0.002835	0.000768	0.009031	-0.741699	-0.010498	-0.490479	0.339058	-0.180004	-0.186731	-0.904306	13.992305	-26.883760	-142.254230	-0.705277	-0.546000	0.452182	0.680449	-0.700343	0.215660	0.198932	0.459787	0.865461	0	0	0
57407	0	0	0	0	0	4.458021	2.088922	8.497257	-0.000190	0.006230	0.006387	-0.751709	-0.009277	-0.489990	0.339064	-0.179993	-0.186730	-0.904306	13.992479	-26.882616	-142.253463	-0.705277	-0.546015	0.452164	0.680456	-0.700335	0.215665	0.198910	0.459781	0.865469	0	0	0
57408	0	0	0	0	0	4.492037	2.091264	8.499529	-0.001544	0.004482	0.003692	-0.751709	-0.012939	-0.496094	0.339056	-0.179991	-0.186729	-0.904310	13.992585	-26.882255	-142.254466	-0.705288	-0.546005	0.452158	0.680443	-0.700347	0.215667	0.198912	0.459776	0.865471	0	0	0
57409	0	0	0	0	0	4.456895	2.113196	8.473856	-0.001071	0.004409	0.007268	-0.755859	-0.010254	-0.483643	0.339064	-0.179991	-0.186727	-0.904308	13.992134	-26.882245	-142.253432	-0.705279	-0.546017	0.452158	0.680454	-0.700338	0.215660	0.198909	0.459773	0.865473	0	0	0
57410	0	0	0	0	0	4.457220	2.087818	8.497948	-0.002511	0.003281	0.006122	-0.748291	-0.004883	-0.492432	0.339064	-0.179999	-0.186721	-0.904307	13.991131	-26.882967	-142.253265	-0.705272	-0.546016	0.452170	0.680454	-0.700342	0.215644	0.198929	0.459768	0.865471	0	0	0
57411	0	0	0	0	0	4.474420	2.076241	8.511129	-0.001629	0.005101	0.005241	-0.755371	-0.012451	-0.495361	0.339062	-0.179995	-0.186717	-0.904309	13.990882	-26.882292	-142.253388	-0.705278	-0.546018	0.452159	0.680450	-0.700347	0.215641	0.198924	0.459759	0.865477	0	0	0
57412	0	0	0	0	0	4.474008	2.075925	8.511422	-0.000747	0.006922	0.004359	-0.751953	-0.013672	-0.499023	0.339061	-0.179981	-0.186714	-0.904313	13.991059	-26.880667	-142.253519	-0.705289	-0.546024	0.452134	0.680444	-0.700351	0.215647	0.198904	0.459745	0.865489	0	0	0
57413	0	0	0	0	0	4.453820	2.103597	8.516335	0.001808	0.006664	0.009559	-0.750000	-0.018311	-0.493408	0.339083	-0.179968	-0.186719	-0.904306	13.991454	-26.879721	-142.250707	-0.705268	-0.546063	0.452119	0.680477	-0.700317	0.215655	0.198865	0.459751	0.865495	0	0	0
57414	0	0	0	0	0	4.471229	2.091969	8.529419	-0.003632	-0.001672	0.008361	-0.743164	-0.018311	-0.494141	0.339087	-0.180001	-0.186715	-0.904299	13.989593	-26.883348	-142.249992	-0.705239	-0.546054	0.452176	0.680490	-0.700315	0.215620	0.198925	0.459765	0.865474	0	0	0
57415	0	0	0	0	0	4.473543	2.074653	8.511977	-0.001628	0.005101	0.005240	-0.753906	-0.010986	-0.500000	0.339086	-0.179997	-0.186711	-0.904301	13.989346	-26.882672	-142.250115	-0.705244	-0.546056	0.452165	0.680486	-0.700320	0.215618	0.198921	0.459755	0.865480	0	0	0
57416	0	0	0	0	0	4.472784	2.099227	8.488322	-0.000985	0.003789	0.005718	-0.762207	-0.005615	-0.485352	0.339086	-0.179998	-0.186711	-0.904301	13.989330	-26.882861	-142.250095	-0.705243	-0.546056	0.452168	0.680487	-0.700319	0.215617	0.198923	0.459757	0.865479	0	0	0
57417	0	0	0	0	0	4.472582	2.098888	8.488512	-0.000985	0.003789	0.005718	-0.747803	-0.004150	-0.491699	0.339086	-0.179999	-0.186712	-0.904301	13.989409	-26.882981	-142.250123	-0.705242	-0.546055	0.452170	0.680487	-0.700319	0.215618	0.198924	0.459758	0.865478	0	0	0
57418	0	0	0	0	0	4.472870	2.073617	8.512583	-0.000985	0.003789	0.005718	-0.752441	-0.005371	-0.491211	0.339088	-0.180003	-0.186712	-0.904299	13.989228	-26.883434	-142.249838	-0.705237	-0.546056	0.452177	0.680491	-0.700316	0.215614	0.198929	0.459761	0.865475	0	0	0
57419	0	0	0	0	0	4.453054	2.101294	8.517304	0.000386	0.000546	0.005124	-0.752197	-0.012207	-0.487549	0.339083	-0.180016	-0.186726	-0.904296	13.990487	-26.885275	-142.250740	-0.705234	-0.546036	0.452206	0.680490	-0.700312	0.215630	0.198943	0.459791	0.865456	0	0	0
57420	0	0	0	0	0	4.491785	2.070255	8.484350	0.002306	0.007938	0.003553	-0.754639	-0.013672	-0.490234	0.339081	-0.179992	-0.186736	-0.904299	13.992586	-26.883056	-142.251315	-0.705253	-0.546040	0.452171	0.680484	-0.700307	0.215666	0.198897	0.459794	0.865465	0	0	0
57421	0	0	0	0	0	4.452346	2.100975	8.517753	-0.003153	0.004593	0.005642	-0.753906	-0.005371	-0.497070	0.339080	-0.179993	-0.186725	-0.904301	13.991387	-26.882719	-142.251266	-0.705255	-0.546042	0.452166	0.680479	-0.700317	0.215648	0.198906	0.459776	0.865472	0	0	0
57422	0	0	0	0	0	4.491100	2.069543	8.484886	-0.001070	0.004408	0.007266	-0.746826	-0.010010	-0.484619	0.339088	-0.179995	-0.186723	-0.904298	13.990759	-26.882922	-142.250052	-0.705242	-0.546056	0.452169	0.680492	-0.700307	0.215638	0.198907	0.459775	0.865473	0	0	0
57423	0	0	0	0	0	4.468968	2.113823	8.507227	-0.001310	0.001276	0.008625	-0.750732	-0.013916	-0.485840	0.339099	-0.180010	-0.186724	-0.904291	13.990008	-26.884842	-142.248659	-0.705217	-0.546064	0.452199	0.680512	-0.700292	0.215623	0.198927	0.459788	0.865461	0	0	0
57424	0	0	0	0	0	4.473490	2.079700	8.472272	-0.003238	0.005213	0.007191	-0.748535	-0.009521	-0.489990	0.339104	-0.180012	-0.186711	-0.904291	13.988168	-26.884655	-142.247593	-0.705208	-0.546078	0.452196	0.680518	-0.700295	0.215596	0.198938	0.459768	0.865469	0	0	0
57425	0	0	0	0	0	4.486043	2.101682	8.520611	-0.000899	0.003170	0.004168	-0.755127	-0.011963	-0.485596	0.339097	-0.180014	-0.186714	-0.904293	13.988776	-26.884905	-142.248684	-0.705217	-0.546063	0.452200	0.680508	-0.700302	0.215605	0.198943	0.459774	0.865465	0	0	0
57426	0	0	0	0	0	4.471206	2.070786	8.514146	-0.001069	0.004408	0.007265	-0.755127	-0.003662	-0.487793	0.339104	-0.180016	-0.186712	-0.904290	13.988187	-26.885172	-142.247617	-0.705205	-0.546075	0.452204	0.680520	-0.700294	0.215595	0.198944	0.459773	0.865465	0	0	0
57427	0	0	0	0	0	4.473341	2.053712	8.496736	0.001184	0.002984	0.005792	-0.749756	-0.007813	-0.484619	0.339106	-0.180017	-0.186724	-0.904287	13.989544	-26.885749	-142.247724	-0.705202	-0.546071	0.452213	0.680525	-0.700283	0.215615	0.198936	0.459794	0.865456	0	0	0
57428	0	0	0	0	0	4.451204	2.097984	8.519087	-0.005561	0.002266	0.006925	-0.747070	-0.012695	-0.490479	0.339107	-0.180037	-0.186705	-0.904287	13.986532	-26.887213	-142.246991	-0.705186	-0.546073	0.452236	0.680528	-0.700295	0.215566	0.198983	0.459773	0.865456	0	0	0
57429	0	0	0	0	0	4.472551	2.077596	8.473284	-0.000271	0.006847	0.007933	-0.753662	-0.009521	-0.492188	0.339121	-0.180025	-0.186702	-0.904285	13.986180	-26.885940	-142.245164	-0.705177	-0.546101	0.452216	0.680545	-0.700279	0.215563	0.198958	0.459764	0.865467	0	0	0
57430	0	0	0	0	0	4.452868	2.080242	8.502086	-0.000271	0.006847	0.007933	-0.755127	-0.015625	-0.493408	0.339135	-0.180014	-0.186698	-0.904282	13.985688	-26.884860	-142.243247	-0.705165	-0.546130	0.452199	0.680564	-0.700263	0.215558	0.198935	0.459754	0.865477	0	0	0
57431	0	0	0	0	0	4.469524	2.093685	8.491407	-0.000898	0.003170	0.004168	-0.749268	-0.014404	-0.484131	0.339127	-0.180016	-0.186702	-0.904284	13.986296	-26.885110	-142.244338	-0.705174	-0.546116	0.452203	0.680553	-0.700270	0.215567	0.198940	0.459760	0.865473	0	0	0
57432	0	0	0	0	0	4.471635	2.076559	8.474022	-0.001069	0.004408	0.007265	-0.752930	-0.009766	-0.495850	0.339133	-0.180018	-0.186700	-0.904282	13.985793	-26.885340	-142.243471	-0.705164	-0.546125	0.452207	0.680563	-0.700263	0.215559	0.198942	0.459759	0.865473	0	0	0
57433	0	0	0	0	0	4.484137	2.098527	8.522392	-0.001710	0.005720	0.006786	-0.748291	-0.010986	-0.489990	0.339139	-0.180012	-0.186693	-0.904282	13.985018	-26.884535	-142.242534	-0.705160	-0.546140	0.452194	0.680569	-0.700260	0.215549	0.198934	0.459746	0.865482	0	0	0
57434	0	0	0	0	0	4.468746	2.092444	8.492122	-0.001154	0.005027	0.008813	-0.753906	-0.005127	-0.493164	0.339155	-0.180012	-0.186688	-0.904277	13.983880	-26.884567	-142.240287	-0.705139	-0.546168	0.452194	0.680593	-0.700243	0.215531	0.198930	0.459740	0.865486	0	0	0
57435	0	0	0	0	0	4.466709	2.083732	8.533803	-0.004034	0.002774	0.006520	-0.751709	-0.015381	-0.486572	0.339155	-0.180024	-0.186676	-0.904277	13.982056	-26.885364	-142.239973	-0.705131	-0.546168	0.452207	0.680593	-0.700252	0.215502	0.198958	0.459726	0.865487	0	0	0
57436	0	0	0	0	0	4.485759	2.080161	8.505567	-0.001710	0.005720	0.006786	-0.749023	-0.013184	-0.486572	0.339161	-0.180020	-0.186669	-0.904277	13.981131	-26.884807	-142.238954	-0.705125	-0.546183	0.452198	0.680600	-0.700248	0.215489	0.198954	0.459713	0.865495	0	0	0
57437	0	0	0	0	0	4.485520	2.079856	8.505767	0.001185	0.002983	0.005791	-0.742432	-0.010498	-0.494873	0.339163	-0.180021	-0.186681	-0.904274	13.982488	-26.885385	-142.239062	-0.705122	-0.546179	0.452207	0.680605	-0.700237	0.215509	0.198946	0.459735	0.865485	0	0	0
57438	0	0	0	0	0	4.465583	2.107408	8.510596	-0.003320	0.005832	0.008736	-0.746582	-0.006104	-0.493408	0.339177	-0.180021	-0.186665	-0.904272	13.980103	-26.884935	-142.236810	-0.705103	-0.546209	0.452200	0.680623	-0.700231	0.215474	0.198951	0.459709	0.865498	0	0	0
57439	0	0	0	0	0	4.468019	2.065200	8.517176	-0.001539	0.004482	0.003689	-0.749268	-0.013428	-0.489502	0.339168	-0.180018	-0.186664	-0.904276	13.980387	-26.884389	-142.237995	-0.705118	-0.546197	0.452192	0.680608	-0.700244	0.215479	0.198951	0.459703	0.865501	0	0	0
57440	0	0	0	0	0	4.467332	2.089821	8.493512	-0.000982	0.003788	0.005715	-0.748047	-0.013184	-0.488281	0.339169	-0.180020	-0.186664	-0.904275	13.980296	-26.884679	-142.237851	-0.705115	-0.546197	0.452196	0.680610	-0.700242	0.215477	0.198954	0.459705	0.865499	0	0	0
57441	0	0	0	0	0	4.432700	2.086897	8.491674	-0.001624	0.005101	0.005237	-0.753662	-0.010010	-0.489746	0.339167	-0.180015	-0.186660	-0.904278	13.980052	-26.884004	-142.237975	-0.705120	-0.546199	0.452186	0.680606	-0.700247	0.215475	0.198950	0.459696	0.865505	0	0	0
57442	0	0	0	0	0	4.464512	2.105784	8.511560	-0.002593	0.003900	0.007665	-0.752930	-0.013672	-0.488281	0.339175	-0.180022	-0.186651	-0.904275	13.978528	-26.884567	-142.236759	-0.705105	-0.546211	0.452194	0.680617	-0.700244	0.215450	0.198965	0.459687	0.865506	0	0	0
57443	0	0	0	0	0	4.501383	2.066042	8.520188	-0.003235	0.005213	0.007187	-0.747559	-0.007813	-0.486328	0.339180	-0.180022	-0.186638	-0.904276	13.976803	-26.884099	-142.235651	-0.705097	-0.546227	0.452187	0.680623	-0.700246	0.215425	0.198971	0.459665	0.865516	0	0	0
57444	0	0	0	0	0	4.466393	2.087930	8.494471	-0.000426	0.003094	0.007741	-0.756836	-0.004639	-0.483643	0.339189	-0.180029	-0.186641	-0.904271	13.976543	-26.885146	-142.234496	-0.705080	-0.546236	0.452203	0.680640	-0.700231	0.215419	0.198977	0.459676	0.865509	0	0	0
57445	0	0	0	0	0	4.481194	2.093092	8.525275	-0.002349	0.007032	0.006306	-0.744873	-0.012207	-0.487305	0.339194	-0.180018	-0.186629	-0.904273	13.975446	-26.883545	-142.233655	-0.705082	-0.546255	0.452179	0.680641	-0.700234	0.215406	0.198964	0.459650	0.865526	0	0	0
57446	0	0	0	0	0	4.463502	2.103964	8.512540	0.001186	0.002982	0.005791	-0.750732	-0.006836	-0.490234	0.339196	-0.180022	-0.186641	-0.904270	13.976627	-26.884431	-142.233660	-0.705076	-0.546250	0.452192	0.680648	-0.700223	0.215422	0.198961	0.459673	0.865515	0	0	0
57447	0	0	0	0	0	4.467457	2.094993	8.453727	-0.001793	0.006339	0.008332	-0.751221	-0.015869	-0.481445	0.339209	-0.180015	-0.186631	-0.904268	13.975326	-26.883496	-142.231663	-0.705063	-0.546279	0.452178	0.680665	-0.700211	0.215404	0.198949	0.459655	0.865527	0	0	0
57448	0	0	0	0	0	4.480360	2.091997	8.525983	-0.000981	0.003788	0.005714	-0.749023	-0.018555	-0.488770	0.339209	-0.180018	-0.186632	-0.904267	13.975290	-26.883904	-142.231729	-0.705061	-0.546277	0.452184	0.680665	-0.700212	0.215403	0.198955	0.459658	0.865524	0	0	0
57449	0	0	0	0	0	4.465030	2.085939	8.495677	-0.003233	0.005213	0.007185	-0.750488	-0.009033	-0.486572	0.339215	-0.180018	-0.186619	-0.904268	13.973566	-26.883436	-142.230622	-0.705054	-0.546292	0.452177	0.680672	-0.700213	0.215378	0.198961	0.459637	0.865534	0	0	0
57450	0	0	0	0	0	4.479862	2.091059	8.526474	-0.000981	0.003788	0.005714	-0.747314	-0.016113	-0.484131	0.339214	-0.180021	-0.186620	-0.904267	13.973572	-26.883787	-142.230764	-0.705053	-0.546289	0.452182	0.680671	-0.700214	0.215377	0.198966	0.459640	0.865531	0	0	0
57451	0	0	0	0	0	4.484262	2.057111	8.491523	-0.001066	0.004407	0.007262	-0.743408	-0.007080	-0.491211	0.339221	-0.180021	-0.186618	-0.904265	13.973124	-26.883778	-142.229734	-0.705043	-0.546302	0.452182	0.680682	-0.700205	0.215370	0.198963	0.459638	0.865533	0	0	0
57452	0	0	0	0	0	4.464261	2.084612	8.496407	-0.003789	0.005907	0.005159	-0.751709	-0.017334	-0.486084	0.339218	-0.180018	-0.186602	-0.904270	13.971478	-26.882833	-142.229743	-0.705049	-0.546306	0.452167	0.680673	-0.700221	0.215347	0.198972	0.459609	0.865546	0	0	0
57453	0	0	0	0	0	4.483617	2.056090	8.492111	-0.003148	0.004594	0.005637	-0.745117	-0.006104	-0.490479	0.339217	-0.180019	-0.186592	-0.904272	13.970283	-26.882495	-142.229697	-0.705051	-0.546308	0.452162	0.680669	-0.700231	0.215330	0.198981	0.459591	0.865553	0	0	0
57454	0	0	0	0	0	4.446246	2.094960	8.483971	0.001987	0.005420	0.006458	-0.750244	-0.018555	-0.489014	0.339224	-0.180010	-0.186603	-0.904269	13.971619	-26.882025	-142.228994	-0.705047	-0.546319	0.452155	0.680681	-0.700213	0.215351	0.198954	0.459606	0.865552	0	0	0
57455	0	0	0	0	0	4.461057	2.100313	8.514723	-0.000981	0.003788	0.005713	-0.754639	-0.014160	-0.486328	0.339224	-0.180011	-0.186604	-0.904269	13.971701	-26.882147	-142.229026	-0.705047	-0.546318	0.452157	0.680681	-0.700212	0.215352	0.198955	0.459608	0.865551	0	0	0
57456	0	0	0	0	0	4.460707	2.100015	8.514979	-0.000736	0.006920	0.004355	-0.746338	-0.008789	-0.492676	0.339219	-0.179998	-0.186602	-0.904274	13.972064	-26.880586	-142.229677	-0.705062	-0.546318	0.452133	0.680669	-0.700221	0.215360	0.198937	0.459595	0.865561	0	0	0
57457	0	0	0	0	0	4.497369	2.060543	8.523639	-0.001536	0.004482	0.003687	-0.749268	-0.016602	-0.478760	0.339210	-0.179995	-0.186601	-0.904278	13.972350	-26.880041	-142.230864	-0.705077	-0.546306	0.452124	0.680654	-0.700234	0.215366	0.198937	0.459590	0.865564	0	0	0
57458	0	0	0	0	0	4.479327	2.096450	8.486997	0.000546	0.004294	0.005312	-0.744629	-0.008301	-0.485352	0.339209	-0.179993	-0.186608	-0.904277	13.973285	-26.880069	-142.231131	-0.705080	-0.546302	0.452124	0.680654	-0.700229	0.215380	0.198928	0.459600	0.865561	0	0	0
57459	0	0	0	0	0	4.496617	2.085087	8.500062	0.000470	-0.000076	0.003574	-0.748047	-0.015869	-0.493408	0.339197	-0.180006	-0.186624	-0.904276	13.975072	-26.882043	-142.233096	-0.705086	-0.546269	0.452155	0.680642	-0.700234	0.215403	0.198946	0.459634	0.865539	0	0	0
57460	0	0	0	0	0	4.444663	2.093577	8.485142	-0.000735	0.006920	0.004354	-0.755127	-0.013672	-0.489014	0.339194	-0.179993	-0.186621	-0.904280	13.975333	-26.880402	-142.233438	-0.705099	-0.546272	0.452130	0.680634	-0.700240	0.215410	0.198926	0.459621	0.865550	0	0	0
57461	0	0	0	0	0	4.479031	2.070747	8.511407	-0.001235	0.005644	0.010356	-0.752441	-0.011475	-0.487061	0.339217	-0.179990	-0.186613	-0.904274	13.973830	-26.880134	-142.230287	-0.705071	-0.546312	0.452125	0.680667	-0.700215	0.215388	0.198916	0.459611	0.865558	0	0	0
57462	0	0	0	0	0	4.493544	2.100979	8.518265	0.001356	0.001744	0.002694	-0.751953	-0.010498	-0.485840	0.339203	-0.179996	-0.186631	-0.904274	13.976143	-26.881247	-142.232586	-0.705086	-0.546279	0.452143	0.680650	-0.700221	0.215421	0.198920	0.459641	0.865541	0	0	0
57463	0	0	0	0	0	4.478230	2.095277	8.487866	-0.002091	0.005176	0.001660	-0.747070	-0.012939	-0.492676	0.339185	-0.179989	-0.186628	-0.904283	13.976634	-26.880035	-142.234929	-0.705116	-0.546256	0.452124	0.680619	-0.700248	0.215431	0.198919	0.459628	0.865548	0	0	0
57464	0	0	0	0	0	4.475981	2.086782	8.529560	-0.001065	0.004406	0.007260	-0.746826	-0.010010	-0.489258	0.339192	-0.179990	-0.186626	-0.904280	13.976059	-26.880233	-142.233859	-0.705105	-0.546268	0.452127	0.680631	-0.700239	0.215421	0.198919	0.459626	0.865549	0	0	0
57465	0	0	0	0	0	4.461001	2.055706	8.523149	-0.005313	0.005401	0.005557	-0.749268	-0.016846	-0.486084	0.339189	-0.179991	-0.186604	-0.904286	13.973589	-26.879436	-142.233738	-0.705108	-0.546273	0.452115	0.680622	-0.700259	0.215386	0.198938	0.459589	0.865564	0	0	0
57466	0	0	0	0	0	4.457993	2.096901	8.517168	-0.001620	0.005100	0.005234	-0.748779	-0.004883	-0.494141	0.339187	-0.179988	-0.186600	-0.904288	13.973254	-26.878969	-142.233922	-0.705113	-0.546273	0.452107	0.680617	-0.700265	0.215381	0.198938	0.459580	0.865569	0	0	0
57467	0	0	0	0	0	4.494360	2.082149	8.501976	-0.003231	0.005213	0.007182	-0.747314	-0.014160	-0.496094	0.339193	-0.179988	-0.186587	-0.904289	13.971532	-26.878502	-142.232817	-0.705105	-0.546289	0.452100	0.680623	-0.700267	0.215356	0.198944	0.459559	0.865579	0	0	0
57468	0	0	0	0	0	4.457410	2.096025	8.517688	0.000547	0.004293	0.005311	-0.748779	-0.019531	-0.485596	0.339194	-0.179984	-0.186594	-0.904287	13.972375	-26.878387	-142.232751	-0.705105	-0.546291	0.452098	0.680626	-0.700260	0.215369	0.198932	0.459568	0.865577	0	0	0
57469	0	0	0	0	0	4.508902	2.087039	8.532982	-0.002976	0.003357	0.002539	-0.750977	-0.009277	-0.494629	0.339178	-0.179988	-0.186589	-0.904294	13.972238	-26.878309	-142.234828	-0.705126	-0.546265	0.452097	0.680600	-0.700286	0.215367	0.198949	0.459559	0.865578	0	0	0
57470	0	0	0	0	0	4.461265	2.086668	8.459055	-0.003948	0.002157	0.004966	-0.757813	-0.011719	-0.491699	0.339169	-0.180002	-0.186580	-0.904296	13.970868	-26.879419	-142.235659	-0.705127	-0.546250	0.452114	0.680589	-0.700304	0.215345	0.198986	0.459549	0.865575	0	0	0
57471	0	0	0	0	0	4.495860	2.063818	8.485199	-0.000895	0.003169	0.004164	-0.749268	-0.006836	-0.490479	0.339162	-0.180004	-0.186584	-0.904298	13.971479	-26.879671	-142.236753	-0.705136	-0.546235	0.452118	0.680578	-0.700312	0.215353	0.198990	0.459555	0.865570	0	0	0
57472	0	0	0	0	0	4.458860	2.077721	8.500930	-0.002344	0.007032	0.006302	-0.753174	-0.005615	-0.488281	0.339167	-0.179995	-0.186572	-0.904300	13.970207	-26.878303	-142.235758	-0.705135	-0.546254	0.452097	0.680582	-0.700313	0.215337	0.198981	0.459530	0.865586	0	0	0
57473	0	0	0	0	0	4.492931	2.079781	8.503310	-0.002421	0.002663	0.004565	-0.748047	-0.008301	-0.487793	0.339160	-0.180002	-0.186569	-0.904302	13.969865	-26.878891	-142.236680	-0.705140	-0.546240	0.452106	0.680571	-0.700325	0.215330	0.198999	0.459528	0.865582	0	0	0
57474	0	0	0	0	0	4.453733	2.110488	8.536559	-0.001534	0.004482	0.003685	-0.747803	-0.010742	-0.488525	0.339152	-0.180001	-0.186567	-0.904305	13.969932	-26.878608	-142.237628	-0.705151	-0.546230	0.452102	0.680559	-0.700337	0.215332	0.199003	0.459523	0.865584	0	0	0
57475	0	0	0	0	0	4.492078	2.104097	8.479872	0.000462	0.004911	0.006858	-0.750732	-0.016357	-0.482666	0.339160	-0.179996	-0.186572	-0.904303	13.970439	-26.878263	-142.236772	-0.705145	-0.546242	0.452096	0.680570	-0.700323	0.215340	0.198986	0.459529	0.865585	0	0	0
57476	0	0	0	0	0	4.474853	2.089993	8.490949	-0.002506	0.003281	0.006112	-0.753418	-0.017334	-0.492920	0.339159	-0.180004	-0.186566	-0.904303	13.969488	-26.878979	-142.236751	-0.705140	-0.546239	0.452107	0.680569	-0.700329	0.215325	0.199005	0.459524	0.865583	0	0	0
57477	0	0	0	0	0	4.457209	2.100814	8.478210	-0.002173	0.005795	0.003206	-0.748779	-0.014648	-0.489990	0.339148	-0.179996	-0.186561	-0.904309	13.969452	-26.877637	-142.238034	-0.705161	-0.546229	0.452087	0.680549	-0.700348	0.215327	0.199000	0.459507	0.865594	0	0	0
57478	0	0	0	0	0	4.472275	2.081043	8.532905	-0.001064	0.004405	0.007258	-0.749268	-0.007568	-0.488037	0.339154	-0.179997	-0.186558	-0.904307	13.968959	-26.877796	-142.237151	-0.705151	-0.546239	0.452089	0.680559	-0.700341	0.215319	0.199001	0.459506	0.865594	0	0	0
57479	0	0	0	0	0	4.472009	2.080814	8.533101	0.002074	0.004798	0.004910	-0.749756	-0.018311	-0.496094	0.339154	-0.179987	-0.186572	-0.904306	13.970947	-26.877245	-142.237526	-0.705158	-0.546237	0.452080	0.680560	-0.700331	0.215350	0.198974	0.459524	0.865591	0	0	0
57480	0	0	0	0	0	4.493406	2.060708	8.487255	-0.002506	0.003281	0.006111	-0.744141	-0.020020	-0.480469	0.339154	-0.179995	-0.186566	-0.904306	13.969964	-26.877856	-142.237353	-0.705153	-0.546237	0.452090	0.680560	-0.700335	0.215334	0.198991	0.459518	0.865590	0	0	0
57481	0	0	0	0	0	4.473548	2.088382	8.492033	0.000548	0.004292	0.005310	-0.747070	-0.011475	-0.496338	0.339154	-0.179990	-0.186573	-0.904305	13.970999	-26.877641	-142.237557	-0.705156	-0.546235	0.452087	0.680561	-0.700330	0.215350	0.198978	0.459528	0.865588	0	0	0
57482	0	0	0	0	0	4.456298	2.074397	8.503084	-0.000979	0.003787	0.005711	-0.749756	-0.009521	-0.483398	0.339153	-0.179993	-0.186574	-0.904305	13.971029	-26.877922	-142.237721	-0.705156	-0.546232	0.452091	0.680560	-0.700331	0.215350	0.198982	0.459530	0.865585	0	0	0
57483	0	0	0	0	0	4.438817	2.085347	8.490228	-0.000255	0.001855	0.004642	-0.744629	-0.008301	-0.493652	0.339147	-0.180000	-0.186583	-0.904304	13.971964	-26.878970	-142.238721	-0.705159	-0.546214	0.452107	0.680554	-0.700333	0.215362	0.198992	0.459548	0.865574	0	0	0
57484	0	0	0	0	0	4.470935	2.079394	8.534010	0.001181	0.007966	0.009073	-0.750732	-0.010742	-0.492676	0.339169	-0.179983	-0.186582	-0.904299	13.971852	-26.877439	-142.235813	-0.705141	-0.546258	0.452084	0.680584	-0.700303	0.215363	0.198951	0.459542	0.865586	0	0	0
57485	0	0	0	0	0	4.472483	2.087301	8.492860	-0.000091	0.005605	0.004831	-0.748291	-0.017090	-0.500000	0.339168	-0.179973	-0.186585	-0.904301	13.972565	-26.876428	-142.236113	-0.705150	-0.546259	0.452068	0.680580	-0.700303	0.215376	0.198933	0.459541	0.865591	0	0	0
57486	0	0	0	0	0	4.489625	2.075726	8.506047	-0.001866	0.001968	0.006589	-0.755615	-0.008301	-0.489014	0.339169	-0.179986	-0.186584	-0.904299	13.971912	-26.877760	-142.235812	-0.705139	-0.546256	0.452089	0.680586	-0.700301	0.215364	0.198955	0.459546	0.865583	0	0	0
57487	0	0	0	0	0	4.452799	2.089543	8.521692	-0.003144	0.004595	0.005631	-0.744629	-0.009277	-0.488281	0.339168	-0.179986	-0.186574	-0.904301	13.970720	-26.877421	-142.235770	-0.705140	-0.546258	0.452083	0.680581	-0.700311	0.215346	0.198964	0.459528	0.865590	0	0	0
57488	0	0	0	0	0	4.488982	2.099779	8.482582	-0.000339	0.002473	0.006189	-0.750000	-0.017822	-0.485352	0.339170	-0.179995	-0.186579	-0.904297	13.970937	-26.878579	-142.235535	-0.705131	-0.546255	0.452101	0.680588	-0.700304	0.215347	0.198974	0.459543	0.865581	0	0	0
57489	0	0	0	0	0	4.452382	2.088829	8.522085	-0.000175	0.006223	0.006378	-0.749023	-0.013184	-0.487549	0.339176	-0.179984	-0.186578	-0.904297	13.971122	-26.877438	-142.234775	-0.705131	-0.546270	0.452084	0.680595	-0.700296	0.215352	0.198952	0.459537	0.865589	0	0	0
57490	0	0	0	0	0	4.456377	2.079903	8.463296	-0.000978	0.003786	0.005710	-0.751709	-0.008545	-0.491699	0.339175	-0.179987	-0.186579	-0.904297	13.971157	-26.877798	-142.235003	-0.705131	-0.546266	0.452089	0.680593	-0.700298	0.215352	0.198957	0.459540	0.865586	0	0	0
57491	0	0	0	0	0	4.468937	2.101938	8.511624	0.001103	0.003596	0.007335	-0.739502	-0.009766	-0.489990	0.339184	-0.179987	-0.186588	-0.904292	13.971989	-26.878251	-142.234053	-0.705119	-0.546275	0.452096	0.680609	-0.700279	0.215364	0.198945	0.459558	0.865579	0	0	0
57492	0	0	0	0	0	4.471086	2.084796	8.494210	-0.002505	0.003281	0.006109	-0.751709	-0.022217	-0.486816	0.339185	-0.179994	-0.186582	-0.904291	13.970925	-26.878856	-142.233674	-0.705111	-0.546277	0.452106	0.680612	-0.700281	0.215347	0.198962	0.459552	0.865579	0	0	0
57493	0	0	0	0	0	4.453608	2.095720	8.481363	0.001188	0.002978	0.005788	-0.746826	-0.011963	-0.493896	0.339187	-0.179995	-0.186594	-0.904288	13.972285	-26.879438	-142.233784	-0.705109	-0.546273	0.452115	0.680617	-0.700270	0.215366	0.198954	0.459573	0.865569	0	0	0
57494	0	0	0	0	0	4.468243	2.100980	8.512225	-0.003447	0.008423	0.002246	-0.760986	-0.015381	-0.490234	0.339171	-0.179977	-0.186579	-0.904300	13.971577	-26.876665	-142.235454	-0.705142	-0.546266	0.452071	0.680585	-0.700302	0.215361	0.198943	0.459533	0.865593	0	0	0
57495	0	0	0	0	0	4.470123	2.083721	8.494981	-0.002589	0.003899	0.007656	-0.754883	-0.010742	-0.485596	0.339179	-0.179982	-0.186571	-0.904298	13.970181	-26.876994	-142.234258	-0.705129	-0.546279	0.452077	0.680596	-0.700298	0.215339	0.198954	0.459523	0.865596	0	0	0
57496	0	0	0	0	0	4.489225	2.080219	8.466775	-0.001531	0.004482	0.003683	-0.755127	-0.009521	-0.485840	0.339169	-0.179982	-0.186570	-0.904303	13.970377	-26.876769	-142.235570	-0.705142	-0.546264	0.452073	0.680580	-0.700313	0.215342	0.198959	0.459519	0.865597	0	0	0
57497	0	0	0	0	0	4.467245	2.099814	8.513036	-0.000089	0.005605	0.004830	-0.749268	-0.007813	-0.485596	0.339167	-0.179972	-0.186572	-0.904305	13.971091	-26.875758	-142.235870	-0.705152	-0.546265	0.452057	0.680576	-0.700313	0.215355	0.198941	0.459517	0.865602	0	0	0
57498	0	0	0	0	0	4.486369	2.096514	8.484772	-0.000254	0.001854	0.004641	-0.752441	-0.009521	-0.492188	0.339162	-0.179982	-0.186580	-0.904303	13.971842	-26.877116	-142.236757	-0.705152	-0.546247	0.452078	0.680572	-0.700315	0.215364	0.198955	0.459536	0.865589	0	0	0
57499	0	0	0	0	0	4.466850	2.099176	8.513401	-0.003227	0.005213	0.007176	-0.748535	-0.011963	-0.495361	0.339167	-0.179982	-0.186567	-0.904303	13.970124	-26.876648	-142.235656	-0.705144	-0.546263	0.452071	0.680578	-0.700316	0.215339	0.198961	0.459514	0.865599	0	0	0
57500	0	0	0	0	0	4.466552	2.098731	8.513667	-0.001531	0.004482	0.003683	-0.749268	-0.017578	-0.489258	0.339160	-0.179980	-0.186565	-0.904307	13.970248	-26.876246	-142.236671	-0.705156	-0.546253	0.452065	0.680565	-0.700328	0.215341	0.198963	0.459509	0.865601	0	0	0
57501	0	0	0	0	0	4.483691	2.087027	8.526883	-0.002035	0.003204	0.009681	-0.751709	-0.020508	-0.492920	0.339176	-0.179989	-0.186559	-0.904301	13.968648	-26.877241	-142.234320	-0.705128	-0.546277	0.452080	0.680591	-0.700311	0.215315	0.198975	0.459507	0.865600	0	0	0
57502	0	0	0	0	0	4.505036	2.066849	8.481104	0.000886	0.006805	0.002404	-0.747314	-0.007080	-0.483154	0.339163	-0.179971	-0.186566	-0.904307	13.970528	-26.875380	-142.236229	-0.705157	-0.546262	0.452051	0.680569	-0.700323	0.215347	0.198946	0.459506	0.865607	0	0	0
57503	0	0	0	0	0	4.482824	2.111384	8.503485	-0.001951	0.002586	0.008134	-0.744629	-0.003174	-0.486572	0.339172	-0.179981	-0.186563	-0.904303	13.969456	-26.876505	-142.234939	-0.705138	-0.546273	0.452069	0.680584	-0.700313	0.215329	0.198962	0.459507	0.865602	0	0	0
57504	0	0	0	0	0	4.482912	2.085973	8.527550	-0.001615	0.005100	0.005229	-0.750977	-0.016113	-0.489746	0.339173	-0.179979	-0.186558	-0.904304	13.968956	-26.876099	-142.234734	-0.705139	-0.546277	0.452063	0.680584	-0.700316	0.215322	0.198961	0.459498	0.865607	0	0	0
57505	0	0	0	0	0	4.465275	2.096898	8.514788	-0.001530	0.004482	0.003682	-0.750000	-0.006348	-0.493408	0.339164	-0.179976	-0.186557	-0.904308	13.969246	-26.875554	-142.235925	-0.705153	-0.546265	0.452054	0.680568	-0.700329	0.215327	0.198961	0.459493	0.865610	0	0	0
57506	0	0	0	0	0	4.484275	2.093521	8.486617	-0.000172	0.006222	0.006376	-0.756104	-0.009766	-0.485352	0.339170	-0.179967	-0.186556	-0.904308	13.969284	-26.874593	-142.235057	-0.705151	-0.546281	0.452039	0.680576	-0.700321	0.215330	0.198942	0.459487	0.865617	0	0	0
57507	0	0	0	0	0	4.483992	2.093089	8.486873	-0.002588	0.003899	0.007654	-0.744385	-0.006104	-0.490967	0.339178	-0.179972	-0.186548	-0.904306	13.967890	-26.874921	-142.233861	-0.705138	-0.546294	0.452044	0.680587	-0.700317	0.215308	0.198953	0.459477	0.865620	0	0	0
57508	0	0	0	0	0	4.464569	2.070801	8.539430	-0.000725	0.006918	0.004350	-0.749023	-0.008789	-0.490479	0.339176	-0.179959	-0.186545	-0.904309	13.968076	-26.873362	-142.234049	-0.705149	-0.546299	0.452020	0.680581	-0.700321	0.215314	0.198933	0.459465	0.865631	0	0	0
57509	0	0	0	0	0	4.466417	2.078532	8.498201	-0.002840	0.000767	0.009011	-0.752686	-0.007568	-0.486084	0.339186	-0.179979	-0.186540	-0.904302	13.966375	-26.875620	-142.232494	-0.705120	-0.546307	0.452055	0.680601	-0.700311	0.215284	0.198968	0.459470	0.865621	0	0	0
57510	0	0	0	0	0	4.447088	2.080991	8.526766	-0.002035	0.003203	0.009679	-0.754883	-0.009521	-0.488037	0.339204	-0.179991	-0.186533	-0.904295	13.964576	-26.876866	-142.229955	-0.705088	-0.546332	0.452075	0.680629	-0.700293	0.215254	0.198984	0.459468	0.865618	0	0	0
57511	0	0	0	0	0	4.500591	2.079921	8.500732	-0.000086	0.005604	0.004829	-0.750244	-0.009277	-0.486816	0.339202	-0.179981	-0.186535	-0.904297	13.965292	-26.875856	-142.230256	-0.705097	-0.546334	0.452059	0.680625	-0.700293	0.215267	0.198966	0.459467	0.865623	0	0	0
57512	0	0	0	0	0	4.448930	2.063536	8.509583	-0.000338	0.002472	0.006186	-0.750000	-0.014648	-0.486084	0.339204	-0.179990	-0.186541	-0.904294	13.965531	-26.877052	-142.230104	-0.705089	-0.546330	0.452077	0.680631	-0.700286	0.215268	0.198976	0.459481	0.865613	0	0	0
57513	0	0	0	0	0	4.480568	2.107252	8.505699	-0.003225	0.005213	0.007173	-0.750977	-0.016113	-0.485107	0.339210	-0.179989	-0.186528	-0.904294	13.963815	-26.876584	-142.229004	-0.705081	-0.546345	0.452070	0.680637	-0.700288	0.215243	0.198982	0.459460	0.865623	0	0	0
57514	0	0	0	0	0	4.448243	2.087584	8.486183	-0.000976	0.003786	0.005707	-0.747314	-0.012207	-0.491943	0.339208	-0.179992	-0.186528	-0.904294	13.963855	-26.876962	-142.229253	-0.705081	-0.546341	0.452076	0.680635	-0.700290	0.215243	0.198988	0.459463	0.865620	0	0	0
57515	0	0	0	0	0	4.478068	2.098262	8.547571	-0.000975	0.003785	0.005707	-0.745850	-0.008301	-0.483643	0.339208	-0.179993	-0.186529	-0.904294	13.963941	-26.877084	-142.229288	-0.705081	-0.546340	0.452078	0.680636	-0.700289	0.215244	0.198989	0.459465	0.865618	0	0	0
57516	0	0	0	0	0	4.465127	2.075436	8.499635	-0.004752	0.004709	0.007572	-0.747559	-0.012207	-0.492432	0.339215	-0.180000	-0.186509	-0.904294	13.961111	-26.877147	-142.227899	-0.705067	-0.546356	0.452079	0.680643	-0.700295	0.215202	0.199012	0.459436	0.865629	0	0	0
57517	0	0	0	0	0	4.464792	2.074901	8.499942	-0.002165	0.005796	0.003202	-0.749512	-0.014160	-0.493408	0.339204	-0.179991	-0.186504	-0.904301	13.961081	-26.875806	-142.229185	-0.705088	-0.546347	0.452058	0.680623	-0.700314	0.215204	0.199007	0.459419	0.865639	0	0	0
57518	0	0	0	0	0	4.447284	2.085840	8.487115	0.000215	0.001775	0.008212	-0.745117	-0.008545	-0.489014	0.339215	-0.180003	-0.186511	-0.904293	13.961171	-26.877512	-142.227922	-0.705065	-0.546354	0.452085	0.680644	-0.700294	0.215202	0.199016	0.459440	0.865626	0	0	0
57519	0	0	0	0	0	4.496505	2.093355	8.520084	-0.001697	0.005717	0.006774	-0.745850	-0.014648	-0.492432	0.339221	-0.179997	-0.186504	-0.904293	13.960408	-26.876708	-142.226993	-0.705061	-0.546370	0.452072	0.680650	-0.700291	0.215192	0.199008	0.459426	0.865635	0	0	0
57520	0	0	0	0	0	4.461832	2.090626	8.518135	0.000552	0.004289	0.005307	-0.753418	-0.014160	-0.490967	0.339221	-0.179994	-0.186511	-0.904292	13.961303	-26.876625	-142.227085	-0.705062	-0.546369	0.452071	0.680652	-0.700285	0.215205	0.198997	0.459436	0.865632	0	0	0
57521	0	0	0	0	0	4.515332	2.089637	8.492105	-0.001059	0.004403	0.007253	-0.751953	-0.022705	-0.490723	0.339229	-0.179993	-0.186509	-0.904290	13.960862	-26.876618	-142.226061	-0.705053	-0.546381	0.452071	0.680663	-0.700277	0.215199	0.198994	0.459434	0.865634	0	0	0
57522	0	0	0	0	0	4.463683	2.073208	8.500937	-0.000890	0.003167	0.004160	-0.753174	-0.019775	-0.479980	0.339219	-0.179997	-0.186513	-0.904292	13.961478	-26.877050	-142.227444	-0.705063	-0.546362	0.452077	0.680649	-0.700287	0.215207	0.199003	0.459441	0.865628	0	0	0
57523	0	0	0	0	0	4.480539	2.086667	8.490278	0.000553	0.004289	0.005307	-0.752930	-0.006836	-0.494629	0.339219	-0.179993	-0.186520	-0.904292	13.962518	-26.876838	-142.227651	-0.705067	-0.546361	0.452074	0.680650	-0.700282	0.215223	0.198990	0.459451	0.865626	0	0	0
57524	0	0	0	0	0	4.443497	2.100821	8.505924	-0.000721	0.006917	0.004348	-0.757080	-0.013184	-0.485352	0.339215	-0.179980	-0.186518	-0.904296	13.962819	-26.875297	-142.228146	-0.705081	-0.546362	0.452050	0.680640	-0.700289	0.215231	0.198972	0.459439	0.865636	0	0	0
57525	0	0	0	0	0	4.497076	2.074772	8.503850	-0.003139	0.004596	0.005625	-0.749512	-0.006836	-0.491211	0.339213	-0.179981	-0.186508	-0.904299	13.961632	-26.874958	-142.228107	-0.705083	-0.546364	0.452045	0.680636	-0.700299	0.215214	0.198981	0.459421	0.865643	0	0	0
57526	0	0	0	0	0	4.460185	2.088738	8.519460	0.001021	0.004210	0.008879	-0.752686	-0.005859	-0.495605	0.339230	-0.179982	-0.186514	-0.904291	13.961776	-26.875550	-142.226018	-0.705059	-0.546387	0.452054	0.680663	-0.700271	0.215215	0.198970	0.459436	0.865638	0	0	0
57527	0	0	0	0	0	4.479298	2.085262	8.491278	-0.001695	0.005717	0.006772	-0.750000	-0.017578	-0.490723	0.339236	-0.179976	-0.186507	-0.904291	13.961014	-26.874746	-142.225090	-0.705055	-0.546402	0.452042	0.680670	-0.700268	0.215205	0.198962	0.459422	0.865647	0	0	0
57528	0	0	0	0	0	4.459616	2.087878	8.519969	-0.003138	0.004596	0.005624	-0.748535	-0.010498	-0.485107	0.339235	-0.179978	-0.186496	-0.904293	13.959684	-26.874560	-142.224946	-0.705055	-0.546405	0.452039	0.680666	-0.700278	0.215185	0.198974	0.459405	0.865654	0	0	0
57529	0	0	0	0	0	4.493730	2.089763	8.522430	-0.001143	0.005020	0.008797	-0.748779	-0.013916	-0.492676	0.339250	-0.179977	-0.186492	-0.904289	13.958717	-26.874423	-142.222864	-0.705036	-0.546431	0.452037	0.680688	-0.700261	0.215171	0.198968	0.459399	0.865658	0	0	0
57530	0	0	0	0	0	4.459133	2.086961	8.520447	-0.000974	0.003785	0.005705	-0.751953	-0.010986	-0.495117	0.339250	-0.179979	-0.186492	-0.904289	13.958679	-26.874740	-142.222874	-0.705034	-0.546430	0.452041	0.680689	-0.700261	0.215169	0.198972	0.459401	0.865656	0	0	0
57531	0	0	0	0	0	4.475908	2.100281	8.509875	-0.000251	0.006838	0.007919	-0.757813	-0.006836	-0.490234	0.339263	-0.179967	-0.186489	-0.904287	13.958343	-26.873471	-142.221057	-0.705025	-0.546458	0.452022	0.680706	-0.700245	0.215167	0.198946	0.459392	0.865667	0	0	0
57532	0	0	0	0	0	4.460829	2.069397	8.503364	-0.002501	0.003281	0.006103	-0.746338	-0.004150	-0.490723	0.339264	-0.179975	-0.186483	-0.904286	13.957286	-26.874143	-142.220728	-0.705017	-0.546459	0.452032	0.680708	-0.700248	0.215149	0.198964	0.459386	0.865666	0	0	0
57533	0	0	0	0	0	4.458147	2.110970	8.497248	0.004246	0.003980	0.004989	-0.751709	-0.012207	-0.492676	0.339266	-0.179966	-0.186508	-0.904282	13.960552	-26.874058	-142.221180	-0.705022	-0.546454	0.452031	0.680714	-0.700227	0.215199	0.198928	0.459424	0.865654	0	0	0
57534	0	0	0	0	0	4.494678	2.071508	8.505914	-0.002162	0.005796	0.003199	-0.750000	-0.015137	-0.487061	0.339257	-0.179959	-0.186501	-0.904288	13.960313	-26.872884	-142.222199	-0.705039	-0.546447	0.452013	0.680697	-0.700244	0.215198	0.198925	0.459406	0.865664	0	0	0
57535	0	0	0	0	0	4.444839	2.088373	8.449449	0.001190	0.002974	0.005786	-0.749023	-0.010986	-0.487793	0.339258	-0.179959	-0.186513	-0.904285	13.961675	-26.873469	-142.222311	-0.705037	-0.546443	0.452022	0.680702	-0.700233	0.215217	0.198917	0.459428	0.865655	0	0	0
57536	0	0	0	0	0	4.459769	2.068698	8.504090	-0.000082	0.005603	0.004827	-0.754639	-0.014648	-0.485596	0.339256	-0.179952	-0.186516	-0.904287	13.962292	-26.872684	-142.222669	-0.705045	-0.546442	0.452009	0.680698	-0.700234	0.215228	0.198903	0.459427	0.865658	0	0	0
57537	0	0	0	0	0	4.457178	2.085160	8.521911	-0.001058	0.004402	0.007250	-0.752441	-0.007324	-0.488281	0.339264	-0.179951	-0.186514	-0.904284	13.961853	-26.872677	-142.221648	-0.705035	-0.546455	0.452009	0.680709	-0.700225	0.215221	0.198900	0.459425	0.865660	0	0	0
57538	0	0	0	0	0	4.474023	2.098364	8.511340	-0.003137	0.004596	0.005622	-0.750000	-0.011230	-0.492920	0.339262	-0.179955	-0.186503	-0.904286	13.960530	-26.872624	-142.221609	-0.705035	-0.546456	0.452009	0.680704	-0.700236	0.215201	0.198915	0.459409	0.865665	0	0	0
57539	0	0	0	0	0	4.471606	2.089690	8.553053	-0.001693	0.005717	0.006770	-0.746582	-0.009033	-0.489990	0.339268	-0.179949	-0.186497	-0.904287	13.959770	-26.871820	-142.220683	-0.705031	-0.546471	0.451996	0.680711	-0.700233	0.215191	0.198907	0.459395	0.865674	0	0	0
57540	0	0	0	0	0	4.490569	2.111058	8.501057	-0.000590	0.004323	0.010821	-0.749023	-0.008545	-0.491699	0.339293	-0.179953	-0.186493	-0.904277	13.958426	-26.872504	-142.217271	-0.704995	-0.546510	0.452007	0.680750	-0.700201	0.215170	0.198903	0.459397	0.865674	0	0	0
57541	0	0	0	0	0	4.475599	2.080214	8.494466	-0.000889	0.003167	0.004158	-0.745361	-0.016113	-0.493164	0.339285	-0.179955	-0.186497	-0.904279	13.959041	-26.872756	-142.218368	-0.705003	-0.546495	0.452011	0.680739	-0.700209	0.215179	0.198908	0.459403	0.865670	0	0	0
57542	0	0	0	0	0	4.475300	2.079895	8.494702	-0.000249	0.006837	0.007918	-0.743652	-0.017822	-0.493896	0.339299	-0.179944	-0.186494	-0.904277	13.958575	-26.871603	-142.216460	-0.704992	-0.546524	0.451993	0.680757	-0.700192	0.215174	0.198884	0.459393	0.865681	0	0	0
57543	0	0	0	0	0	4.472788	2.096259	8.512507	-0.001865	0.001967	0.006581	-0.757324	-0.007324	-0.482910	0.339301	-0.179955	-0.186493	-0.904274	13.958033	-26.872857	-142.216232	-0.704982	-0.546521	0.452012	0.680762	-0.700191	0.215163	0.198904	0.459399	0.865673	0	0	0
57544	0	0	0	0	0	4.474873	2.079143	8.495110	-0.000080	0.005602	0.004826	-0.753174	-0.015137	-0.491211	0.339299	-0.179948	-0.186495	-0.904276	13.958641	-26.872069	-142.216562	-0.704990	-0.546520	0.452000	0.680758	-0.700192	0.215174	0.198890	0.459398	0.865677	0	0	0
57545	0	0	0	0	0	4.455145	2.081977	8.523751	0.000387	0.005522	0.008397	-0.747314	-0.004395	-0.486572	0.339314	-0.179941	-0.186497	-0.904271	13.958628	-26.871598	-142.214652	-0.704975	-0.546546	0.451993	0.680780	-0.700171	0.215175	0.198869	0.459400	0.865680	0	0	0
57546	0	0	0	0	0	4.491396	2.092181	8.484762	-0.000972	0.003785	0.005703	-0.749023	-0.006836	-0.482910	0.339314	-0.179944	-0.186497	-0.904270	13.958547	-26.871943	-142.214565	-0.704972	-0.546546	0.451998	0.680782	-0.700169	0.215173	0.198873	0.459403	0.865678	0	0	0
57547	0	0	0	0	0	4.454692	2.081301	8.524153	-0.000972	0.003785	0.005703	-0.753418	-0.009766	-0.482910	0.339314	-0.179945	-0.186498	-0.904270	13.958636	-26.872066	-142.214604	-0.704972	-0.546544	0.452000	0.680782	-0.700169	0.215174	0.198874	0.459405	0.865677	0	0	0
57548	0	0	0	0	0	4.458834	2.072323	8.465375	-0.001692	0.005717	0.006769	-0.751221	-0.013672	-0.486572	0.339320	-0.179942	-0.186491	-0.904270	13.957695	-26.871602	-142.213602	-0.704965	-0.546559	0.451993	0.680789	-0.700166	0.215160	0.198872	0.459392	0.865684	0	0	0
57549	0	0	0	0	0	4.471165	2.094234	8.513858	-0.000079	0.005602	0.004825	-0.746826	-0.009521	-0.491699	0.339319	-0.179932	-0.186494	-0.904272	13.958416	-26.870593	-142.213906	-0.704974	-0.546560	0.451977	0.680785	-0.700166	0.215173	0.198854	0.459391	0.865689	0	0	0
57550	0	0	0	0	0	4.456066	2.063532	8.507285	0.001023	0.004207	0.008876	-0.752197	-0.011719	-0.488770	0.339335	-0.179933	-0.186500	-0.904264	13.958590	-26.871112	-142.211852	-0.704952	-0.546583	0.451985	0.680812	-0.700139	0.215175	0.198841	0.459405	0.865684	0	0	0
57551	0	0	0	0	0	4.472827	2.076893	8.496738	-0.002709	0.006494	0.001172	-0.753418	-0.010986	-0.494385	0.339316	-0.179920	-0.186492	-0.904276	13.958771	-26.869103	-142.214295	-0.704987	-0.546563	0.451954	0.680777	-0.700171	0.215181	0.198835	0.459380	0.865699	0	0	0
57552	0	0	0	0	0	4.485209	2.098840	8.545184	-0.000337	0.002470	0.006182	-0.745605	-0.006104	-0.494873	0.339318	-0.179928	-0.186497	-0.904272	13.959040	-26.870218	-142.214169	-0.704979	-0.546559	0.451971	0.680783	-0.700165	0.215183	0.198844	0.459394	0.865689	0	0	0
57553	0	0	0	0	0	4.455060	2.087578	8.484118	-0.001607	0.005099	0.005222	-0.750488	-0.014648	-0.488770	0.339316	-0.179923	-0.186494	-0.904275	13.958809	-26.869544	-142.214303	-0.704985	-0.546560	0.451961	0.680779	-0.700170	0.215181	0.198840	0.459385	0.865695	0	0	0
57554	0	0	0	0	0	4.472056	2.075908	8.497385	-0.000972	0.003784	0.005702	-0.746826	-0.014893	-0.483398	0.339317	-0.179925	-0.186494	-0.904274	13.958730	-26.869808	-142.214172	-0.704982	-0.546561	0.451965	0.680781	-0.700168	0.215179	0.198843	0.459386	0.865694	0	0	0
57555	0	0	0	0	0	4.486571	2.106007	8.504419	-0.002157	0.005797	0.003197	-0.751221	-0.012451	-0.482178	0.339306	-0.179917	-0.186488	-0.904281	13.958705	-26.868466	-142.215460	-0.705002	-0.546551	0.451944	0.680761	-0.700187	0.215182	0.198837	0.459369	0.865704	0	0	0
57556	0	0	0	0	0	4.469205	2.066994	8.539358	-0.001691	0.005716	0.006767	-0.749023	-0.010254	-0.489502	0.339311	-0.179914	-0.186482	-0.904281	13.957872	-26.867955	-142.214711	-0.704998	-0.546563	0.451936	0.680766	-0.700186	0.215170	0.198835	0.459357	0.865711	0	0	0
57557	0	0	0	0	0	4.451427	2.102902	8.502769	-0.002157	0.005797	0.003196	-0.747559	-0.011475	-0.493896	0.339300	-0.179905	-0.186476	-0.904288	13.957847	-26.866613	-142.216000	-0.705019	-0.546554	0.451915	0.680746	-0.700204	0.215172	0.198830	0.459340	0.865722	0	0	0
57558	0	0	0	0	0	4.468229	2.091454	8.516082	0.002978	0.006606	0.004030	-0.745605	-0.015625	-0.489990	0.339299	-0.179886	-0.186491	-0.904289	13.960315	-26.865079	-142.216500	-0.705033	-0.546555	0.451891	0.680744	-0.700194	0.215212	0.198786	0.459354	0.865724	0	0	0
57559	0	0	0	0	0	4.504793	2.051893	8.524742	0.000214	0.001772	0.008207	-0.748291	-0.010986	-0.485840	0.339310	-0.179897	-0.186498	-0.904281	13.960519	-26.866667	-142.215289	-0.705012	-0.546562	0.451916	0.680764	-0.700174	0.215212	0.198793	0.459375	0.865711	0	0	0
57560	0	0	0	0	0	4.485008	2.104697	8.505568	0.000557	0.004286	0.005304	-0.743652	-0.019531	-0.491699	0.339309	-0.179894	-0.186505	-0.904280	13.961460	-26.866639	-142.215535	-0.705015	-0.546559	0.451915	0.680764	-0.700170	0.215227	0.198783	0.459386	0.865708	0	0	0
57561	0	0	0	0	0	4.467691	2.090875	8.516507	0.001192	0.002971	0.005784	-0.745361	-0.014893	-0.486816	0.339311	-0.179895	-0.186517	-0.904277	13.962823	-26.867226	-142.215649	-0.705012	-0.546555	0.451925	0.680769	-0.700159	0.215246	0.198775	0.459407	0.865698	0	0	0
57562	0	0	0	0	0	4.450260	2.077186	8.527471	0.002979	0.006606	0.004030	-0.747559	-0.004150	-0.490723	0.339308	-0.179876	-0.186533	-0.904279	13.965421	-26.865662	-142.216475	-0.705030	-0.546552	0.451900	0.680763	-0.700151	0.215288	0.198732	0.459422	0.865700	0	0	0
57563	0	0	0	0	0	4.501333	2.093079	8.519176	-0.000077	0.005601	0.004824	-0.750977	-0.007568	-0.496094	0.339306	-0.179866	-0.186535	-0.904281	13.966143	-26.864654	-142.216780	-0.705039	-0.546554	0.451884	0.680759	-0.700152	0.215301	0.198714	0.459420	0.865705	0	0	0
57564	0	0	0	0	0	4.469052	2.073806	8.499478	0.001826	0.001657	0.006264	-0.748535	-0.009033	-0.499268	0.339312	-0.179874	-0.186551	-0.904274	13.967557	-26.866188	-142.216370	-0.705025	-0.546551	0.451908	0.680774	-0.700132	0.215320	0.198712	0.459453	0.865688	0	0	0
57565	0	0	0	0	0	4.468833	2.073581	8.499648	-0.002156	0.005797	0.003195	-0.750244	-0.012207	-0.488281	0.339302	-0.179865	-0.186545	-0.904281	13.967533	-26.864845	-142.217659	-0.705046	-0.546542	0.451887	0.680754	-0.700150	0.215322	0.198707	0.459436	0.865699	0	0	0
57566	0	0	0	0	0	4.466267	2.090119	8.517439	0.001192	0.002971	0.005784	-0.746338	-0.010498	-0.482910	0.339304	-0.179867	-0.186557	-0.904277	13.968725	-26.865556	-142.217584	-0.705041	-0.546539	0.451899	0.680761	-0.700138	0.215339	0.198700	0.459457	0.865689	0	0	0
57567	0	0	0	0	0	4.453500	2.067820	8.469284	0.003355	0.002158	0.005867	-0.740723	-0.012451	-0.494385	0.339307	-0.179868	-0.186580	-0.904271	13.971360	-26.866606	-142.217772	-0.705036	-0.546532	0.451915	0.680771	-0.700117	0.215376	0.198683	0.459499	0.865671	0	0	0
57568	0	0	0	0	0	4.483069	2.103707	8.506835	0.001536	0.005486	0.002881	-0.748779	-0.015381	-0.495117	0.339299	-0.179856	-0.186591	-0.904274	13.973414	-26.865534	-142.219200	-0.705056	-0.546519	0.451898	0.680757	-0.700120	0.215409	0.198657	0.459509	0.865671	0	0	0
57569	0	0	0	0	0	4.467784	2.098161	8.476394	0.000558	0.004286	0.005303	-0.749023	-0.009033	-0.487549	0.339299	-0.179851	-0.186599	-0.904274	13.974457	-26.865323	-142.219409	-0.705060	-0.546518	0.451895	0.680758	-0.700115	0.215426	0.198644	0.459519	0.865669	0	0	0
57570	0	0	0	0	0	4.482556	2.078361	8.531098	-0.001605	0.005100	0.005220	-0.754883	-0.010498	-0.487549	0.339298	-0.179848	-0.186594	-0.904276	13.974094	-26.864804	-142.219476	-0.705064	-0.546520	0.451887	0.680754	-0.700120	0.215421	0.198643	0.459509	0.865674	0	0	0
57571	0	0	0	0	0	4.462576	2.131149	8.512039	-0.000076	0.005601	0.004823	-0.749023	-0.008057	-0.483398	0.339296	-0.179839	-0.186597	-0.904278	13.974816	-26.863795	-142.219782	-0.705073	-0.546521	0.451871	0.680750	-0.700120	0.215434	0.198625	0.459508	0.865679	0	0	0
57572	0	0	0	0	0	4.466890	2.072281	8.500986	-0.001689	0.005717	0.006764	-0.754883	-0.003418	-0.495605	0.339302	-0.179836	-0.186590	-0.904277	13.973886	-26.863299	-142.218782	-0.705066	-0.546535	0.451863	0.680758	-0.700116	0.215421	0.198622	0.459495	0.865687	0	0	0
57573	0	0	0	0	0	4.468963	2.054999	8.483636	-0.003944	0.002164	0.004948	-0.744141	-0.004639	-0.487305	0.339294	-0.179848	-0.186581	-0.904280	13.972599	-26.864219	-142.219542	-0.705068	-0.546522	0.451878	0.680747	-0.700134	0.215400	0.198654	0.459486	0.865684	0	0	0
57574	0	0	0	0	0	4.446901	2.099455	8.505989	-0.002154	0.005797	0.003194	-0.748291	-0.007813	-0.491699	0.339287	-0.179841	-0.186574	-0.904285	13.972273	-26.863073	-142.220348	-0.705083	-0.546517	0.451860	0.680732	-0.700148	0.215397	0.198651	0.459468	0.865694	0	0	0
57575	0	0	0	0	0	4.478682	2.093163	8.549999	-0.003683	0.005295	0.003591	-0.747314	-0.010498	-0.489014	0.339277	-0.179838	-0.186562	-0.904292	13.971297	-26.862064	-142.221468	-0.705100	-0.546508	0.451844	0.680712	-0.700172	0.215384	0.198659	0.459443	0.865706	0	0	0
57576	0	0	0	0	0	4.465696	2.070444	8.502061	-0.003133	0.004598	0.005616	-0.757324	-0.011230	-0.488770	0.339276	-0.179840	-0.186551	-0.904294	13.969922	-26.861896	-142.221225	-0.705098	-0.546512	0.451842	0.680710	-0.700180	0.215364	0.198672	0.459426	0.865712	0	0	0
57577	0	0	0	0	0	4.497421	2.113978	8.498356	-0.003133	0.004598	0.005616	-0.746582	-0.012207	-0.485840	0.339275	-0.179841	-0.186541	-0.904297	13.968741	-26.861555	-142.221191	-0.705100	-0.546514	0.451836	0.680705	-0.700190	0.215346	0.198681	0.459408	0.865719	0	0	0
57578	0	0	0	0	0	4.462906	2.086317	8.520133	-0.000886	0.003167	0.004154	-0.745605	-0.013672	-0.490967	0.339267	-0.179845	-0.186545	-0.904298	13.969234	-26.862072	-142.222315	-0.705108	-0.546498	0.451844	0.680695	-0.700199	0.215353	0.198691	0.459415	0.865714	0	0	0
57579	0	0	0	0	0	4.497088	2.088311	8.522588	-0.000970	0.003784	0.005699	-0.748291	-0.004883	-0.486572	0.339266	-0.179846	-0.186546	-0.904298	13.969325	-26.862195	-142.222355	-0.705107	-0.546497	0.451846	0.680695	-0.700198	0.215354	0.198691	0.459417	0.865712	0	0	0
57580	0	0	0	0	0	4.466959	2.076822	8.461573	-0.004913	0.005948	0.010646	-0.751221	-0.008545	-0.490723	0.339288	-0.179850	-0.186520	-0.904294	13.965425	-26.861988	-142.218797	-0.705075	-0.546542	0.451843	0.680724	-0.700187	0.215296	0.198707	0.459380	0.865728	0	0	0
57581	0	0	0	0	0	4.500930	2.078649	8.464184	0.000904	0.006800	0.002401	-0.746826	-0.010010	-0.489258	0.339278	-0.179831	-0.186527	-0.904300	13.967307	-26.859978	-142.220426	-0.705103	-0.546531	0.451812	0.680705	-0.700196	0.215328	0.198674	0.459379	0.865737	0	0	0
57582	0	0	0	0	0	4.444434	2.096012	8.508127	-0.003132	0.004598	0.005615	-0.753174	-0.016846	-0.482666	0.339277	-0.179834	-0.186516	-0.904302	13.965941	-26.859830	-142.220213	-0.705102	-0.546535	0.451809	0.680702	-0.700205	0.215307	0.198686	0.459361	0.865743	0	0	0
57583	0	0	0	0	0	4.451215	2.045100	8.455546	-0.002844	0.000767	0.008997	-0.746338	-0.003906	-0.485596	0.339288	-0.179854	-0.186511	-0.904295	13.964240	-26.862087	-142.218666	-0.705073	-0.546543	0.451844	0.680722	-0.700195	0.215277	0.198721	0.459367	0.865732	0	0	0
57584	0	0	0	0	0	4.495786	2.135997	8.476081	0.002721	0.003471	0.005387	-0.752930	-0.011719	-0.493164	0.339289	-0.179853	-0.186529	-0.904291	13.966411	-26.862641	-142.218950	-0.705072	-0.546537	0.451853	0.680728	-0.700180	0.215309	0.198704	0.459397	0.865720	0	0	0
57585	0	0	0	0	0	4.446447	2.078085	8.490965	-0.002498	0.003282	0.006095	-0.751709	-0.013428	-0.485107	0.339289	-0.179859	-0.186524	-0.904291	13.965550	-26.863098	-142.218821	-0.705068	-0.546536	0.451860	0.680728	-0.700184	0.215295	0.198719	0.459392	0.865719	0	0	0
57586	0	0	0	0	0	4.525292	2.121234	8.561613	-0.000158	0.006217	0.006367	-0.748535	-0.019043	-0.492432	0.339294	-0.179850	-0.186523	-0.904291	13.965640	-26.862190	-142.218110	-0.705067	-0.546549	0.451846	0.680734	-0.700177	0.215298	0.198701	0.459387	0.865726	0	0	0
57587	0	0	0	0	0	4.460801	2.057773	8.545977	-0.001686	0.005716	0.006763	-0.746582	-0.009766	-0.483887	0.339300	-0.179844	-0.186517	-0.904291	13.964885	-26.861386	-142.217188	-0.705063	-0.546564	0.451834	0.680740	-0.700174	0.215289	0.198693	0.459373	0.865735	0	0	0
57588	0	0	0	0	0	4.479874	2.079306	8.494014	-0.001350	0.003248	0.000584	-0.742676	-0.013916	-0.492188	0.339275	-0.179845	-0.186521	-0.904300	13.966163	-26.861281	-142.220610	-0.705096	-0.546523	0.451832	0.680702	-0.700205	0.215308	0.198704	0.459376	0.865731	0	0	0
57589	0	0	0	0	0	4.445280	2.076809	8.491888	0.001025	0.004203	0.008872	-0.749512	-0.012207	-0.485352	0.339291	-0.179844	-0.186528	-0.904293	13.966474	-26.861610	-142.218608	-0.705075	-0.546546	0.451837	0.680729	-0.700178	0.215312	0.198688	0.459390	0.865727	0	0	0
57590	0	0	0	0	0	4.447537	2.059556	8.474429	-0.002844	0.000768	0.008996	-0.750488	-0.008301	-0.482422	0.339301	-0.179866	-0.186522	-0.904286	13.964666	-26.864025	-142.217070	-0.705045	-0.546553	0.451875	0.680749	-0.700168	0.215280	0.198726	0.459395	0.865716	0	0	0
57591	0	0	0	0	0	4.447366	2.084267	8.450720	0.003618	0.005286	0.004510	-0.749756	-0.014648	-0.487305	0.339301	-0.179851	-0.186542	-0.904284	13.967615	-26.863149	-142.217618	-0.705056	-0.546550	0.451861	0.680750	-0.700153	0.215326	0.198685	0.459421	0.865711	0	0	0
57592	0	0	0	0	0	4.496402	2.091689	8.483883	-0.002665	0.004517	0.009183	-0.748779	-0.013672	-0.483398	0.339316	-0.179857	-0.186531	-0.904280	13.965577	-26.863631	-142.215415	-0.705032	-0.546575	0.451869	0.680771	-0.700142	0.215295	0.198698	0.459409	0.865715	0	0	0
57593	0	0	0	0	0	4.472235	2.102771	8.571520	-0.004659	0.004097	0.006009	-0.749512	-0.010254	-0.488770	0.339314	-0.179863	-0.186514	-0.904283	13.963444	-26.863623	-142.215214	-0.705030	-0.546578	0.451868	0.680766	-0.700157	0.215262	0.198721	0.459383	0.865723	0	0	0
57594	0	0	0	0	0	4.493625	2.082300	8.525885	-0.002234	0.006414	0.004736	-0.742432	-0.013916	-0.488525	0.339311	-0.179856	-0.186505	-0.904288	13.962779	-26.862398	-142.215480	-0.705040	-0.546580	0.451849	0.680757	-0.700168	0.215255	0.198717	0.459363	0.865735	0	0	0
57595	0	0	0	0	0	4.458817	2.079653	8.523902	-0.000240	0.006833	0.007910	-0.753174	-0.006348	-0.490967	0.339324	-0.179844	-0.186502	-0.904286	13.962452	-26.861132	-142.213670	-0.705031	-0.546609	0.451830	0.680774	-0.700152	0.215252	0.198691	0.459353	0.865746	0	0	0
57596	0	0	0	0	0	4.446053	2.057192	8.475782	0.001014	-0.000780	0.005595	-0.751221	-0.014404	-0.487305	0.339322	-0.179863	-0.186519	-0.904279	13.963857	-26.863952	-142.214334	-0.705020	-0.546587	0.451874	0.680779	-0.700142	0.215268	0.198713	0.459394	0.865719	0	0	0
57597	0	0	0	0	0	4.480562	2.084349	8.454182	0.004537	0.000139	0.008372	-0.749756	-0.011963	-0.493652	0.339335	-0.179874	-0.186549	-0.904266	13.966606	-26.866472	-142.213273	-0.704994	-0.546588	0.451913	0.680809	-0.700102	0.215305	0.198702	0.459455	0.865690	0	0	0
57598	0	0	0	0	0	4.443812	2.073739	8.493406	-0.002149	0.005798	0.003191	-0.748047	-0.010254	-0.484375	0.339324	-0.179867	-0.186543	-0.904272	13.966483	-26.865306	-142.214590	-0.705014	-0.546577	0.451895	0.680789	-0.700121	0.215305	0.198700	0.459438	0.865699	0	0	0
57599	0	0	0	0	0	4.475584	2.092399	8.513563	-0.001052	0.004400	0.007241	-0.740234	-0.017578	-0.496094	0.339332	-0.179867	-0.186541	-0.904270	13.966049	-26.865300	-142.213574	-0.705004	-0.546590	0.451895	0.680800	-0.700113	0.215299	0.198697	0.459436	0.865701	0	0	0
57600	0	0	0	0	0	4.472924	2.108768	8.531451	-0.000871	0.008149	0.007428	-0.752197	-0.014893	-0.489258	0.339343	-0.179850	-0.186533	-0.904271	13.965307	-26.863337	-142.211862	-0.705000	-0.546620	0.451864	0.680812	-0.700103	0.215291	0.198669	0.459415	0.865719	0	0	0
57601	0	0	0	0	0	4.509128	2.068736	8.540389	-0.003845	0.006531	0.006675	-0.752441	-0.012451	-0.482178	0.339348	-0.179844	-0.186516	-0.904274	13.963282	-26.862068	-142.210869	-0.704999	-0.546639	0.451844	0.680814	-0.700110	0.215263	0.198670	0.459382	0.865736	0	0	0
57602	0	0	0	0	0	4.476756	2.074229	8.496898	-0.000335	0.002468	0.006177	-0.746094	-0.013184	-0.491943	0.339348	-0.179853	-0.186521	-0.904271	13.963617	-26.863276	-142.210980	-0.704992	-0.546632	0.451863	0.680817	-0.700106	0.215266	0.198681	0.459397	0.865725	0	0	0
57603	0	0	0	0	0	4.442415	2.071866	8.494594	0.002626	-0.000897	0.003654	-0.747314	-0.014893	-0.487305	0.339337	-0.179867	-0.186548	-0.904267	13.966672	-26.865720	-142.213020	-0.704996	-0.546595	0.451901	0.680810	-0.700100	0.215307	0.198690	0.459450	0.865695	0	0	0
57604	0	0	0	0	0	4.442343	2.096783	8.470802	0.000562	0.004284	0.005301	-0.756348	-0.004395	-0.483154	0.339337	-0.179864	-0.186555	-0.904266	13.967627	-26.865653	-142.213276	-0.704999	-0.546592	0.451900	0.680810	-0.700096	0.215322	0.198680	0.459460	0.865692	0	0	0
57605	0	0	0	0	0	4.478787	2.107050	8.431840	0.001194	0.002968	0.005781	-0.750488	-0.007324	-0.489258	0.339338	-0.179865	-0.186567	-0.904263	13.968992	-26.866242	-142.213392	-0.704997	-0.546588	0.451909	0.680815	-0.700085	0.215341	0.198672	0.459482	0.865683	0	0	0
57606	0	0	0	0	0	4.491124	2.103885	8.504188	-0.004393	0.007230	0.004649	-0.750977	-0.010742	-0.483887	0.339335	-0.179858	-0.186547	-0.904269	13.966925	-26.864632	-142.213292	-0.705006	-0.546597	0.451884	0.680804	-0.700104	0.215313	0.198676	0.459442	0.865703	0	0	0
57607	0	0	0	0	0	4.454033	2.092859	8.543672	-0.001850	0.006949	0.009848	-0.744385	-0.014160	-0.484863	0.339356	-0.179850	-0.186535	-0.904266	13.965121	-26.863569	-142.210256	-0.704983	-0.546639	0.451868	0.680832	-0.700085	0.215288	0.198661	0.459420	0.865718	0	0	0
57608	0	0	0	0	0	4.505321	2.083134	8.559362	-0.002580	0.003900	0.007635	-0.750732	-0.016357	-0.497803	0.339362	-0.179857	-0.186526	-0.904264	13.963629	-26.864153	-142.209148	-0.704969	-0.546650	0.451877	0.680842	-0.700082	0.215264	0.198677	0.459411	0.865719	0	0	0
57609	0	0	0	0	0	4.455753	2.075112	8.526610	-0.000070	0.005599	0.004820	-0.751221	-0.013672	-0.489258	0.339361	-0.179847	-0.186529	-0.904265	13.964356	-26.863146	-142.209456	-0.704978	-0.546651	0.451861	0.680838	-0.700082	0.215277	0.198658	0.459410	0.865724	0	0	0
57610	0	0	0	0	0	4.457800	2.058071	8.509206	-0.000335	0.002467	0.006176	-0.749268	-0.000977	-0.491211	0.339362	-0.179855	-0.186534	-0.904263	13.964696	-26.864184	-142.209468	-0.704972	-0.546646	0.451877	0.680842	-0.700077	0.215280	0.198667	0.459424	0.865714	0	0	0
57611	0	0	0	0	0	4.489714	2.101921	8.505418	0.002176	0.004166	0.003361	-0.750977	-0.020020	-0.493896	0.339354	-0.179846	-0.186551	-0.904264	13.967221	-26.863772	-142.210906	-0.704988	-0.546630	0.451871	0.680832	-0.700075	0.215319	0.198644	0.459446	0.865708	0	0	0
57612	0	0	0	0	0	4.457300	2.082715	8.485717	-0.001682	0.005716	0.006758	-0.749756	-0.009033	-0.500488	0.339361	-0.179842	-0.186544	-0.904263	13.966298	-26.863114	-142.209814	-0.704982	-0.546647	0.451860	0.680840	-0.700071	0.215307	0.198638	0.459432	0.865717	0	0	0
57613	0	0	0	0	0	4.489193	2.101189	8.505874	-0.002031	0.003201	0.009659	-0.748047	-0.014404	-0.495117	0.339377	-0.179851	-0.186537	-0.904257	13.964706	-26.864109	-142.207477	-0.704953	-0.546671	0.451876	0.680866	-0.700054	0.215281	0.198650	0.459430	0.865715	0	0	0
57614	0	0	0	0	0	4.474049	2.045414	8.523087	-0.000069	0.005599	0.004819	-0.756348	-0.017822	-0.499512	0.339377	-0.179842	-0.186539	-0.904258	13.965272	-26.863130	-142.207562	-0.704960	-0.546674	0.451861	0.680864	-0.700053	0.215291	0.198632	0.459428	0.865720	0	0	0
57615	0	0	0	0	0	4.503703	2.105757	8.536960	-0.003393	0.001467	0.006966	-0.748779	-0.011475	-0.487061	0.339378	-0.179858	-0.186532	-0.904256	13.963780	-26.864718	-142.207171	-0.704947	-0.546671	0.451885	0.680869	-0.700056	0.215265	0.198666	0.459425	0.865714	0	0	0
57616	0	0	0	0	0	4.454328	2.097681	8.504117	-0.000966	0.003783	0.005695	-0.745605	-0.011475	-0.488281	0.339378	-0.179860	-0.186533	-0.904256	13.963796	-26.864987	-142.207284	-0.704946	-0.546669	0.451890	0.680868	-0.700057	0.215265	0.198670	0.459428	0.865712	0	0	0
57617	0	0	0	0	0	4.490822	2.082905	8.488998	0.001279	0.002350	0.004237	-0.749023	-0.010254	-0.486084	0.339372	-0.179863	-0.186547	-0.904255	13.965687	-26.865706	-142.208458	-0.704953	-0.546651	0.451901	0.680862	-0.700054	0.215292	0.198665	0.459453	0.865699	0	0	0
57618	0	0	0	0	0	4.473555	2.094137	8.475998	-0.000251	0.001850	0.004632	-0.741943	-0.015381	-0.483398	0.339366	-0.179872	-0.186555	-0.904253	13.966473	-26.866970	-142.209393	-0.704954	-0.546633	0.451921	0.680857	-0.700056	0.215302	0.198678	0.459471	0.865686	0	0	0
57619	0	0	0	0	0	4.473409	2.093966	8.476117	0.000647	0.003666	0.003756	-0.748291	-0.006348	-0.486328	0.339358	-0.179869	-0.186566	-0.904255	13.968046	-26.866891	-142.210664	-0.704966	-0.546618	0.451919	0.680847	-0.700059	0.215326	0.198669	0.459485	0.865681	0	0	0
57620	0	0	0	0	0	4.470778	2.085630	8.517747	0.001378	0.006715	0.005967	-0.746582	-0.012939	-0.485596	0.339364	-0.179855	-0.186571	-0.904254	13.969052	-26.865650	-142.210034	-0.704968	-0.546632	0.451900	0.680855	-0.700046	0.215343	0.198637	0.459488	0.865687	0	0	0
57621	0	0	0	0	0	4.470342	2.110300	8.494233	-0.002312	0.007032	0.006276	-0.747559	-0.015625	-0.492920	0.339369	-0.179844	-0.186560	-0.904257	13.967983	-26.864048	-142.209211	-0.704970	-0.546650	0.451875	0.680856	-0.700048	0.215330	0.198624	0.459463	0.865703	0	0	0
57622	0	0	0	0	0	4.472375	2.067849	8.500759	-0.005090	0.002201	0.010447	-0.748047	-0.018799	-0.494141	0.339384	-0.179865	-0.186541	-0.904251	13.964403	-26.865863	-142.206605	-0.704934	-0.546673	0.451903	0.680881	-0.700042	0.215273	0.198667	0.459445	0.865703	0	0	0
57623	0	0	0	0	0	4.452835	2.095552	8.505424	0.000731	0.003049	0.002212	-0.744873	-0.008545	-0.481689	0.339369	-0.179863	-0.186554	-0.904254	13.966502	-26.865913	-142.208934	-0.704956	-0.546644	0.451904	0.680860	-0.700053	0.215304	0.198662	0.459464	0.865694	0	0	0
57624	0	0	0	0	0	4.489277	2.080785	8.490335	-0.000965	0.003783	0.005694	-0.749268	-0.011475	-0.486816	0.339368	-0.179865	-0.186554	-0.904254	13.966501	-26.866211	-142.209032	-0.704955	-0.546641	0.451909	0.680860	-0.700053	0.215304	0.198666	0.459466	0.865692	0	0	0
57625	0	0	0	0	0	4.469604	2.108695	8.495021	0.000564	0.004282	0.005299	-0.746826	-0.011719	-0.489746	0.339368	-0.179861	-0.186562	-0.904253	13.967549	-26.866003	-142.209245	-0.704959	-0.546640	0.451905	0.680860	-0.700048	0.215320	0.198653	0.459476	0.865690	0	0	0
57626	0	0	0	0	0	4.471555	2.066652	8.501482	-0.001596	0.005099	0.005213	-0.749512	-0.007080	-0.492920	0.339367	-0.179858	-0.186557	-0.904255	13.967185	-26.865526	-142.209333	-0.704962	-0.546641	0.451898	0.680856	-0.700053	0.215315	0.198652	0.459467	0.865695	0	0	0
57627	0	0	0	0	0	4.454033	2.077754	8.488648	-0.000067	0.005598	0.004818	-0.749512	-0.015381	-0.493896	0.339365	-0.179848	-0.186560	-0.904257	13.967914	-26.864519	-142.209641	-0.704972	-0.546642	0.451882	0.680852	-0.700053	0.215328	0.198634	0.459465	0.865700	0	0	0
57628	0	0	0	0	0	4.468789	2.082815	8.519480	-0.001233	0.000651	0.007050	-0.744629	-0.013428	-0.490723	0.339369	-0.179866	-0.186563	-0.904252	13.967531	-26.866695	-142.209163	-0.704953	-0.546637	0.451916	0.680863	-0.700045	0.215318	0.198661	0.459483	0.865685	0	0	0
57629	0	0	0	0	0	4.470943	2.065517	8.502080	-0.005203	0.004800	0.003977	-0.754395	-0.011475	-0.481689	0.339358	-0.179868	-0.186545	-0.904259	13.965610	-26.866016	-142.210120	-0.704967	-0.546629	0.451906	0.680843	-0.700074	0.215291	0.198683	0.459449	0.865697	0	0	0
57630	0	0	0	0	0	4.468383	2.106937	8.496099	0.000101	0.004365	0.001731	-0.749268	-0.010742	-0.485352	0.339341	-0.179863	-0.186553	-0.904265	13.967277	-26.865519	-142.212597	-0.704993	-0.546601	0.451898	0.680817	-0.700091	0.215317	0.198677	0.459457	0.865694	0	0	0
57631	0	0	0	0	0	4.470403	2.064986	8.502492	-0.000334	0.002466	0.006174	-0.750732	-0.008057	-0.482910	0.339343	-0.179869	-0.186559	-0.904262	13.967690	-26.866441	-142.212545	-0.704987	-0.546597	0.451912	0.680822	-0.700085	0.215321	0.198683	0.459470	0.865686	0	0	0
57632	0	0	0	0	0	4.467963	2.081517	8.520230	0.000565	0.004282	0.005299	-0.746338	-0.006836	-0.487793	0.339343	-0.179868	-0.186566	-0.904261	13.968562	-26.866542	-142.212689	-0.704988	-0.546595	0.451914	0.680823	-0.700079	0.215334	0.198675	0.459482	0.865682	0	0	0
57633	0	0	0	0	0	4.502060	2.083458	8.522794	-0.001512	0.004482	0.003668	-0.746826	-0.015869	-0.487549	0.339334	-0.179864	-0.186565	-0.904265	13.968865	-26.865997	-142.213887	-0.705003	-0.546583	0.451905	0.680808	-0.700092	0.215340	0.198674	0.459476	0.865685	0	0	0
57634	0	0	0	0	0	4.484607	2.094455	8.509953	-0.003125	0.004599	0.005606	-0.746826	-0.003174	-0.490234	0.339332	-0.179867	-0.186554	-0.904267	13.967541	-26.865845	-142.213786	-0.705003	-0.546585	0.451903	0.680804	-0.700102	0.215320	0.198688	0.459459	0.865691	0	0	0
57635	0	0	0	0	0	4.452359	2.075053	8.490187	-0.001780	0.001350	0.005025	-0.749268	-0.014160	-0.479492	0.339326	-0.179879	-0.186556	-0.904266	13.967527	-26.867229	-142.214624	-0.705002	-0.546568	0.451925	0.680798	-0.700109	0.215317	0.198711	0.459469	0.865680	0	0	0
57636	0	0	0	0	0	4.471714	2.071576	8.462003	0.000565	0.004281	0.005299	-0.753906	-0.004639	-0.488037	0.339327	-0.179877	-0.186563	-0.904265	13.968378	-26.867293	-142.214691	-0.705002	-0.546566	0.451926	0.680800	-0.700103	0.215330	0.198702	0.459479	0.865677	0	0	0
57637	0	0	0	0	0	4.451989	2.074472	8.490523	-0.001048	0.004399	0.007236	-0.748779	-0.006836	-0.491455	0.339334	-0.179877	-0.186561	-0.904263	13.967948	-26.867288	-142.213678	-0.704993	-0.546579	0.451925	0.680811	-0.700094	0.215324	0.198699	0.459477	0.865678	0	0	0
57638	0	0	0	0	0	4.466810	2.104399	8.497555	-0.001863	0.001967	0.006568	-0.752686	-0.009521	-0.490723	0.339338	-0.179890	-0.186559	-0.904259	13.967138	-26.868778	-142.213088	-0.704978	-0.546579	0.451949	0.680820	-0.700090	0.215308	0.198722	0.459483	0.865670	0	0	0
57639	0	0	0	0	0	4.503218	2.064392	8.506350	-0.001594	0.005099	0.005211	-0.741699	-0.007324	-0.487305	0.339337	-0.179886	-0.186556	-0.904261	13.966916	-26.868104	-142.213229	-0.704983	-0.546581	0.451938	0.680816	-0.700095	0.215306	0.198717	0.459474	0.865676	0	0	0
57640	0	0	0	0	0	4.429538	2.093224	8.537094	-0.002225	0.006415	0.004730	-0.753174	-0.010742	-0.487549	0.339335	-0.179878	-0.186547	-0.904265	13.966163	-26.866815	-142.213219	-0.704991	-0.546587	0.451918	0.680809	-0.700104	0.215297	0.198711	0.459453	0.865689	0	0	0
57641	0	0	0	0	0	4.483142	2.091840	8.511368	-0.000334	0.002466	0.006174	-0.742432	-0.013916	-0.494629	0.339336	-0.179884	-0.186552	-0.904263	13.966576	-26.867738	-142.213168	-0.704985	-0.546583	0.451932	0.680814	-0.700098	0.215302	0.198717	0.459467	0.865680	0	0	0
57642	0	0	0	0	0	4.465766	2.077904	8.522264	-0.001047	0.004399	0.007236	-0.743164	-0.015869	-0.484863	0.339344	-0.179885	-0.186550	-0.904260	13.966016	-26.867866	-142.212090	-0.704974	-0.546596	0.451934	0.680826	-0.700090	0.215293	0.198716	0.459465	0.865681	0	0	0
57643	0	0	0	0	0	4.470243	2.069058	8.463396	-0.000167	0.001233	0.003087	-0.748535	-0.013672	-0.492188	0.339331	-0.179893	-0.186561	-0.904261	13.967481	-26.869047	-142.214154	-0.704986	-0.546565	0.451953	0.680809	-0.700100	0.215313	0.198729	0.459486	0.865667	0	0	0
57644	0	0	0	0	0	4.448138	2.063844	8.533319	-0.000694	0.006914	0.004335	-0.750732	-0.010498	-0.489746	0.339327	-0.179880	-0.186559	-0.904266	13.967822	-26.867388	-142.214659	-0.705002	-0.546566	0.451927	0.680799	-0.700107	0.215321	0.198710	0.459473	0.865678	0	0	0
57645	0	0	0	0	0	4.465174	2.102057	8.498994	-0.001863	0.001967	0.006567	-0.749756	-0.010498	-0.494873	0.339328	-0.179891	-0.186558	-0.904263	13.967283	-26.868643	-142.214440	-0.704992	-0.546563	0.451947	0.680804	-0.700105	0.215311	0.198729	0.459479	0.865671	0	0	0
57646	0	0	0	0	0	4.499348	2.078792	8.525365	-0.001047	0.004398	0.007235	-0.748779	-0.009766	-0.493652	0.339336	-0.179892	-0.186555	-0.904260	13.966680	-26.868789	-142.213258	-0.704979	-0.546577	0.451949	0.680816	-0.700096	0.215302	0.198729	0.459477	0.865672	0	0	0
57647	0	0	0	0	0	4.464634	2.076355	8.523235	0.001383	0.006712	0.005966	-0.753174	-0.006104	-0.491699	0.339342	-0.179876	-0.186562	-0.904260	13.967838	-26.867322	-142.212678	-0.704983	-0.546591	0.451926	0.680823	-0.700083	0.215322	0.198693	0.459480	0.865679	0	0	0
57648	0	0	0	0	0	4.464306	2.101161	8.499672	-0.000063	0.005597	0.004816	-0.749756	-0.013916	-0.498535	0.339343	-0.179868	-0.186564	-0.904261	13.968339	-26.866482	-142.212679	-0.704988	-0.546595	0.451913	0.680822	-0.700081	0.215331	0.198677	0.459478	0.865683	0	0	0
57649	0	0	0	0	0	4.478783	2.081323	8.554404	0.000567	0.004281	0.005298	-0.750732	-0.013428	-0.484131	0.339343	-0.179863	-0.186571	-0.904260	13.969388	-26.866275	-142.212893	-0.704992	-0.546593	0.451910	0.680823	-0.700076	0.215347	0.198664	0.459488	0.865681	0	0	0
57650	0	0	0	0	0	4.485384	2.055703	8.478029	-0.001593	0.005098	0.005210	-0.753906	-0.011475	-0.486816	0.339341	-0.179860	-0.186567	-0.904263	13.969068	-26.865755	-142.213065	-0.704996	-0.546594	0.451902	0.680818	-0.700081	0.215343	0.198663	0.459479	0.865686	0	0	0
57651	0	0	0	0	0	4.468189	2.091795	8.441256	0.000297	0.001149	0.006654	-0.755371	-0.011963	-0.486084	0.339343	-0.179872	-0.186577	-0.904257	13.969800	-26.867477	-142.212918	-0.704984	-0.546587	0.451928	0.680827	-0.700070	0.215351	0.198673	0.459504	0.865670	0	0	0
57652	0	0	0	0	0	4.463318	2.075010	8.524251	-0.001676	0.005715	0.006753	-0.744141	-0.013916	-0.488281	0.339349	-0.179869	-0.186571	-0.904257	13.968931	-26.866985	-142.212068	-0.704979	-0.546600	0.451921	0.680833	-0.700068	0.215339	0.198671	0.459492	0.865677	0	0	0
57653	0	0	0	0	0	4.497404	2.101759	8.503112	-0.002139	0.005799	0.003185	-0.754395	-0.012207	-0.490967	0.339338	-0.179860	-0.186565	-0.904264	13.968918	-26.865642	-142.213363	-0.705000	-0.546591	0.451900	0.680813	-0.700086	0.215341	0.198665	0.459475	0.865687	0	0	0
57654	0	0	0	0	0	4.447758	2.068957	8.494086	0.001030	0.004196	0.008865	-0.757324	-0.010986	-0.477295	0.339354	-0.179861	-0.186571	-0.904257	13.969123	-26.866151	-142.211384	-0.704978	-0.546613	0.451908	0.680840	-0.700060	0.215343	0.198653	0.459489	0.865683	0	0	0
