// General information: 
//  MT Manager version: 2022.2.0 
//  XDA version: 2022.2.0 build 7381 rev 124627 built on 2023-07-19
// Device information: 
//  DeviceId: 10B426F2
//  ProductCode: MTW2-3A7G6
//  Firmware Version: 4.14.0
//  Hardware Version: 3.0.0
// Device settings: 
//  Filter Profile: human(46.1)
//  Option Flags: Orientation Smoother Disabled, Position/Velocity Smoother Disabled, Continuous Zero Rotation Update Disabled, AHS Disabled, ICC Disabled
// Coordinate system: ENU
PacketCounter	SampleTimeFine	Year	Month	Day	Second	Acc_X	Acc_Y	Acc_Z	Gyr_X	Gyr_Y	Gyr_Z	Mag_X	Mag_Y	Mag_Z	Quat_q0	Quat_q1	Quat_q2	Quat_q3	Roll	Pitch	Yaw	Mat[1][1]	Mat[2][1]	Mat[3][1]	Mat[1][2]	Mat[2][2]	Mat[3][2]	Mat[1][3]	Mat[2][3]	Mat[3][3]	Vel_E	Vel_N	Vel_U
57202	0	0	0	0	0	9.744432	-0.358627	-1.163688	0.006599	0.005190	-0.004741	-0.908203	0.531738	0.056641	0.566670	-0.413868	-0.621152	-0.348954	-162.715679	-83.128970	97.298311	-0.015198	0.118666	0.992818	0.909633	0.413889	-0.035545	-0.415134	0.902560	-0.114232	0	0	0
57203	0	0	0	0	0	9.753859	-0.351311	-1.141796	0.005430	0.003457	-0.004138	-0.915771	0.529053	0.057373	0.566673	-0.413850	-0.621159	-0.348957	-162.725759	-83.130065	97.309851	-0.015219	0.118644	0.992820	0.909623	0.413914	-0.035519	-0.415156	0.902551	-0.114221	0	0	0
57204	0	0	0	0	0	9.722679	-0.340542	-1.131141	0.001199	0.005638	-0.000374	-0.924072	0.534180	0.061035	0.566683	-0.413851	-0.621146	-0.348964	-162.716861	-83.131647	97.300293	-0.015196	0.118619	0.992824	0.909627	0.413903	-0.035529	-0.415147	0.902560	-0.114189	0	0	0
57205	0	0	0	0	0	9.704037	-0.354349	-1.173426	0.000451	0.006939	-0.001925	-0.905518	0.526123	0.062256	0.566691	-0.413848	-0.621130	-0.348984	-162.714825	-83.134271	97.296756	-0.015183	0.118575	0.992829	0.909638	0.413881	-0.035520	-0.415124	0.902576	-0.114144	0	0	0
57206	0	0	0	0	0	9.757120	-0.378827	-1.160321	0.003868	0.002595	-0.001150	-0.913086	0.529785	0.058350	0.566693	-0.413847	-0.621130	-0.348980	-162.712924	-83.134229	97.295259	-0.015180	0.118576	0.992829	0.909635	0.413887	-0.035524	-0.415131	0.902573	-0.114144	0	0	0
57207	0	0	0	0	0	9.735278	-0.361081	-1.128371	0.001203	0.003465	-0.003648	-0.913330	0.527588	0.054932	0.566688	-0.413843	-0.621129	-0.348995	-162.723199	-83.135245	97.304555	-0.015197	0.118556	0.992831	0.909642	0.413873	-0.035498	-0.415115	0.902582	-0.114133	0	0	0
57208	0	0	0	0	0	9.725976	-0.367753	-1.149455	0.003120	0.003897	-0.002700	-0.909180	0.523438	0.059326	0.566693	-0.413833	-0.621129	-0.348999	-162.726670	-83.136294	97.308608	-0.015203	0.118537	0.992833	0.909638	0.413883	-0.035486	-0.415124	0.902579	-0.114118	0	0	0
57209	0	0	0	0	0	9.747804	-0.381608	-1.126253	0.002338	0.003466	-0.001207	-0.914063	0.525146	0.067871	0.566695	-0.413833	-0.621124	-0.349003	-162.725200	-83.136895	97.306730	-0.015198	0.118527	0.992834	0.909641	0.413877	-0.035485	-0.415117	0.902584	-0.114107	0	0	0
57210	0	0	0	0	0	9.726064	-0.367458	-1.148805	0.001950	0.002164	-0.002097	-0.911377	0.525146	0.062012	0.566689	-0.413836	-0.621125	-0.349009	-162.730236	-83.136754	97.310898	-0.015207	0.118528	0.992834	0.909647	0.413864	-0.035476	-0.415103	0.902589	-0.114113	0	0	0
57211	0	0	0	0	0	9.754275	-0.349921	-1.138665	0.004648	0.003027	-0.002643	-0.908936	0.533691	0.064697	0.566692	-0.413826	-0.621128	-0.349010	-162.734592	-83.137360	97.316220	-0.015216	0.118517	0.992835	0.909640	0.413880	-0.035464	-0.415118	0.902584	-0.114105	0	0	0
57212	0	0	0	0	0	9.735504	-0.360090	-1.126739	0.003119	0.003897	-0.002700	-0.911377	0.532471	0.061768	0.566693	-0.413822	-0.621126	-0.349017	-162.738074	-83.138232	97.319490	-0.015221	0.118501	0.992837	0.909642	0.413878	-0.035453	-0.415114	0.902587	-0.114093	0	0	0
57213	0	0	0	0	0	9.726211	-0.366755	-1.147784	-0.000327	0.004336	-0.003705	-0.908936	0.533447	0.062256	0.566688	-0.413820	-0.621120	-0.349038	-162.748266	-83.139733	97.327820	-0.015235	0.118473	0.992840	0.909655	0.413850	-0.035425	-0.415084	0.902603	-0.114074	0	0	0
57214	0	0	0	0	0	9.726276	-0.366505	-1.147315	0.003507	0.005199	-0.001810	-0.912354	0.532471	0.065186	0.566696	-0.413815	-0.621113	-0.349043	-162.744858	-83.141173	97.324508	-0.015225	0.118449	0.992843	0.909655	0.413852	-0.035424	-0.415087	0.902605	-0.114049	0	0	0
57215	0	0	0	0	0	9.745029	-0.352468	-1.103979	0.002338	0.003466	-0.001206	-0.910889	0.529785	0.056152	0.566698	-0.413815	-0.621109	-0.349047	-162.743386	-83.141774	97.322627	-0.015220	0.118439	0.992845	0.909657	0.413846	-0.035424	-0.415080	0.902609	-0.114038	0	0	0
57216	0	0	0	0	0	9.710492	-0.401115	-1.100682	-0.001529	0.000870	-0.000058	-0.908447	0.533203	0.064453	0.566686	-0.413836	-0.621102	-0.349054	-162.741433	-83.140600	97.318046	-0.015213	0.118460	0.992842	0.909676	0.413803	-0.035434	-0.415039	0.902626	-0.114056	0	0	0
57217	0	0	0	0	0	9.729465	-0.394209	-1.166519	0.002338	0.003466	-0.001206	-0.909668	0.529785	0.047852	0.566689	-0.413836	-0.621098	-0.349058	-162.739960	-83.141201	97.316164	-0.015208	0.118451	0.992843	0.909679	0.413797	-0.035434	-0.415033	0.902630	-0.114045	0	0	0
57218	0	0	0	0	0	9.726424	-0.366256	-1.146134	0.001557	0.003035	0.000287	-0.917236	0.529053	0.059082	0.566693	-0.413842	-0.621091	-0.349056	-162.730941	-83.141239	97.306746	-0.015188	0.118452	0.992844	0.909682	0.413790	-0.035452	-0.415028	0.902633	-0.114039	0	0	0
57219	0	0	0	0	0	9.735799	-0.359179	-1.124480	0.005789	0.000855	-0.003474	-0.912842	0.526611	0.057861	0.566690	-0.413830	-0.621105	-0.349050	-162.741497	-83.140797	97.318972	-0.015215	0.118457	0.992843	0.909670	0.413817	-0.035433	-0.415053	0.902620	-0.114053	0	0	0
57220	0	0	0	0	0	9.717006	-0.369338	-1.112739	0.006177	0.002157	-0.002584	-0.911133	0.529297	0.058594	0.566694	-0.413816	-0.621115	-0.349042	-162.745656	-83.140847	97.325277	-0.015227	0.118454	0.992843	0.909655	0.413852	-0.035424	-0.415086	0.902605	-0.114054	0	0	0
57221	0	0	0	0	0	9.735997	-0.362475	-1.178457	0.001944	0.004338	0.001177	-0.907471	0.539795	0.066650	0.566703	-0.413823	-0.621102	-0.349043	-162.732334	-83.141519	97.311234	-0.015197	0.118446	0.992844	0.909660	0.413839	-0.035447	-0.415076	0.902612	-0.114035	0	0	0
57222	0	0	0	0	0	9.738982	-0.386567	-1.143853	0.006575	-0.000887	-0.008241	-0.909424	0.535889	0.060303	0.566687	-0.413801	-0.621131	-0.349044	-162.764714	-83.140690	97.345642	-0.015270	0.118452	0.992842	0.909646	0.413875	-0.035387	-0.415104	0.902595	-0.114069	0	0	0
57223	0	0	0	0	0	9.745391	-0.354840	-1.156799	0.006924	0.000857	-0.001032	-0.913574	0.529297	0.069092	0.566691	-0.413793	-0.621141	-0.349028	-162.763506	-83.139834	97.346674	-0.015274	0.118466	0.992841	0.909630	0.413910	-0.035394	-0.415139	0.902577	-0.114082	0	0	0
57224	0	0	0	0	0	9.745399	-0.354888	-1.156714	0.006143	0.000426	0.000461	-0.915283	0.528564	0.065918	0.566692	-0.413797	-0.621147	-0.349010	-162.755462	-83.138224	97.339911	-0.015264	0.118495	0.992837	0.909620	0.413928	-0.035418	-0.415160	0.902564	-0.114104	0	0	0
57225	0	0	0	0	0	9.742332	-0.326974	-1.136498	0.003866	0.002597	-0.001148	-0.908203	0.529785	0.057861	0.566695	-0.413795	-0.621148	-0.349007	-162.754077	-83.138339	97.339001	-0.015261	0.118494	0.992838	0.909617	0.413935	-0.035420	-0.415168	0.902561	-0.114101	0	0	0
57226	0	0	0	0	0	9.717147	-0.368597	-1.111748	0.003478	0.001294	-0.002038	-0.913330	0.524170	0.063721	0.566691	-0.413795	-0.621153	-0.349005	-162.758191	-83.137721	97.343296	-0.015272	0.118503	0.992836	0.909616	0.413938	-0.035415	-0.415170	0.902559	-0.114114	0	0	0
57227	0	0	0	0	0	9.739073	-0.386003	-1.143271	0.005007	0.000424	-0.001980	-0.910400	0.526367	0.062744	0.566687	-0.413790	-0.621163	-0.348997	-162.762999	-83.136789	97.349281	-0.015286	0.118518	0.992834	0.909607	0.413957	-0.035411	-0.415188	0.902548	-0.114132	0	0	0
57228	0	0	0	0	0	9.745504	-0.354688	-1.155892	0.005029	0.006504	0.001522	-0.907715	0.538818	0.055420	0.566708	-0.413788	-0.621149	-0.348992	-162.743533	-83.138415	97.330600	-0.015244	0.118495	0.992838	0.909601	0.413968	-0.035441	-0.415203	0.902546	-0.114093	0	0	0
57229	0	0	0	0	0	9.745411	-0.350973	-1.101074	0.010407	-0.000023	-0.006343	-0.919678	0.536865	0.057129	0.566707	-0.413755	-0.621179	-0.348979	-162.765719	-83.137979	97.357205	-0.015300	0.118495	0.992837	0.909570	0.414041	-0.035399	-0.415270	0.902513	-0.114114	0	0	0
57230	0	0	0	0	0	9.726757	-0.364644	-1.143823	0.003866	0.002597	-0.001148	-0.921631	0.536865	0.055176	0.566712	-0.413752	-0.621180	-0.348972	-162.761844	-83.138000	97.354263	-0.015294	0.118496	0.992837	0.909563	0.414055	-0.035407	-0.415285	0.902506	-0.114112	0	0	0
57231	0	0	0	0	0	9.736120	-0.357620	-1.122193	0.002697	0.000864	-0.000545	-0.915283	0.534912	0.057373	0.566708	-0.413758	-0.621183	-0.348968	-162.760830	-83.137064	97.353050	-0.015293	0.118512	0.992835	0.909564	0.414051	-0.035414	-0.415282	0.902506	-0.114126	0	0	0
57232	0	0	0	0	0	9.723850	-0.340072	-1.177945	0.000033	0.001731	-0.003045	-0.916504	0.521484	0.058838	0.566699	-0.413760	-0.621184	-0.348978	-162.769904	-83.136972	97.360969	-0.015310	0.118511	0.992835	0.909573	0.414034	-0.035396	-0.415262	0.902514	-0.114134	0	0	0
57233	0	0	0	0	0	9.758081	-0.374735	-1.153548	0.001562	0.000862	-0.002986	-0.908203	0.519531	0.054688	0.566688	-0.413762	-0.621189	-0.348984	-162.780641	-83.136449	97.370938	-0.015332	0.118518	0.992834	0.909579	0.414023	-0.035377	-0.415249	0.902518	-0.114149	0	0	0
57234	0	0	0	0	0	9.748775	-0.381591	-1.174763	0.000027	0.003906	0.000228	-0.909424	0.526123	0.063721	0.566691	-0.413769	-0.621179	-0.348990	-162.774101	-83.137051	97.363127	-0.015314	0.118509	0.992835	0.909588	0.414002	-0.035387	-0.415230	0.902528	-0.114135	0	0	0
57235	0	0	0	0	0	9.726893	-0.364020	-1.142864	0.005394	0.001727	-0.001089	-0.911377	0.525635	0.062988	0.566694	-0.413764	-0.621184	-0.348981	-162.772798	-83.136681	97.363181	-0.015315	0.118516	0.992834	0.909578	0.414023	-0.035392	-0.415251	0.902518	-0.114140	0	0	0
57236	0	0	0	0	0	9.764543	-0.343298	-1.165941	-0.000781	-0.000431	0.001493	-0.913086	0.534912	0.058105	0.566681	-0.413790	-0.621179	-0.348980	-162.766311	-83.134496	97.354164	-0.015301	0.118556	0.992829	0.909596	0.413981	-0.035416	-0.415211	0.902532	-0.114172	0	0	0
57237	0	0	0	0	0	9.736395	-0.360811	-1.175671	-0.000754	0.003475	0.001721	-0.909668	0.530518	0.058105	0.566681	-0.413808	-0.621163	-0.348985	-162.753293	-83.134604	97.338869	-0.015269	0.118558	0.992830	0.909612	0.413943	-0.035441	-0.415177	0.902549	-0.114162	0	0	0
57238	0	0	0	0	0	9.723848	-0.336200	-1.122356	0.000033	0.001731	-0.003045	-0.909668	0.533691	0.061768	0.566671	-0.413812	-0.621164	-0.348996	-162.762352	-83.134450	97.346544	-0.015286	0.118559	0.992829	0.909623	0.413922	-0.035424	-0.415154	0.902559	-0.114171	0	0	0
57239	0	0	0	0	0	9.758225	-0.374440	-1.152428	0.001562	0.000862	-0.002986	-0.913818	0.529541	0.063232	0.566661	-0.413814	-0.621169	-0.349002	-162.773086	-83.133928	97.356510	-0.015307	0.118565	0.992828	0.909628	0.413911	-0.035405	-0.415141	0.902563	-0.114186	0	0	0
57240	0	0	0	0	0	9.748766	-0.377671	-1.119234	-0.000361	0.002603	-0.000662	-0.913574	0.527588	0.058838	0.566655	-0.413827	-0.621161	-0.349011	-162.770893	-83.133759	97.352144	-0.015299	0.118569	0.992828	0.909644	0.413876	-0.035410	-0.415107	0.902578	-0.114187	0	0	0
57241	0	0	0	0	0	9.714599	-0.342705	-1.143192	0.000027	0.003906	0.000228	-0.910400	0.530029	0.061768	0.566656	-0.413838	-0.621148	-0.349019	-162.763606	-83.134357	97.343072	-0.015279	0.118561	0.992829	0.909657	0.413848	-0.035422	-0.415080	0.902593	-0.114173	0	0	0
57242	0	0	0	0	0	9.727066	-0.363656	-1.141503	0.001168	0.001733	-0.000603	-0.912109	0.521973	0.065674	0.566651	-0.413847	-0.621145	-0.349021	-162.761894	-83.133773	97.340341	-0.015274	0.118572	0.992828	0.909664	0.413831	-0.035428	-0.415064	0.902599	-0.114182	0	0	0
57243	0	0	0	0	0	9.736561	-0.360357	-1.174437	0.001135	0.000002	0.002442	-0.915283	0.519287	0.065430	0.566647	-0.413868	-0.621141	-0.349011	-162.749422	-83.131858	97.326686	-0.015250	0.118608	0.992824	0.909673	0.413809	-0.035463	-0.415046	0.902604	-0.114206	0	0	0
57244	0	0	0	0	0	9.727081	-0.364032	-1.141260	0.002691	0.003038	0.002729	-0.911865	0.535645	0.056641	0.566652	-0.413882	-0.621130	-0.349004	-162.731926	-83.131371	97.308420	-0.015214	0.118622	0.992823	0.909678	0.413795	-0.035500	-0.415036	0.902609	-0.114203	0	0	0
57245	0	0	0	0	0	9.758367	-0.374840	-1.151097	-0.000754	0.003475	0.001721	-0.915283	0.530273	0.061768	0.566653	-0.413900	-0.621114	-0.349010	-162.718915	-83.131478	97.293132	-0.015182	0.118624	0.992823	0.909694	0.413757	-0.035526	-0.415002	0.902626	-0.114193	0	0	0
57246	0	0	0	0	0	9.758395	-0.374783	-1.150876	0.005788	0.000856	-0.003472	-0.919189	0.523682	0.065186	0.566651	-0.413889	-0.621128	-0.349002	-162.728117	-83.130908	97.304179	-0.015206	0.118631	0.992822	0.909681	0.413787	-0.035510	-0.415029	0.902611	-0.114208	0	0	0
57247	0	0	0	0	0	9.720775	-0.395550	-1.127489	0.001162	0.003908	0.002670	-0.904785	0.527344	0.062012	0.566659	-0.413903	-0.621112	-0.349000	-162.709088	-83.131091	97.283935	-0.015163	0.118633	0.992822	0.909689	0.413765	-0.035547	-0.415013	0.902621	-0.114193	0	0	0
57248	0	0	0	0	0	9.705435	-0.350328	-1.163018	0.003865	0.002597	-0.001147	-0.912842	0.529785	0.059814	0.566660	-0.413903	-0.621113	-0.348998	-162.707908	-83.131023	97.282969	-0.015162	0.118634	0.992822	0.909688	0.413769	-0.035550	-0.415016	0.902619	-0.114194	0	0	0
57249	0	0	0	0	0	9.758487	-0.374831	-1.150083	0.001168	0.001733	-0.000603	-0.913818	0.529053	0.056396	0.566655	-0.413912	-0.621110	-0.349001	-162.706813	-83.130573	97.280793	-0.015158	0.118643	0.992821	0.909696	0.413751	-0.035555	-0.414999	0.902626	-0.114200	0	0	0
57250	0	0	0	0	0	9.739684	-0.385282	-1.138297	0.000774	0.002605	0.001780	-0.914307	0.531494	0.052979	0.566658	-0.413926	-0.621100	-0.348997	-162.693118	-83.130113	97.266026	-0.015128	0.118655	0.992820	0.909703	0.413732	-0.035584	-0.414984	0.902633	-0.114200	0	0	0
57251	0	0	0	0	0	9.727286	-0.364364	-1.139407	0.006562	0.003461	-0.001691	-0.908936	0.530273	0.057129	0.566668	-0.413913	-0.621104	-0.348990	-162.691430	-83.130793	97.266365	-0.015128	0.118643	0.992822	0.909688	0.413764	-0.035584	-0.415016	0.902620	-0.114187	0	0	0
57252	0	0	0	0	0	9.739736	-0.385351	-1.137829	-0.000781	-0.000431	0.001493	-0.908691	0.523438	0.067871	0.566659	-0.413934	-0.621101	-0.348984	-162.683583	-83.128766	97.256895	-0.015113	0.118680	0.992818	0.909700	0.413737	-0.035610	-0.414991	0.902628	-0.114216	0	0	0
57253	0	0	0	0	0	9.714875	-0.343243	-1.140689	0.001956	-0.000011	-0.005369	-0.907471	0.526367	0.056641	0.566642	-0.413929	-0.621114	-0.348994	-162.706137	-83.128174	97.278994	-0.015160	0.118684	0.992816	0.909704	0.413732	-0.035568	-0.414981	0.902630	-0.114240	0	0	0
57254	0	0	0	0	0	9.727334	-0.364148	-1.139064	-0.005374	0.004353	0.004589	-0.913818	0.538086	0.051514	0.566640	-0.413969	-0.621082	-0.349008	-162.681362	-83.128101	97.249047	-0.015098	0.118694	0.992816	0.909741	0.413646	-0.035618	-0.414903	0.902667	-0.114225	0	0	0
57255	0	0	0	0	0	9.746182	-0.353948	-1.150391	-0.001529	0.000870	-0.000059	-0.912109	0.525879	0.055176	0.566628	-0.413988	-0.621075	-0.349015	-162.680567	-83.127086	97.245617	-0.015093	0.118712	0.992814	0.909760	0.413604	-0.035625	-0.414861	0.902684	-0.114242	0	0	0
57256	0	0	0	0	0	9.736684	-0.357344	-1.117377	-0.002697	-0.000864	0.000544	-0.912598	0.534424	0.063965	0.566613	-0.414012	-0.621073	-0.349017	-162.678575	-83.125020	97.241123	-0.015088	0.118749	0.992810	0.909778	0.413563	-0.035639	-0.414821	0.902699	-0.114275	0	0	0
57257	0	0	0	0	0	9.714915	-0.343320	-1.140320	-0.001916	-0.000433	-0.000949	-0.919922	0.533447	0.053467	0.566594	-0.414032	-0.621071	-0.349025	-162.683883	-83.123444	97.243617	-0.015097	0.118775	0.992806	0.909798	0.413518	-0.035637	-0.414776	0.902716	-0.114304	0	0	0
57258	0	0	0	0	0	9.746006	-0.350257	-1.096028	-0.004226	0.000006	0.000485	-0.913574	0.529541	0.067139	0.566576	-0.414062	-0.621062	-0.349036	-162.682181	-83.121752	97.237957	-0.015089	0.118806	0.992803	0.909827	0.413454	-0.035649	-0.414713	0.902741	-0.114331	0	0	0
57259	0	0	0	0	0	9.739778	-0.385188	-1.137523	0.000000	-0.000000	-0.000000	-0.918701	0.531738	0.059570	0.566565	-0.414078	-0.621061	-0.349037	-162.681475	-83.120251	97.235499	-0.015087	0.118832	0.992800	0.909840	0.413425	-0.035658	-0.414685	0.902751	-0.114355	0	0	0
57260	0	0	0	0	0	9.739766	-0.385154	-1.137642	-0.007310	-0.002160	0.000139	-0.914063	0.522461	0.055908	0.566530	-0.414122	-0.621052	-0.349056	-162.687087	-83.117356	97.234950	-0.015092	0.118882	0.992794	0.909885	0.413326	-0.035662	-0.414587	0.902789	-0.114407	0	0	0
57261	0	0	0	0	0	9.739743	-0.385256	-1.137798	0.002664	-0.000868	0.002501	-0.913086	0.532227	0.057373	0.566526	-0.414141	-0.621053	-0.349039	-162.674754	-83.114954	97.222318	-0.015071	0.118927	0.992789	0.909887	0.413318	-0.035699	-0.414583	0.902787	-0.114439	0	0	0
57262	0	0	0	0	0	9.739733	-0.385279	-1.137877	0.000394	-0.000872	-0.002383	-0.916016	0.523438	0.054199	0.566511	-0.414148	-0.621062	-0.349041	-162.685416	-83.113351	97.232040	-0.015095	0.118952	0.992785	0.909894	0.413303	-0.035686	-0.414566	0.902791	-0.114472	0	0	0
57263	0	0	0	0	0	9.733689	-0.332924	-1.152335	0.003445	-0.000437	0.001008	-0.915527	0.531494	0.059814	0.566507	-0.414159	-0.621066	-0.349028	-162.678794	-83.111439	97.225611	-0.015085	0.118986	0.992781	0.909892	0.413305	-0.035709	-0.414570	0.902786	-0.114499	0	0	0
57264	0	0	0	0	0	9.739725	-0.385417	-1.137899	0.003832	0.000866	0.001898	-0.908936	0.528564	0.061279	0.566511	-0.414166	-0.621066	-0.349011	-162.665864	-83.110057	97.213521	-0.015063	0.119013	0.992778	0.909886	0.413315	-0.035742	-0.414584	0.902777	-0.114514	0	0	0
57265	0	0	0	0	0	9.717965	-0.371496	-1.160729	0.006536	-0.000445	-0.001919	-0.913574	0.527344	0.057373	0.566508	-0.414159	-0.621082	-0.348996	-162.670737	-83.108640	97.220453	-0.015081	0.119036	0.992775	0.909872	0.413348	-0.035740	-0.414616	0.902759	-0.114541	0	0	0
57266	0	0	0	0	0	9.727299	-0.364683	-1.139196	0.003438	0.001738	0.004281	-0.919678	0.530029	0.057617	0.566517	-0.414176	-0.621073	-0.348976	-162.645652	-83.107250	97.195610	-0.015032	0.119066	0.992773	0.909869	0.413348	-0.035797	-0.414622	0.902755	-0.114548	0	0	0
57267	0	0	0	0	0	9.727484	-0.368414	-1.193462	0.006175	0.002158	-0.002581	-0.912842	0.531006	0.058594	0.566521	-0.414164	-0.621082	-0.348969	-162.650046	-83.107370	97.201853	-0.015045	0.119062	0.992773	0.909856	0.413378	-0.035788	-0.414651	0.902742	-0.114549	0	0	0
57268	0	0	0	0	0	9.739763	-0.385876	-1.137424	0.003050	0.000436	0.003391	-0.909180	0.523438	0.058594	0.566524	-0.414180	-0.621079	-0.348950	-162.631020	-83.105452	97.183031	-0.015010	0.119100	0.992769	0.909854	0.413377	-0.035836	-0.414656	0.902737	-0.114569	0	0	0
57269	0	0	0	0	0	9.742877	-0.413977	-1.157291	0.003865	0.002597	-0.001147	-0.914307	0.534180	0.064209	0.566527	-0.414178	-0.621079	-0.348947	-162.629630	-83.105567	97.182114	-0.015008	0.119099	0.992769	0.909851	0.413385	-0.035838	-0.414664	0.902734	-0.114566	0	0	0
57270	0	0	0	0	0	9.739805	-0.385969	-1.137026	0.009619	0.001722	-0.001572	-0.913330	0.535645	0.068848	0.566538	-0.414161	-0.621093	-0.348926	-162.627565	-83.105118	97.183794	-0.015012	0.119106	0.992768	0.909824	0.413444	-0.035844	-0.414723	0.902706	-0.114572	0	0	0
57271	0	0	0	0	0	9.727393	-0.365029	-1.138278	0.004612	0.001297	0.000405	-0.912354	0.533691	0.062988	0.566541	-0.414163	-0.621096	-0.348914	-162.620567	-83.104257	97.177660	-0.015001	0.119122	0.992766	0.909818	0.413456	-0.035863	-0.414737	0.902698	-0.114582	0	0	0
57272	0	0	0	0	0	9.736915	-0.361657	-1.171095	0.003865	0.002597	-0.001147	-0.910400	0.527832	0.061279	0.566541	-0.414166	-0.621095	-0.348912	-162.618017	-83.104086	97.175036	-0.014996	0.119126	0.992766	0.909818	0.413454	-0.035869	-0.414736	0.902698	-0.114583	0	0	0
57273	0	0	0	0	0	9.746283	-0.354585	-1.149337	0.002336	0.003467	-0.001206	-0.910889	0.533691	0.057373	0.566543	-0.414166	-0.621090	-0.348916	-162.616537	-83.104687	97.173148	-0.014991	0.119116	0.992767	0.909821	0.413448	-0.035868	-0.414730	0.902703	-0.114572	0	0	0
57274	0	0	0	0	0	9.715056	-0.343988	-1.138919	-0.001142	0.002173	0.000831	-0.914307	0.525635	0.061035	0.566538	-0.414185	-0.621079	-0.348921	-162.608559	-83.104101	97.162877	-0.014971	0.119129	0.992766	0.909837	0.413410	-0.035887	-0.414695	0.902718	-0.114577	0	0	0
57275	0	0	0	0	0	9.727521	-0.364883	-1.137231	0.004646	0.003028	-0.002639	-0.917969	0.523682	0.066162	0.566541	-0.414175	-0.621083	-0.348921	-162.612859	-83.104707	97.168141	-0.014981	0.119117	0.992767	0.909830	0.413427	-0.035876	-0.414710	0.902712	-0.114570	0	0	0
57276	0	0	0	0	0	9.752414	-0.406866	-1.134109	-0.000007	0.002176	0.003273	-0.912842	0.537109	0.056885	0.566541	-0.414199	-0.621069	-0.348918	-162.595106	-83.103682	97.148280	-0.014942	0.119140	0.992765	0.909845	0.413390	-0.035917	-0.414678	0.902726	-0.114575	0	0	0
57277	0	0	0	0	0	9.749331	-0.379147	-1.113799	0.007696	0.003464	0.000752	-0.910400	0.528809	0.063721	0.566557	-0.414190	-0.621070	-0.348900	-162.581707	-83.103945	97.137477	-0.014919	0.119138	0.992766	0.909826	0.413430	-0.035942	-0.414721	0.902708	-0.114563	0	0	0
57278	0	0	0	0	0	9.752830	-0.323410	-1.161019	0.005787	0.000855	-0.003470	-0.913330	0.525391	0.059082	0.566555	-0.414179	-0.621084	-0.348893	-162.590831	-83.103347	97.148328	-0.014942	0.119146	0.992764	0.909814	0.413458	-0.035927	-0.414747	0.902694	-0.114578	0	0	0
57279	0	0	0	0	0	9.755796	-0.347615	-1.126276	0.002723	0.004770	-0.000316	-0.911377	0.534912	0.063232	0.566563	-0.414179	-0.621074	-0.348896	-162.583257	-83.104508	97.140523	-0.014924	0.119128	0.992767	0.909815	0.413454	-0.035936	-0.414745	0.902698	-0.114554	0	0	0
57280	0	0	0	0	0	9.746512	-0.354648	-1.147379	0.003083	0.002167	0.000347	-0.905762	0.525635	0.063477	0.566565	-0.414185	-0.621072	-0.348890	-162.575468	-83.103976	97.132699	-0.014909	0.119139	0.992766	0.909816	0.413452	-0.035954	-0.414745	0.902698	-0.114558	0	0	0
57281	0	0	0	0	0	9.730820	-0.393098	-1.155538	0.003470	0.003470	0.001237	-0.918213	0.528809	0.064941	0.566574	-0.414190	-0.621064	-0.348884	-162.562291	-83.104159	97.119681	-0.014881	0.119139	0.992766	0.909814	0.413453	-0.035980	-0.414749	0.902697	-0.114547	0	0	0
57282	0	0	0	0	0	9.737259	-0.361854	-1.168170	0.004251	0.003901	-0.000256	-0.913818	0.532471	0.056152	0.566581	-0.414189	-0.621059	-0.348881	-162.554798	-83.104632	97.112516	-0.014865	0.119133	0.992767	0.909812	0.413458	-0.035992	-0.414755	0.902696	-0.114534	0	0	0
57283	0	0	0	0	0	9.759054	-0.375909	-1.144907	0.003470	0.003470	0.001237	-0.914063	0.532471	0.057373	0.566590	-0.414194	-0.621052	-0.348875	-162.541619	-83.104814	97.099496	-0.014838	0.119133	0.992767	0.909810	0.413459	-0.036018	-0.414760	0.902695	-0.114523	0	0	0
57284	0	0	0	0	0	9.709202	-0.379505	-1.177180	0.005024	0.006507	0.001524	-0.904297	0.533203	0.064697	0.566614	-0.414188	-0.621039	-0.348867	-162.520674	-83.106537	97.080004	-0.014794	0.119108	0.992771	0.909799	0.413481	-0.036050	-0.414785	0.902689	-0.114482	0	0	0
57285	0	0	0	0	0	9.725002	-0.341068	-1.168109	0.005066	0.006061	-0.004794	-0.912842	0.529785	0.061523	0.566624	-0.414165	-0.621039	-0.348878	-162.530150	-83.109173	97.090726	-0.014810	0.119060	0.992777	0.909790	0.413503	-0.036018	-0.414805	0.902685	-0.114444	0	0	0
57286	0	0	0	0	0	9.731110	-0.393207	-1.153058	-0.001116	0.006079	0.001057	-0.907959	0.533203	0.063965	0.566629	-0.414180	-0.621015	-0.348892	-162.515544	-83.110584	97.073364	-0.014771	0.119041	0.992780	0.909809	0.413458	-0.036040	-0.414763	0.902708	-0.114411	0	0	0
57287	0	0	0	0	0	9.731154	-0.393115	-1.152719	0.001563	0.000861	-0.002985	-0.918945	0.530273	0.061035	0.566619	-0.414182	-0.621021	-0.348898	-162.526257	-83.110066	97.083309	-0.014793	0.119047	0.992778	0.909815	0.413447	-0.036021	-0.414750	0.902712	-0.114427	0	0	0
57288	0	0	0	0	0	9.759336	-0.375443	-1.142656	0.002730	0.002594	-0.003588	-0.911377	0.533936	0.061768	0.566614	-0.414177	-0.621024	-0.348905	-162.535816	-83.110408	97.092600	-0.014811	0.119039	0.992779	0.909817	0.413444	-0.036000	-0.414744	0.902715	-0.114427	0	0	0
57289	0	0	0	0	0	9.731236	-0.392662	-1.152174	0.002722	0.004771	-0.000315	-0.920898	0.520508	0.061035	0.566623	-0.414177	-0.621015	-0.348909	-162.528221	-83.111567	97.084774	-0.014793	0.119021	0.992782	0.909819	0.413441	-0.036009	-0.414742	0.902719	-0.114403	0	0	0
57290	0	0	0	0	0	9.731092	-0.388899	-1.097232	0.001588	0.004767	-0.002758	-0.917969	0.536865	0.063477	0.566624	-0.414173	-0.621009	-0.348922	-162.532569	-83.113022	97.088311	-0.014797	0.118995	0.992785	0.909825	0.413429	-0.035993	-0.414729	0.902727	-0.114382	0	0	0
57291	0	0	0	0	0	9.759504	-0.374918	-1.141389	-0.001108	0.003903	-0.002215	-0.912354	0.527588	0.061768	0.566618	-0.414179	-0.620999	-0.348941	-162.536999	-83.114034	97.090387	-0.014799	0.118977	0.992787	0.909842	0.413393	-0.035979	-0.414692	0.902746	-0.114368	0	0	0
57292	0	0	0	0	0	9.737806	-0.360634	-1.163987	0.005040	0.002155	-0.005020	-0.918945	0.523193	0.057861	0.566615	-0.414164	-0.621011	-0.348944	-162.552406	-83.114385	97.106897	-0.014833	0.118967	0.992787	0.909834	0.413413	-0.035946	-0.414707	0.902739	-0.114372	0	0	0
57293	0	0	0	0	0	9.737859	-0.360124	-1.163697	0.004293	0.003455	-0.006572	-0.915527	0.530518	0.072266	0.566611	-0.414142	-0.621021	-0.348958	-162.574108	-83.115900	97.129487	-0.014876	0.118935	0.992791	0.909828	0.413430	-0.035895	-0.414719	0.902735	-0.114360	0	0	0
57294	0	0	0	0	0	9.740837	-0.384086	-1.128795	0.003502	0.005202	-0.001807	-0.903076	0.528564	0.067627	0.566618	-0.414137	-0.621014	-0.348965	-162.572845	-83.117357	97.128097	-0.014870	0.118910	0.992794	0.909829	0.413429	-0.035890	-0.414717	0.902739	-0.114335	0	0	0
57295	0	0	0	0	0	9.725555	-0.338724	-1.164178	0.001192	0.005641	-0.000375	-0.914307	0.533203	0.062256	0.566626	-0.414139	-0.621000	-0.348975	-162.565159	-83.119003	97.119297	-0.014848	0.118884	0.992797	0.909836	0.413411	-0.035897	-0.414701	0.902750	-0.114303	0	0	0
57296	0	0	0	0	0	9.750495	-0.380506	-1.160753	0.005812	0.004763	-0.003239	-0.911621	0.528320	0.059326	0.566634	-0.414125	-0.621001	-0.348977	-162.568093	-83.120399	97.123416	-0.014854	0.118859	0.992800	0.909828	0.413431	-0.035884	-0.414720	0.902744	-0.114282	0	0	0
57297	0	0	0	0	0	9.719290	-0.369673	-1.150168	0.001587	0.004768	-0.002757	-0.915283	0.519775	0.058594	0.566636	-0.414120	-0.620994	-0.348991	-162.572213	-83.121976	97.126736	-0.014857	0.118831	0.992803	0.909834	0.413420	-0.035867	-0.414707	0.902753	-0.114259	0	0	0
57298	0	0	0	0	0	9.728655	-0.362366	-1.128301	0.005426	0.003459	-0.004129	-0.916504	0.533691	0.059814	0.566639	-0.414101	-0.621003	-0.348992	-162.582530	-83.123009	97.138773	-0.014880	0.118810	0.992806	0.909821	0.413449	-0.035841	-0.414733	0.902742	-0.114248	0	0	0
57299	0	0	0	0	0	9.728725	-0.362105	-1.127777	0.004669	0.006936	-0.002409	-0.911133	0.526123	0.056152	0.566655	-0.414085	-0.620995	-0.349000	-162.580227	-83.125712	97.137400	-0.014872	0.118764	0.992811	0.909814	0.413466	-0.035832	-0.414749	0.902741	-0.114202	0	0	0
57300	0	0	0	0	0	9.719488	-0.368814	-1.148772	0.005040	0.002156	-0.005018	-0.906250	0.531738	0.060547	0.566653	-0.414067	-0.621008	-0.349002	-162.595561	-83.126164	97.154329	-0.014906	0.118752	0.992812	0.909803	0.413493	-0.035799	-0.414772	0.902730	-0.114204	0	0	0
57301	0	0	0	0	0	9.731983	-0.389487	-1.146938	0.003501	0.005202	-0.001807	-0.919434	0.529785	0.057861	0.566662	-0.414059	-0.621002	-0.349008	-162.593664	-83.127817	97.152691	-0.014899	0.118724	0.992816	0.909801	0.413498	-0.035794	-0.414777	0.902731	-0.114176	0	0	0
57302	0	0	0	0	0	9.719625	-0.368249	-1.147788	0.007759	0.006928	-0.005332	-0.910889	0.527588	0.061279	0.566680	-0.414025	-0.621006	-0.349012	-162.601920	-83.130892	97.163908	-0.014915	0.118668	0.992822	0.909780	0.413548	-0.035762	-0.414823	0.902716	-0.114130	0	0	0
57303	0	0	0	0	0	9.716559	-0.340003	-1.127234	0.000805	0.004337	-0.001265	-0.904541	0.524170	0.060303	0.566681	-0.414028	-0.620996	-0.349023	-162.600340	-83.131979	97.161034	-0.014907	0.118650	0.992824	0.909789	0.413528	-0.035759	-0.414803	0.902727	-0.114111	0	0	0
57304	0	0	0	0	0	9.735438	-0.329479	-1.138472	0.001948	0.002165	-0.002094	-0.910645	0.539307	0.066895	0.566676	-0.414030	-0.620997	-0.349027	-162.604490	-83.131865	97.164579	-0.014915	0.118651	0.992824	0.909793	0.413519	-0.035752	-0.414793	0.902732	-0.114115	0	0	0
57305	0	0	0	0	0	9.738625	-0.357250	-1.158158	0.003115	0.003899	-0.002696	-0.912842	0.532715	0.048096	0.566679	-0.414022	-0.620996	-0.349034	-162.608708	-83.132957	97.168877	-0.014921	0.118631	0.992826	0.909793	0.413521	-0.035738	-0.414794	0.902733	-0.114100	0	0	0
57306	0	0	0	0	0	9.741582	-0.381389	-1.123270	0.000805	0.004338	-0.001265	-0.909668	0.535645	0.067871	0.566682	-0.414025	-0.620986	-0.349042	-162.605026	-83.133913	97.164191	-0.014909	0.118616	0.992828	0.909800	0.413505	-0.035740	-0.414779	0.902742	-0.114082	0	0	0
57307	0	0	0	0	0	9.738724	-0.356932	-1.157428	0.001948	0.002165	-0.002094	-0.920898	0.527588	0.063232	0.566678	-0.414026	-0.620987	-0.349048	-162.609644	-83.133953	97.168220	-0.014918	0.118614	0.992828	0.909804	0.413497	-0.035731	-0.414769	0.902746	-0.114084	0	0	0
57308	0	0	0	0	0	9.738523	-0.353048	-1.102624	-0.002638	0.004772	-0.002277	-0.913818	0.527832	0.059814	0.566669	-0.414039	-0.620971	-0.349074	-162.613623	-83.135197	97.168448	-0.014915	0.118593	0.992831	0.909831	0.413438	-0.035716	-0.414710	0.902776	-0.114066	0	0	0
57309	0	0	0	0	0	9.751242	-0.377555	-1.155435	0.001529	-0.000869	0.000061	-0.909180	0.534424	0.053955	0.566659	-0.414053	-0.620975	-0.349068	-162.613010	-83.133209	97.166966	-0.014917	0.118627	0.992827	0.909838	0.413423	-0.035728	-0.414696	0.902778	-0.114098	0	0	0
57310	0	0	0	0	0	9.710686	-0.374081	-1.166629	0.001938	0.004342	0.001178	-0.907959	0.527100	0.064697	0.566668	-0.414059	-0.620963	-0.349066	-162.598408	-83.133795	97.152028	-0.014884	0.118621	0.992828	0.909840	0.413416	-0.035754	-0.414693	0.902782	-0.114080	0	0	0
57311	0	0	0	0	0	9.741759	-0.380842	-1.121918	0.005039	0.002156	-0.005017	-0.910889	0.531250	0.063721	0.566665	-0.414042	-0.620975	-0.349070	-162.614537	-83.134332	97.169435	-0.014919	0.118607	0.992829	0.909831	0.413439	-0.035719	-0.414711	0.902774	-0.114081	0	0	0
57312	0	0	0	0	0	9.760634	-0.370101	-1.133267	0.004258	0.001726	-0.003525	-0.911377	0.523438	0.059570	0.566660	-0.414036	-0.620983	-0.349072	-162.624340	-83.134140	97.179642	-0.014941	0.118608	0.992829	0.909828	0.413447	-0.035700	-0.414716	0.902770	-0.114090	0	0	0
57313	0	0	0	0	0	9.732550	-0.387299	-1.142855	0.005029	0.004334	-0.001745	-0.906738	0.530762	0.058838	0.566670	-0.414025	-0.620981	-0.349071	-162.622524	-83.135307	97.178968	-0.014937	0.118588	0.992831	0.909820	0.413465	-0.035698	-0.414734	0.902764	-0.114070	0	0	0
57314	0	0	0	0	0	9.729442	-0.359344	-1.122468	0.007690	0.003470	0.000759	-0.910400	0.527832	0.060059	0.566687	-0.414016	-0.620983	-0.349051	-162.608404	-83.135453	97.167597	-0.014913	0.118589	0.992831	0.909800	0.413507	-0.035725	-0.414780	0.902745	-0.114058	0	0	0
57315	0	0	0	0	0	9.720208	-0.366260	-1.143485	0.002367	0.005198	-0.004249	-0.916992	0.530762	0.057861	0.566689	-0.414004	-0.620980	-0.349068	-162.618255	-83.137521	97.177138	-0.014928	0.118550	0.992836	0.909802	0.413505	-0.035695	-0.414774	0.902751	-0.114030	0	0	0
57316	0	0	0	0	0	9.751558	-0.376644	-1.153060	0.006942	0.004770	-0.000793	-0.919922	0.531006	0.056396	0.566706	-0.413990	-0.620979	-0.349058	-162.609814	-83.138655	97.171085	-0.014913	0.118533	0.992838	0.909784	0.413542	-0.035706	-0.414813	0.902736	-0.114006	0	0	0
57317	0	0	0	0	0	9.720321	-0.366150	-1.142556	0.007689	0.003470	0.000760	-0.918945	0.526123	0.063965	0.566723	-0.413981	-0.620980	-0.349040	-162.596318	-83.138921	97.160181	-0.014890	0.118531	0.992839	0.909765	0.413582	-0.035731	-0.414856	0.902718	-0.113994	0	0	0
57318	0	0	0	0	0	9.748477	-0.348916	-1.132336	0.004994	0.002605	0.001301	-0.909424	0.522949	0.056152	0.566732	-0.413983	-0.620978	-0.349026	-162.583320	-83.138518	97.148309	-0.014867	0.118541	0.992838	0.909757	0.413598	-0.035759	-0.414875	0.902710	-0.113992	0	0	0
57319	0	0	0	0	0	9.742139	-0.380128	-1.118859	0.005062	0.006064	-0.004789	-0.911133	0.525146	0.056885	0.566741	-0.413960	-0.620979	-0.349037	-162.592847	-83.141152	97.159079	-0.014883	0.118493	0.992843	0.909748	0.413621	-0.035727	-0.414894	0.902706	-0.113955	0	0	0
57320	0	0	0	0	0	9.730026	-0.362749	-1.174320	0.007689	0.003471	0.000761	-0.907471	0.527100	0.065674	0.566759	-0.413949	-0.620981	-0.349017	-162.579170	-83.141371	97.148422	-0.014861	0.118492	0.992844	0.909726	0.413667	-0.035753	-0.414943	0.902685	-0.113942	0	0	0
57321	0	0	0	0	0	9.739088	-0.352084	-1.097932	0.005413	0.005639	-0.000854	-0.904053	0.523926	0.052490	0.566775	-0.413938	-0.620975	-0.349015	-162.571215	-83.143098	97.141786	-0.014843	0.118464	0.992847	0.909716	0.413688	-0.035760	-0.414965	0.902679	-0.113909	0	0	0
57322	0	0	0	0	0	9.739413	-0.355685	-1.151997	0.006171	0.002162	-0.002572	-0.909424	0.530518	0.064453	0.566779	-0.413925	-0.620984	-0.349007	-162.574908	-83.143086	97.147435	-0.014855	0.118463	0.992847	0.909702	0.413719	-0.035752	-0.414996	0.902664	-0.113911	0	0	0
57323	0	0	0	0	0	9.730159	-0.362442	-1.173309	0.003873	0.000422	-0.004413	-0.913086	0.529785	0.056641	0.566769	-0.413917	-0.620998	-0.349009	-162.591457	-83.142571	97.164590	-0.014891	0.118467	0.992846	0.909698	0.413731	-0.035722	-0.415003	0.902659	-0.113930	0	0	0
57324	0	0	0	0	0	9.733097	-0.386510	-1.138458	0.003883	0.006508	-0.000916	-0.912109	0.526367	0.054688	0.566784	-0.413909	-0.620987	-0.349013	-162.582555	-83.144616	97.156084	-0.014869	0.118434	0.992851	0.909695	0.413737	-0.035729	-0.415011	0.902660	-0.113891	0	0	0
57325	0	0	0	0	0	9.729985	-0.358349	-1.118071	0.008481	0.001723	-0.004001	-0.911133	0.530762	0.057617	0.566789	-0.413887	-0.621004	-0.349003	-162.592738	-83.144743	97.169487	-0.014897	0.118428	0.992851	0.909672	0.413790	-0.035708	-0.415060	0.902637	-0.113895	0	0	0
57326	0	0	0	0	0	9.736428	-0.327040	-1.130676	0.002705	0.006953	0.002957	-0.916992	0.529053	0.060547	0.566811	-0.413891	-0.620982	-0.348999	-162.566277	-83.146467	97.143070	-0.014839	0.118406	0.992854	0.909671	0.413788	-0.035752	-0.415065	0.902640	-0.113850	0	0	0
57327	0	0	0	0	0	9.752102	-0.375982	-1.148667	0.002729	0.002595	-0.003585	-0.915527	0.530518	0.055908	0.566807	-0.413884	-0.620986	-0.349007	-162.576621	-83.146999	97.153316	-0.014859	0.118394	0.992856	0.909672	0.413788	-0.035729	-0.415062	0.902642	-0.113848	0	0	0
57328	0	0	0	0	0	9.717683	-0.337151	-1.118371	0.000419	0.003033	-0.002155	-0.911133	0.529053	0.054688	0.566803	-0.413887	-0.620982	-0.349017	-162.580696	-83.147428	97.156128	-0.014863	0.118386	0.992856	0.909681	0.413769	-0.035718	-0.415042	0.902652	-0.113843	0	0	0
57329	0	0	0	0	0	9.739734	-0.354579	-1.149626	0.001947	0.002165	-0.002093	-0.908447	0.530273	0.055908	0.566799	-0.413888	-0.620983	-0.349022	-162.585318	-83.147468	97.160160	-0.014872	0.118384	0.992857	0.909685	0.413760	-0.035709	-0.415032	0.902656	-0.113845	0	0	0
57330	0	0	0	0	0	9.758328	-0.340397	-1.106374	-0.001507	0.004777	0.000164	-0.914551	0.525391	0.053955	0.566801	-0.413900	-0.620966	-0.349034	-162.576668	-83.148480	97.149305	-0.014847	0.118369	0.992859	0.909701	0.413725	-0.035721	-0.414999	0.902674	-0.113823	0	0	0
57331	0	0	0	0	0	9.733427	-0.385773	-1.135883	-0.000363	0.002603	-0.000664	-0.914063	0.534424	0.063232	0.566796	-0.413911	-0.620958	-0.349043	-162.575484	-83.148515	97.146156	-0.014841	0.118369	0.992859	0.909715	0.413693	-0.035723	-0.414968	0.902688	-0.113822	0	0	0
57332	0	0	0	0	0	9.752007	-0.371671	-1.092692	0.001551	0.003039	0.000288	-0.916748	0.532227	0.056885	0.566798	-0.413918	-0.620951	-0.349043	-162.567616	-83.148508	97.137530	-0.014823	0.118372	0.992859	0.909720	0.413680	-0.035739	-0.414957	0.902694	-0.113817	0	0	0
57333	0	0	0	0	0	9.717851	-0.336729	-1.117036	0.000397	-0.000874	-0.002381	-0.904785	0.525146	0.069824	0.566781	-0.413928	-0.620958	-0.349048	-162.578776	-83.146937	97.147252	-0.014846	0.118396	0.992855	0.909731	0.413658	-0.035725	-0.414932	0.902701	-0.113850	0	0	0
57334	0	0	0	0	0	9.749167	-0.347019	-1.126966	-0.003023	0.003466	-0.003169	-0.913086	0.534424	0.058594	0.566767	-0.413941	-0.620947	-0.349075	-162.588841	-83.147651	97.153550	-0.014858	0.118382	0.992857	0.909759	0.413600	-0.035701	-0.414872	0.902730	-0.113845	0	0	0
57335	0	0	0	0	0	9.724250	-0.392441	-1.156652	-0.001178	0.000444	0.003872	-0.912109	0.528076	0.068359	0.566761	-0.413972	-0.620935	-0.349069	-162.570573	-83.145728	97.132725	-0.014819	0.118421	0.992853	0.909777	0.413556	-0.035747	-0.414833	0.902745	-0.113865	0	0	0
57336	0	0	0	0	0	9.743093	-0.382238	-1.168141	-0.001529	0.000869	-0.000062	-0.911865	0.527588	0.056396	0.566747	-0.413994	-0.620928	-0.349077	-162.569093	-83.144483	97.128258	-0.014812	0.118443	0.992850	0.909798	0.413507	-0.035757	-0.414786	0.902764	-0.113885	0	0	0
57337	0	0	0	0	0	9.739928	-0.354336	-1.148053	0.002298	0.001740	0.001842	-0.916992	0.534180	0.059570	0.566749	-0.414007	-0.620922	-0.349070	-162.556227	-83.143615	97.114879	-0.014786	0.118462	0.992849	0.909802	0.413497	-0.035787	-0.414779	0.902766	-0.113891	0	0	0
57338	0	0	0	0	0	9.711825	-0.371959	-1.157785	0.002298	0.001740	0.001842	-0.914551	0.533203	0.057373	0.566752	-0.414019	-0.620916	-0.349060	-162.542539	-83.142645	97.100910	-0.014760	0.118482	0.992846	0.909804	0.413490	-0.035819	-0.414776	0.902767	-0.113898	0	0	0
57339	0	0	0	0	0	9.730682	-0.361679	-1.169197	0.002695	0.000866	-0.000539	-0.911865	0.536865	0.059814	0.566748	-0.414025	-0.620918	-0.349056	-162.541524	-83.141709	97.099695	-0.014759	0.118499	0.992845	0.909805	0.413487	-0.035826	-0.414773	0.902766	-0.113913	0	0	0
57340	0	0	0	0	0	9.742857	-0.378795	-1.113038	0.000419	0.003034	-0.002155	-0.912598	0.528320	0.066650	0.566744	-0.414029	-0.620914	-0.349065	-162.544463	-83.142087	97.101301	-0.014762	0.118492	0.992845	0.909815	0.413466	-0.035818	-0.414752	0.902777	-0.113909	0	0	0
57341	0	0	0	0	0	9.724325	-0.392807	-1.155892	-0.001166	-0.001735	0.000601	-0.917725	0.527344	0.066162	0.566726	-0.414054	-0.620914	-0.349065	-162.544191	-83.139533	97.098607	-0.014762	0.118536	0.992840	0.909832	0.413426	-0.035832	-0.414713	0.902789	-0.113951	0	0	0
57342	0	0	0	0	0	9.733618	-0.385828	-1.134227	-0.001123	0.006081	0.001054	-0.912109	0.528809	0.059814	0.566730	-0.414071	-0.620891	-0.349081	-162.531029	-83.140922	97.082353	-0.014725	0.118517	0.992843	0.909854	0.413376	-0.035851	-0.414666	0.902815	-0.113920	0	0	0
57343	0	0	0	0	0	9.724390	-0.392725	-1.155372	-0.000350	0.000424	-0.003935	-0.916016	0.524658	0.060547	0.566712	-0.414076	-0.620896	-0.349095	-162.547816	-83.140328	97.097312	-0.014757	0.118523	0.992842	0.909868	0.413349	-0.035821	-0.414635	0.902826	-0.113940	0	0	0
57344	0	0	0	0	0	9.724411	-0.392452	-1.155291	-0.000747	0.001299	-0.001553	-0.910156	0.533936	0.056641	0.566700	-0.414087	-0.620893	-0.349104	-162.552766	-83.139683	97.100168	-0.014764	0.118533	0.992840	0.909883	0.413316	-0.035814	-0.414602	0.902840	-0.113954	0	0	0
57345	0	0	0	0	0	9.730553	-0.357242	-1.113473	0.000440	0.006942	-0.001928	-0.920654	0.533447	0.059814	0.566708	-0.414085	-0.620877	-0.349124	-162.550676	-83.142306	97.096570	-0.014751	0.118489	0.992846	0.909894	0.413293	-0.035805	-0.414579	0.902856	-0.113909	0	0	0
57346	0	0	0	0	0	9.714954	-0.395472	-1.121375	0.002332	0.003470	-0.001203	-0.909668	0.526123	0.066650	0.566711	-0.414085	-0.620873	-0.349126	-162.547950	-83.142789	97.093648	-0.014744	0.118482	0.992847	0.909895	0.413290	-0.035808	-0.414576	0.902859	-0.113899	0	0	0
57347	0	0	0	0	0	9.752371	-0.370868	-1.089710	0.006171	0.002163	-0.002569	-0.909180	0.526367	0.055664	0.566715	-0.414072	-0.620882	-0.349119	-162.552314	-83.142910	97.099858	-0.014757	0.118478	0.992847	0.909882	0.413320	-0.035798	-0.414605	0.902845	-0.113900	0	0	0
57348	0	0	0	0	0	9.733871	-0.384669	-1.132444	0.002344	0.001291	-0.004473	-0.914307	0.532959	0.052002	0.566704	-0.414067	-0.620890	-0.349128	-162.568477	-83.142721	97.115665	-0.014790	0.118477	0.992847	0.909885	0.413316	-0.035767	-0.414597	0.902847	-0.113913	0	0	0
57349	0	0	0	0	0	9.721477	-0.363200	-1.133626	0.001234	0.005193	-0.006690	-0.914795	0.529541	0.068359	0.566699	-0.414051	-0.620890	-0.349154	-162.590087	-83.145205	97.136396	-0.014828	0.118429	0.992852	0.909892	0.413306	-0.035711	-0.414581	0.902858	-0.113886	0	0	0
57350	0	0	0	0	0	9.731123	-0.359513	-1.166195	0.006554	0.003468	-0.001679	-0.915527	0.529541	0.055176	0.566709	-0.414038	-0.620894	-0.349146	-162.587565	-83.145740	97.135919	-0.014825	0.118420	0.992853	0.909877	0.413339	-0.035714	-0.414614	0.902844	-0.113875	0	0	0
57351	0	0	0	0	0	9.752879	-0.373102	-1.142998	0.004655	0.000852	-0.005902	-0.913330	0.528809	0.057373	0.566700	-0.414022	-0.620911	-0.349151	-162.609828	-83.145715	97.159280	-0.014874	0.118414	0.992853	0.909869	0.413359	-0.035669	-0.414628	0.902836	-0.113890	0	0	0
57352	0	0	0	0	0	9.705965	-0.400431	-1.141195	0.009261	0.002155	-0.005488	-0.911377	0.528320	0.059814	0.566706	-0.413990	-0.620933	-0.349140	-162.625035	-83.146274	97.178626	-0.014912	0.118400	0.992854	0.909840	0.413427	-0.035636	-0.414692	0.902807	-0.113890	0	0	0
57353	0	0	0	0	0	9.746252	-0.399833	-1.075045	0.006951	0.002594	-0.004059	-0.907959	0.535889	0.059570	0.566710	-0.413970	-0.620945	-0.349136	-162.635122	-83.146885	97.191051	-0.014937	0.118386	0.992855	0.909823	0.413466	-0.035613	-0.414728	0.902791	-0.113886	0	0	0
57354	0	0	0	0	0	9.740544	-0.350949	-1.143862	0.006567	0.001289	-0.004949	-0.909668	0.529297	0.060059	0.566708	-0.413951	-0.620961	-0.349132	-162.649908	-83.146763	97.208016	-0.014972	0.118384	0.992855	0.909808	0.413502	-0.035584	-0.414760	0.902774	-0.113897	0	0	0
57355	0	0	0	0	0	9.709284	-0.339952	-1.133602	0.003509	0.003026	-0.005074	-0.917969	0.530762	0.061279	0.566705	-0.413937	-0.620968	-0.349143	-162.665975	-83.147783	97.224478	-0.015004	0.118362	0.992857	0.909805	0.413511	-0.035547	-0.414765	0.902773	-0.113890	0	0	0
57356	0	0	0	0	0	9.728151	-0.329066	-1.145103	-0.001118	-0.002186	-0.005714	-0.912354	0.529297	0.055908	0.566674	-0.413944	-0.620983	-0.349158	-162.694403	-83.145902	97.250677	-0.015062	0.118387	0.992853	0.909822	0.413478	-0.035500	-0.414726	0.902785	-0.113939	0	0	0
57357	0	0	0	0	0	9.759478	-0.339288	-1.155030	0.000801	0.004339	-0.001265	-0.917236	0.528809	0.058838	0.566675	-0.413947	-0.620973	-0.349169	-162.692829	-83.146989	97.247807	-0.015054	0.118369	0.992856	0.909831	0.413458	-0.035498	-0.414706	0.902796	-0.113920	0	0	0
57358	0	0	0	0	0	9.709369	-0.339022	-1.133155	0.001165	0.001735	-0.000601	-0.913330	0.525879	0.062988	0.566672	-0.413954	-0.620972	-0.349169	-162.691146	-83.146461	97.245351	-0.015050	0.118379	0.992854	0.909837	0.413445	-0.035504	-0.414694	0.902801	-0.113928	0	0	0
57359	0	0	0	0	0	9.737504	-0.321162	-1.123075	-0.002229	0.001716	-0.007931	-0.907959	0.531982	0.059570	0.566647	-0.413950	-0.620978	-0.349203	-162.725369	-83.147249	97.276787	-0.015113	0.118357	0.992856	0.909857	0.413405	-0.035432	-0.414646	0.902822	-0.113936	0	0	0
57360	0	0	0	0	0	9.731154	-0.351945	-1.109899	-0.002660	0.000862	-0.002506	-0.907471	0.530762	0.060303	0.566628	-0.413966	-0.620975	-0.349221	-162.735667	-83.146466	97.283763	-0.015129	0.118369	0.992854	0.909882	0.413353	-0.035415	-0.414592	0.902844	-0.113955	0	0	0
57361	0	0	0	0	0	9.753227	-0.369281	-1.141266	0.000034	0.001729	-0.003044	-0.904541	0.532715	0.059326	0.566617	-0.413970	-0.620975	-0.349234	-162.746331	-83.146428	97.292776	-0.015148	0.118367	0.992854	0.909894	0.413328	-0.035394	-0.414564	0.902856	-0.113963	0	0	0
57362	0	0	0	0	0	9.715567	-0.389700	-1.118075	-0.000350	0.000424	-0.003934	-0.906494	0.531494	0.058838	0.566599	-0.413977	-0.620980	-0.349246	-162.761371	-83.145640	97.305985	-0.015177	0.118377	0.992853	0.909907	0.413301	-0.035368	-0.414534	0.902867	-0.113985	0	0	0
57363	0	0	0	0	0	9.762523	-0.361558	-1.119677	0.003091	-0.000007	-0.002919	-0.906738	0.534180	0.060547	0.566589	-0.413976	-0.620990	-0.349246	-162.772159	-83.144630	97.316888	-0.015202	0.118392	0.992851	0.909907	0.413303	-0.035352	-0.414534	0.902864	-0.114008	0	0	0
57364	0	0	0	0	0	9.744034	-0.375581	-1.162439	0.001549	0.003040	0.000289	-0.916748	0.531738	0.063232	0.566591	-0.413985	-0.620982	-0.349245	-162.763053	-83.144556	97.306889	-0.015181	0.118395	0.992850	0.909913	0.413288	-0.035371	-0.414521	0.902871	-0.114004	0	0	0
57365	0	0	0	0	0	9.740843	-0.347492	-1.142372	0.008843	-0.000876	-0.003331	-0.908936	0.530762	0.066895	0.566590	-0.413968	-0.621005	-0.349227	-162.773646	-83.143141	97.320915	-0.015213	0.118416	0.992848	0.909889	0.413343	-0.035357	-0.414573	0.902843	-0.114034	0	0	0
57366	0	0	0	0	0	9.700289	-0.343991	-1.153743	0.002296	0.001742	0.001842	-0.913574	0.529785	0.064697	0.566590	-0.413985	-0.620998	-0.349220	-162.760140	-83.142024	97.306399	-0.015186	0.118439	0.992845	0.909896	0.413325	-0.035389	-0.414559	0.902848	-0.114044	0	0	0
57367	0	0	0	0	0	9.722026	-0.357944	-1.130583	0.005387	0.001735	-0.001076	-0.904053	0.533203	0.063965	0.566593	-0.413980	-0.621004	-0.349210	-162.758765	-83.141654	97.306376	-0.015187	0.118445	0.992844	0.909886	0.413346	-0.035394	-0.414580	0.902838	-0.114049	0	0	0
57368	0	0	0	0	0	9.737710	-0.406934	-1.148913	0.007664	-0.000431	0.000541	-0.911377	0.534424	0.055420	0.566595	-0.413981	-0.621014	-0.349186	-162.750705	-83.139564	97.300504	-0.015179	0.118483	0.992840	0.909870	0.413378	-0.035421	-0.414615	0.902818	-0.114079	0	0	0
57369	0	0	0	0	0	9.731621	-0.354754	-1.163492	0.008445	-0.000001	-0.000950	-0.906494	0.528809	0.062500	0.566600	-0.413971	-0.621030	-0.349163	-162.749455	-83.138223	97.302371	-0.015186	0.118505	0.992837	0.909848	0.413427	-0.035430	-0.414664	0.902793	-0.114100	0	0	0
57370	0	0	0	0	0	9.744100	-0.375617	-1.161876	0.007697	0.001297	-0.002504	-0.907715	0.526855	0.064209	0.566604	-0.413956	-0.621044	-0.349148	-162.752417	-83.137709	97.308187	-0.015199	0.118513	0.992836	0.909827	0.413472	-0.035427	-0.414708	0.902771	-0.114111	0	0	0
57371	0	0	0	0	0	9.750156	-0.340516	-1.120378	0.006135	0.000437	0.000478	-0.916260	0.524902	0.060303	0.566608	-0.413956	-0.621051	-0.349129	-162.745380	-83.136365	97.302893	-0.015191	0.118537	0.992833	0.909815	0.413498	-0.035448	-0.414736	0.902756	-0.114128	0	0	0
57372	0	0	0	0	0	9.734522	-0.378803	-1.128819	0.008458	-0.002181	-0.004219	-0.909668	0.533691	0.053711	0.566599	-0.413941	-0.621079	-0.349111	-162.762163	-83.134222	97.322768	-0.015237	0.118569	0.992829	0.909793	0.413548	-0.035425	-0.414783	0.902729	-0.114174	0	0	0
57373	0	0	0	0	0	9.722059	-0.357699	-1.130383	0.006915	0.000867	-0.001013	-0.910889	0.531250	0.066406	0.566603	-0.413934	-0.621090	-0.349095	-162.760846	-83.133367	97.323685	-0.015241	0.118583	0.992827	0.909777	0.413583	-0.035433	-0.414818	0.902711	-0.114188	0	0	0
57374	0	0	0	0	0	9.737686	-0.319437	-1.121989	0.002660	-0.000860	0.002507	-0.909912	0.534180	0.069092	0.566599	-0.413953	-0.621090	-0.349078	-162.747019	-83.130800	97.309571	-0.015217	0.118631	0.992822	0.909779	0.413575	-0.035473	-0.414814	0.902708	-0.114222	0	0	0
57375	0	0	0	0	0	9.740889	-0.347531	-1.141969	0.002310	-0.000438	-0.001427	-0.910889	0.524414	0.059082	0.566588	-0.413960	-0.621097	-0.349075	-162.752065	-83.129301	97.314240	-0.015230	0.118656	0.992819	0.909782	0.413568	-0.035471	-0.414807	0.902708	-0.114249	0	0	0
57376	0	0	0	0	0	9.731629	-0.354508	-1.163505	-0.000384	-0.001305	-0.000889	-0.912598	0.523193	0.058350	0.566569	-0.413980	-0.621100	-0.349077	-162.756915	-83.127006	97.316778	-0.015240	0.118694	0.992814	0.909799	0.413531	-0.035473	-0.414770	0.902720	-0.114290	0	0	0
57377	0	0	0	0	0	9.744084	-0.375354	-1.162096	0.003838	-0.001305	-0.001364	-0.904541	0.530762	0.065918	0.566559	-0.413984	-0.621112	-0.349067	-162.762014	-83.125021	97.322383	-0.015256	0.118727	0.992810	0.909795	0.413538	-0.035473	-0.414777	0.902713	-0.114326	0	0	0
57378	0	0	0	0	0	9.722031	-0.357603	-1.130648	0.005003	0.000430	-0.001965	-0.909668	0.526367	0.066162	0.566555	-0.413982	-0.621122	-0.349059	-162.766308	-83.123908	97.327697	-0.015270	0.118745	0.992807	0.909788	0.413554	-0.035470	-0.414792	0.902703	-0.114348	0	0	0
57379	0	0	0	0	0	9.712446	-0.360898	-1.097628	0.003441	-0.000430	0.001016	-0.911865	0.528320	0.063477	0.566551	-0.413992	-0.621126	-0.349045	-162.759601	-83.121998	97.321179	-0.015261	0.118779	0.992803	0.909787	0.413555	-0.035493	-0.414795	0.902698	-0.114375	0	0	0
57380	0	0	0	0	0	9.740887	-0.347209	-1.142083	0.006167	0.002165	-0.002567	-0.914063	0.534424	0.054932	0.566552	-0.413983	-0.621134	-0.349040	-162.763845	-83.121890	97.326844	-0.015273	0.118780	0.992803	0.909777	0.413578	-0.035485	-0.414817	0.902687	-0.114379	0	0	0
57381	0	0	0	0	0	9.734515	-0.378463	-1.128999	0.004586	-0.002603	0.000191	-0.919434	0.528320	0.063232	0.566543	-0.413992	-0.621148	-0.349020	-162.763285	-83.118931	97.327180	-0.015280	0.118830	0.992797	0.909770	0.413591	-0.035502	-0.414830	0.902675	-0.114428	0	0	0
57382	0	0	0	0	0	9.734822	-0.382430	-1.183613	0.002660	-0.000860	0.002507	-0.916992	0.524658	0.057617	0.566539	-0.414010	-0.621149	-0.349002	-162.750253	-83.116434	97.314048	-0.015258	0.118877	0.992792	0.909771	0.413586	-0.035541	-0.414830	0.902671	-0.114461	0	0	0
57383	0	0	0	0	0	9.750131	-0.340392	-1.120636	0.000019	0.003909	0.000224	-0.910156	0.529053	0.059082	0.566540	-0.414020	-0.621136	-0.349011	-162.743000	-83.117033	97.305006	-0.015238	0.118869	0.992793	0.909784	0.413557	-0.035552	-0.414803	0.902685	-0.114447	0	0	0
57384	0	0	0	0	0	9.731662	-0.354594	-1.163201	0.001548	0.003041	0.000288	-0.914795	0.530762	0.064941	0.566543	-0.414027	-0.621130	-0.349010	-162.735638	-83.117078	97.297038	-0.015221	0.118870	0.992793	0.909788	0.413547	-0.035567	-0.414794	0.902690	-0.114442	0	0	0
57385	0	0	0	0	0	9.712848	-0.364967	-1.151412	0.001164	0.001735	-0.000602	-0.905518	0.531738	0.064209	0.566538	-0.414035	-0.621127	-0.349013	-162.734531	-83.116627	97.294847	-0.015218	0.118879	0.992792	0.909796	0.413529	-0.035571	-0.414777	0.902697	-0.114448	0	0	0
57386	0	0	0	0	0	9.744184	-0.375359	-1.161256	0.000033	0.001727	-0.003045	-0.913086	0.534668	0.065430	0.566525	-0.414043	-0.621126	-0.349027	-162.744291	-83.116338	97.302530	-0.015234	0.118882	0.992792	0.909811	0.413497	-0.035553	-0.414743	0.902711	-0.114459	0	0	0
57387	0	0	0	0	0	9.753463	-0.368273	-1.139573	-0.001543	0.003049	0.003205	-0.912842	0.536865	0.056152	0.566526	-0.414069	-0.621107	-0.349030	-162.725632	-83.115959	97.281099	-0.015191	0.118894	0.992791	0.909831	0.413450	-0.035592	-0.414701	0.902731	-0.114454	0	0	0
57388	0	0	0	0	0	9.722166	-0.357915	-1.129388	0.001912	0.000438	0.000953	-0.912354	0.524414	0.058594	0.566521	-0.414084	-0.621105	-0.349021	-162.717215	-83.114352	97.271961	-0.015175	0.118924	0.992787	0.909836	0.413437	-0.035617	-0.414691	0.902733	-0.114475	0	0	0
57389	0	0	0	0	0	9.762752	-0.361392	-1.117725	-0.007643	0.004339	-0.000318	-0.911865	0.528320	0.064941	0.566507	-0.414114	-0.621079	-0.349056	-162.716202	-83.115278	97.264783	-0.015158	0.118910	0.992789	0.909880	0.413340	-0.035615	-0.414594	0.902780	-0.114459	0	0	0
57390	0	0	0	0	0	9.725437	-0.385635	-1.148932	-0.000733	-0.000883	-0.004823	-0.914551	0.532471	0.063965	0.566482	-0.414120	-0.621089	-0.349070	-162.739052	-83.113971	97.285571	-0.015204	0.118927	0.992787	0.909896	0.413309	-0.035576	-0.414558	0.902791	-0.114495	0	0	0
57391	0	0	0	0	0	9.731843	-0.354029	-1.161857	-0.003422	0.004339	-0.000792	-0.915527	0.530518	0.066650	0.566476	-0.414136	-0.621072	-0.349093	-162.737772	-83.114977	97.280560	-0.015192	0.118911	0.992789	0.909923	0.413250	-0.035573	-0.414500	0.902820	-0.114478	0	0	0
57392	0	0	0	0	0	9.725505	-0.385200	-1.148506	-0.000748	0.001298	-0.001554	-0.910156	0.533691	0.065430	0.566462	-0.414152	-0.621068	-0.349104	-162.742328	-83.114212	97.282521	-0.015198	0.118923	0.992787	0.909941	0.413209	-0.035568	-0.414458	0.902838	-0.114493	0	0	0
57393	0	0	0	0	0	9.725536	-0.385073	-1.148279	-0.001893	0.003471	-0.000729	-0.912598	0.533203	0.062500	0.566457	-0.414165	-0.621055	-0.349120	-162.741105	-83.114733	97.278449	-0.015188	0.118916	0.992788	0.909962	0.413164	-0.035568	-0.414414	0.902859	-0.114484	0	0	0
57394	0	0	0	0	0	9.763266	-0.364230	-1.171042	-0.001893	0.003471	-0.000729	-0.915527	0.524170	0.061035	0.566449	-0.414183	-0.621041	-0.349136	-162.738683	-83.115016	97.272841	-0.015176	0.118912	0.992789	0.909985	0.413113	-0.035571	-0.414364	0.902883	-0.114478	0	0	0
57395	0	0	0	0	0	9.728845	-0.412907	-1.167522	0.006550	0.003471	-0.001676	-0.914063	0.527100	0.056396	0.566459	-0.414169	-0.621045	-0.349129	-162.736914	-83.115698	97.273093	-0.015175	0.118900	0.992790	0.909970	0.413145	-0.035571	-0.414396	0.902870	-0.114465	0	0	0
57396	0	0	0	0	0	9.732054	-0.353299	-1.160312	0.001979	0.003893	-0.005136	-0.913330	0.530762	0.071289	0.566456	-0.414156	-0.621048	-0.349145	-162.753078	-83.117148	97.289097	-0.015205	0.118871	0.992793	0.909971	0.413146	-0.035531	-0.414392	0.902873	-0.114451	0	0	0
57397	0	0	0	0	0	9.747785	-0.401776	-1.178525	0.007710	-0.000883	-0.005770	-0.915771	0.531006	0.059082	0.566448	-0.414134	-0.621074	-0.349136	-162.775330	-83.116142	97.314214	-0.015259	0.118882	0.992791	0.909951	0.413193	-0.035492	-0.414434	0.902850	-0.114482	0	0	0
57398	0	0	0	0	0	9.735007	-0.376731	-1.125328	0.006185	0.006075	-0.002341	-0.908203	0.532471	0.056641	0.566462	-0.414119	-0.621071	-0.349138	-162.772791	-83.118128	97.313048	-0.015252	0.118848	0.992795	0.909941	0.413216	-0.035487	-0.414457	0.902844	-0.114447	0	0	0
57399	0	0	0	0	0	9.753918	-0.366277	-1.136321	0.006933	0.004778	-0.000786	-0.910156	0.528076	0.055664	0.566478	-0.414105	-0.621070	-0.349129	-162.764934	-83.119374	97.307388	-0.015238	0.118828	0.992798	0.909925	0.413251	-0.035496	-0.414492	0.902831	-0.114422	0	0	0
57400	0	0	0	0	0	9.735500	-0.380323	-1.178704	0.004273	0.005637	-0.003294	-0.915527	0.531738	0.058594	0.566490	-0.414088	-0.621068	-0.349134	-162.767334	-83.121458	97.311064	-0.015241	0.118791	0.992802	0.909916	0.413273	-0.035481	-0.414513	0.902826	-0.114389	0	0	0
57401	0	0	0	0	0	9.713135	-0.358552	-1.092291	0.003890	0.004331	-0.004183	-0.916504	0.535400	0.059082	0.566493	-0.414073	-0.621070	-0.349144	-162.777256	-83.123036	97.321555	-0.015259	0.118761	0.992806	0.909912	0.413284	-0.035453	-0.414521	0.902825	-0.114369	0	0	0
57402	0	0	0	0	0	9.744879	-0.372495	-1.156336	0.001978	0.003893	-0.005136	-0.914795	0.518555	0.060791	0.566489	-0.414061	-0.621072	-0.349159	-162.792079	-83.124429	97.336123	-0.015286	0.118734	0.992808	0.909914	0.413282	-0.035416	-0.414515	0.902829	-0.114355	0	0	0
57403	0	0	0	0	0	9.750955	-0.336821	-1.114522	0.001230	0.005191	-0.006690	-0.907715	0.521484	0.052490	0.566485	-0.414044	-0.621072	-0.349186	-162.813713	-83.126901	97.356877	-0.015324	0.118686	0.992814	0.909921	0.413273	-0.035360	-0.414500	0.902840	-0.114327	0	0	0
57404	0	0	0	0	0	9.745016	-0.371401	-1.155533	-0.003407	0.002156	-0.004062	-0.907959	0.532959	0.060791	0.566468	-0.414051	-0.621070	-0.349211	-162.831088	-83.127275	97.371213	-0.015353	0.118675	0.992814	0.909943	0.413227	-0.035324	-0.414450	0.902862	-0.114332	0	0	0
57405	0	0	0	0	0	9.745063	-0.371126	-1.155221	0.000799	0.004339	-0.001266	-0.909424	0.532959	0.064697	0.566469	-0.414054	-0.621060	-0.349222	-162.829544	-83.128363	97.368372	-0.015344	0.118657	0.992817	0.909952	0.413207	-0.035321	-0.414430	0.902874	-0.114313	0	0	0
57406	0	0	0	0	0	9.726274	-0.381391	-1.143254	0.000799	0.004339	-0.001266	-0.904541	0.530518	0.062256	0.566470	-0.414060	-0.621050	-0.349233	-162.826445	-83.129217	97.363722	-0.015333	0.118644	0.992818	0.909963	0.413182	-0.035323	-0.414406	0.902887	-0.114297	0	0	0
57407	0	0	0	0	0	9.723086	-0.353198	-1.122938	0.003108	0.003902	-0.002692	-0.913818	0.532227	0.062988	0.566472	-0.414052	-0.621049	-0.349240	-162.830667	-83.130306	97.368021	-0.015339	0.118624	0.992821	0.909962	0.413185	-0.035309	-0.414407	0.902888	-0.114281	0	0	0
57408	0	0	0	0	0	9.754462	-0.363577	-1.132512	0.005020	0.004341	-0.001738	-0.912109	0.527832	0.059570	0.566481	-0.414045	-0.621047	-0.349238	-162.827646	-83.131258	97.365914	-0.015333	0.118608	0.992823	0.909956	0.413199	-0.035310	-0.414422	0.902883	-0.114264	0	0	0
57409	0	0	0	0	0	9.726444	-0.380758	-1.142015	0.001978	0.003894	-0.005135	-0.917236	0.531250	0.069824	0.566477	-0.414033	-0.621048	-0.349256	-162.843635	-83.132756	97.381413	-0.015362	0.118578	0.992826	0.909960	0.413194	-0.035271	-0.414412	0.902890	-0.114249	0	0	0
57410	0	0	0	0	0	9.742106	-0.341934	-1.133240	0.003889	0.004332	-0.004181	-0.908691	0.536621	0.059570	0.566478	-0.414021	-0.621050	-0.349266	-162.853461	-83.134112	97.391403	-0.015379	0.118552	0.992829	0.909958	0.413199	-0.035244	-0.414414	0.902891	-0.114232	0	0	0
57411	0	0	0	0	0	9.745414	-0.369776	-1.152696	-0.001512	0.004776	0.000160	-0.915283	0.527344	0.057129	0.566478	-0.414034	-0.621032	-0.349281	-162.846143	-83.135198	97.381413	-0.015356	0.118536	0.992831	0.909977	0.413156	-0.035253	-0.414373	0.902912	-0.114210	0	0	0
57412	0	0	0	0	0	9.736235	-0.376774	-1.173760	0.008858	0.003037	-0.003098	-0.913086	0.528320	0.049805	0.566490	-0.414011	-0.621045	-0.349267	-162.848794	-83.135774	97.387728	-0.015368	0.118525	0.992832	0.909951	0.413215	-0.035245	-0.414431	0.902887	-0.114202	0	0	0
57413	0	0	0	0	0	9.735912	-0.372650	-1.118835	0.005052	0.006069	-0.004782	-0.909424	0.523682	0.061035	0.566500	-0.413987	-0.621045	-0.349279	-162.858376	-83.138402	97.398548	-0.015384	0.118477	0.992838	0.909942	0.413238	-0.035212	-0.414450	0.902883	-0.114164	0	0	0
57414	0	0	0	0	0	9.723503	-0.351578	-1.119828	0.004620	0.005217	0.000642	-0.904541	0.523682	0.060059	0.566518	-0.413981	-0.621038	-0.349271	-162.844238	-83.139642	97.385867	-0.015355	0.118459	0.992840	0.909931	0.413260	-0.035234	-0.414475	0.902875	-0.114135	0	0	0
57415	0	0	0	0	0	9.776998	-0.379807	-1.160653	0.003872	0.006515	-0.000912	-0.914307	0.530518	0.051025	0.566533	-0.413972	-0.621026	-0.349276	-162.836261	-83.141860	97.378321	-0.015335	0.118423	0.992845	0.909928	0.413267	-0.035239	-0.414483	0.902877	-0.114094	0	0	0
57416	0	0	0	0	0	9.733247	-0.348223	-1.151806	0.001944	0.002166	-0.002090	-0.923584	0.535889	0.068115	0.566531	-0.413970	-0.621029	-0.349278	-162.839983	-83.141867	97.382033	-0.015343	0.118422	0.992845	0.909928	0.413267	-0.035231	-0.414483	0.902877	-0.114096	0	0	0
57417	0	0	0	0	0	9.745781	-0.368864	-1.149876	0.002360	0.005200	-0.004245	-0.906250	0.536865	0.057129	0.566533	-0.413958	-0.621025	-0.349294	-162.849893	-83.143929	97.391629	-0.015358	0.118384	0.992849	0.909930	0.413265	-0.035201	-0.414477	0.902883	-0.114068	0	0	0
57418	0	0	0	0	0	9.736220	-0.371888	-1.116410	0.000797	0.004340	-0.001266	-0.911377	0.535156	0.059814	0.566534	-0.413964	-0.621015	-0.349304	-162.846788	-83.144787	97.386964	-0.015346	0.118370	0.992851	0.909941	0.413240	-0.035203	-0.414453	0.902896	-0.114052	0	0	0
57419	0	0	0	0	0	9.745890	-0.368466	-1.149084	0.001944	0.002166	-0.002090	-0.912598	0.528809	0.064453	0.566530	-0.413965	-0.621015	-0.349310	-162.851388	-83.144825	97.390972	-0.015354	0.118368	0.992851	0.909946	0.413231	-0.035193	-0.414443	0.902900	-0.114054	0	0	0
57420	0	0	0	0	0	9.717888	-0.385704	-1.158531	0.005433	0.007375	-0.003891	-0.916992	0.527832	0.062256	0.566545	-0.413944	-0.621010	-0.349320	-162.853833	-83.147816	97.394640	-0.015355	0.118316	0.992857	0.909937	0.413253	-0.035173	-0.414463	0.902897	-0.114006	0	0	0
57421	0	0	0	0	0	9.723905	-0.350499	-1.116673	0.004985	0.002615	0.001308	-0.915283	0.536621	0.052979	0.566554	-0.413946	-0.621007	-0.349307	-162.840580	-83.147524	97.382421	-0.015331	0.118324	0.992857	0.909929	0.413268	-0.035201	-0.414481	0.902889	-0.114002	0	0	0
57422	0	0	0	0	0	9.752426	-0.336887	-1.160839	0.009239	0.004344	-0.002206	-0.906738	0.532471	0.066895	0.566573	-0.413921	-0.621015	-0.349292	-162.837498	-83.148694	97.383247	-0.015330	0.118304	0.992859	0.909901	0.413330	-0.035201	-0.414543	0.902863	-0.113981	0	0	0
57423	0	0	0	0	0	9.718050	-0.385511	-1.157235	0.003107	0.003903	-0.002690	-0.911621	0.524658	0.066650	0.566575	-0.413913	-0.621014	-0.349299	-162.841725	-83.149783	97.387550	-0.015336	0.118284	0.992861	0.909900	0.413332	-0.035187	-0.414544	0.902865	-0.113966	0	0	0
57424	0	0	0	0	0	9.746165	-0.367806	-1.146957	0.004636	0.003036	-0.002625	-0.908936	0.532471	0.062988	0.566575	-0.413909	-0.621016	-0.349301	-162.845681	-83.150086	97.391750	-0.015344	0.118278	0.992862	0.909898	0.413337	-0.035178	-0.414547	0.902864	-0.113963	0	0	0
57425	0	0	0	0	0	9.727361	-0.378096	-1.135068	0.004236	0.003912	-0.000246	-0.915771	0.528564	0.066895	0.566584	-0.413906	-0.621012	-0.349297	-162.838110	-83.150767	97.384822	-0.015328	0.118268	0.992863	0.909894	0.413347	-0.035190	-0.414559	0.902861	-0.113947	0	0	0
57426	0	0	0	0	0	9.733779	-0.346865	-1.147717	0.004618	0.005219	0.000643	-0.915039	0.536865	0.063721	0.566598	-0.413906	-0.621001	-0.349294	-162.823924	-83.151760	97.370967	-0.015298	0.118255	0.992865	0.909891	0.413351	-0.035213	-0.414566	0.902860	-0.113922	0	0	0
57427	0	0	0	0	0	9.765161	-0.357664	-1.157185	0.007276	0.004361	0.003153	-0.910156	0.532715	0.067871	0.566620	-0.413904	-0.620994	-0.349272	-162.798481	-83.152111	97.347793	-0.015249	0.118255	0.992866	0.909874	0.413384	-0.035261	-0.414605	0.902845	-0.113901	0	0	0
57428	0	0	0	0	0	9.724230	-0.350586	-1.113814	0.004236	0.003912	-0.000246	-0.907959	0.526855	0.061523	0.566627	-0.413907	-0.620988	-0.349270	-162.789702	-83.152494	97.339047	-0.015230	0.118250	0.992867	0.909873	0.413384	-0.035277	-0.414606	0.902846	-0.113889	0	0	0
57429	0	0	0	0	0	9.715059	-0.357795	-1.134894	0.007675	0.003485	0.000775	-0.913574	0.531006	0.059326	0.566644	-0.413898	-0.620988	-0.349252	-162.776103	-83.152767	97.328032	-0.015207	0.118249	0.992868	0.909854	0.413423	-0.035303	-0.414649	0.902828	-0.113876	0	0	0
57430	0	0	0	0	0	9.758918	-0.389529	-1.142812	0.005747	0.005229	0.003088	-0.914063	0.525391	0.057129	0.566666	-0.413900	-0.620976	-0.349236	-162.749956	-83.153457	97.303301	-0.015154	0.118243	0.992869	0.909844	0.413443	-0.035351	-0.414675	0.902820	-0.113848	0	0	0
57431	0	0	0	0	0	9.734008	-0.347871	-1.145462	0.011148	0.004785	-0.001249	-0.909912	0.526123	0.063232	0.566690	-0.413872	-0.620983	-0.349216	-162.741746	-83.154785	97.299718	-0.015144	0.118222	0.992872	0.909810	0.413516	-0.035360	-0.414749	0.902789	-0.113821	0	0	0
57432	0	0	0	0	0	9.746537	-0.368820	-1.143464	0.005764	0.003046	-0.000180	-0.912842	0.531250	0.056885	0.566700	-0.413867	-0.620985	-0.349205	-162.734286	-83.154866	97.293866	-0.015132	0.118222	0.992872	0.909798	0.413541	-0.035375	-0.414775	0.902778	-0.113815	0	0	0
57433	0	0	0	0	0	9.737371	-0.376038	-1.164541	0.006146	0.004353	0.000710	-0.906250	0.532715	0.063477	0.566716	-0.413861	-0.620980	-0.349193	-162.720624	-83.155624	97.281905	-0.015105	0.118212	0.992874	0.909786	0.413567	-0.035398	-0.414804	0.902767	-0.113794	0	0	0
57434	0	0	0	0	0	9.715289	-0.358389	-1.132735	0.006545	0.003476	-0.001669	-0.914307	0.535156	0.060303	0.566726	-0.413849	-0.620984	-0.349185	-162.717476	-83.156135	97.280777	-0.015102	0.118203	0.992875	0.909771	0.413599	-0.035402	-0.414836	0.902754	-0.113784	0	0	0
57435	0	0	0	0	0	9.724982	-0.355000	-1.165391	0.004635	0.003036	-0.002624	-0.914307	0.524170	0.061279	0.566729	-0.413839	-0.620988	-0.349185	-162.721739	-83.156740	97.285998	-0.015111	0.118192	0.992876	0.909764	0.413615	-0.035390	-0.414851	0.902748	-0.113777	0	0	0
57436	0	0	0	0	0	9.737500	-0.375858	-1.163521	0.007293	0.002179	-0.000113	-0.911133	0.526855	0.059326	0.566739	-0.413832	-0.620993	-0.349167	-162.713897	-83.156304	97.280545	-0.015101	0.118200	0.992875	0.909747	0.413651	-0.035408	-0.414889	0.902730	-0.113779	0	0	0
57437	0	0	0	0	0	9.727880	-0.379102	-1.130276	0.003854	0.002606	-0.001134	-0.903320	0.529053	0.053955	0.566742	-0.413829	-0.620994	-0.349165	-162.712427	-83.156420	97.279541	-0.015099	0.118199	0.992875	0.909743	0.413659	-0.035410	-0.414897	0.902727	-0.113776	0	0	0
57438	0	0	0	0	0	9.737555	-0.376047	-1.162994	0.006111	0.002627	0.003755	-0.905518	0.533691	0.059082	0.566759	-0.413834	-0.620989	-0.349139	-162.686292	-83.155635	97.255405	-0.015051	0.118219	0.992874	0.909728	0.413687	-0.035466	-0.414931	0.902711	-0.113773	0	0	0
57439	0	0	0	0	0	9.731029	-0.320059	-1.122986	0.000415	0.003033	-0.002156	-0.908691	0.527588	0.061035	0.566754	-0.413838	-0.620985	-0.349151	-162.690840	-83.156158	97.258478	-0.015056	0.118209	0.992875	0.909739	0.413664	-0.035454	-0.414908	0.902723	-0.113767	0	0	0
57440	0	0	0	0	0	9.734355	-0.348007	-1.142468	-0.001513	0.004777	0.000156	-0.909912	0.527832	0.058105	0.566755	-0.413852	-0.620967	-0.349164	-162.682183	-83.157066	97.247141	-0.015030	0.118196	0.992877	0.909758	0.413621	-0.035467	-0.414867	0.902744	-0.113747	0	0	0
57441	0	0	0	0	0	9.746881	-0.369007	-1.140470	-0.000766	0.003481	0.001712	-0.913086	0.529541	0.059326	0.566756	-0.413870	-0.620951	-0.349170	-162.669141	-83.157175	97.231817	-0.014999	0.118198	0.992877	0.909774	0.413583	-0.035492	-0.414832	0.902761	-0.113737	0	0	0
57442	0	0	0	0	0	9.746914	-0.369165	-1.140134	-0.000766	0.003481	0.001712	-0.913818	0.527832	0.061279	0.566757	-0.413888	-0.620935	-0.349174	-162.655540	-83.157175	97.216118	-0.014966	0.118202	0.992877	0.909789	0.413548	-0.035519	-0.414801	0.902777	-0.113729	0	0	0
57443	0	0	0	0	0	9.718901	-0.386856	-1.149617	0.002306	0.005657	0.002067	-0.906250	0.531738	0.062012	0.566772	-0.413895	-0.620918	-0.349173	-162.636016	-83.158412	97.196038	-0.014922	0.118186	0.992879	0.909793	0.413538	-0.035552	-0.414795	0.902784	-0.113696	0	0	0
57444	0	0	0	0	0	9.750265	-0.397595	-1.159271	0.007658	-0.000424	0.000555	-0.913330	0.534912	0.064453	0.566775	-0.413894	-0.620930	-0.349148	-162.628295	-83.156394	97.190786	-0.014916	0.118222	0.992875	0.909775	0.413575	-0.035577	-0.414834	0.902762	-0.113725	0	0	0
57445	0	0	0	0	0	9.746988	-0.369603	-1.139363	0.006911	0.000873	-0.001001	-0.907227	0.526855	0.060547	0.566779	-0.413887	-0.620940	-0.349132	-162.626934	-83.155539	97.191656	-0.014919	0.118237	0.992873	0.909759	0.413610	-0.035585	-0.414869	0.902744	-0.113738	0	0	0
57446	0	0	0	0	0	9.734538	-0.348856	-1.140648	0.005744	0.005231	0.003089	-0.912354	0.534912	0.057373	0.566800	-0.413890	-0.620927	-0.349117	-162.600596	-83.156154	97.166451	-0.014866	0.118233	0.992875	0.909750	0.413625	-0.035634	-0.414891	0.902738	-0.113711	0	0	0
57447	0	0	0	0	0	9.743777	-0.341813	-1.118814	0.001944	0.002166	-0.002089	-0.910645	0.523682	0.064941	0.566795	-0.413891	-0.620927	-0.349122	-162.605196	-83.156192	97.170459	-0.014874	0.118231	0.992875	0.909754	0.413616	-0.035624	-0.414881	0.902742	-0.113714	0	0	0
57448	0	0	0	0	0	9.725409	-0.356028	-1.161514	0.003072	0.002177	0.000356	-0.907959	0.523193	0.062500	0.566797	-0.413898	-0.620925	-0.349116	-162.597542	-83.155653	97.162696	-0.014859	0.118242	0.992874	0.909755	0.413613	-0.035642	-0.414880	0.902742	-0.113718	0	0	0
57449	0	0	0	0	0	9.728256	-0.380180	-1.126671	0.003853	0.002606	-0.001134	-0.906006	0.530518	0.060791	0.566800	-0.413895	-0.620925	-0.349114	-162.596065	-83.155769	97.161685	-0.014857	0.118241	0.992874	0.909751	0.413620	-0.035645	-0.414887	0.902739	-0.113715	0	0	0
57450	0	0	0	0	0	9.747149	-0.369691	-1.137958	0.001944	0.002166	-0.002089	-0.904785	0.524414	0.063721	0.566795	-0.413898	-0.620925	-0.349119	-162.600236	-83.155625	97.165123	-0.014864	0.118242	0.992874	0.909757	0.413609	-0.035637	-0.414875	0.902744	-0.113720	0	0	0
57451	0	0	0	0	0	9.749998	-0.393714	-1.103124	-0.000366	0.002603	-0.000667	-0.904053	0.533936	0.056152	0.566790	-0.413909	-0.620917	-0.349128	-162.599055	-83.155659	97.161975	-0.014858	0.118243	0.992874	0.909771	0.413578	-0.035639	-0.414844	0.902758	-0.113719	0	0	0
57452	0	0	0	0	0	9.740840	-0.400829	-1.124259	0.004234	0.003914	-0.000244	-0.912598	0.524170	0.061768	0.566799	-0.413907	-0.620913	-0.349123	-162.590195	-83.156164	97.153769	-0.014840	0.118236	0.992875	0.909766	0.413587	-0.035654	-0.414856	0.902755	-0.113705	0	0	0
57453	0	0	0	0	0	9.719204	-0.387025	-1.146997	0.003853	0.002606	-0.001133	-0.906250	0.533447	0.059570	0.566801	-0.413905	-0.620913	-0.349121	-162.588715	-83.156279	97.152755	-0.014837	0.118234	0.992875	0.909763	0.413595	-0.035657	-0.414864	0.902751	-0.113702	0	0	0
57454	0	0	0	0	0	9.738078	-0.376756	-1.158380	0.005347	0.000014	0.001979	-0.909668	0.521973	0.057861	0.566804	-0.413914	-0.620917	-0.349099	-162.575307	-83.154284	97.140561	-0.014817	0.118272	0.992871	0.909754	0.413611	-0.035694	-0.414884	0.902739	-0.113726	0	0	0
57455	0	0	0	0	0	9.728424	-0.379958	-1.125297	0.000034	0.001725	-0.003045	-0.911865	0.528076	0.064453	0.566793	-0.413918	-0.620918	-0.349112	-162.585981	-83.154246	97.149583	-0.014835	0.118270	0.992871	0.909766	0.413586	-0.035673	-0.414856	0.902751	-0.113734	0	0	0
57456	0	0	0	0	0	9.759792	-0.390344	-1.135041	0.001162	0.001737	-0.000600	-0.905762	0.531250	0.056641	0.566788	-0.413927	-0.620915	-0.349114	-162.585129	-83.153657	97.147606	-0.014832	0.118281	0.992869	0.909774	0.413568	-0.035677	-0.414839	0.902758	-0.113743	0	0	0
57457	0	0	0	0	0	9.731760	-0.407747	-1.144815	0.003472	0.001299	-0.002022	-0.908691	0.522949	0.068604	0.566784	-0.413925	-0.620921	-0.349112	-162.589783	-83.153210	97.152550	-0.014844	0.118287	0.992868	0.909772	0.413573	-0.035670	-0.414843	0.902755	-0.113753	0	0	0
57458	0	0	0	0	0	9.750169	-0.393249	-1.101780	0.001563	0.000859	-0.002978	-0.902100	0.532715	0.065430	0.566772	-0.413929	-0.620925	-0.349119	-162.600116	-83.152485	97.161878	-0.014864	0.118297	0.992867	0.909780	0.413557	-0.035654	-0.414825	0.902760	-0.113772	0	0	0
57459	0	0	0	0	0	9.716033	-0.358394	-1.126331	0.005381	0.001740	-0.001066	-0.908936	0.523193	0.056641	0.566775	-0.413924	-0.620931	-0.349109	-162.598693	-83.152115	97.161803	-0.014865	0.118304	0.992866	0.909770	0.413578	-0.035658	-0.414847	0.902750	-0.113777	0	0	0
57460	0	0	0	0	0	9.734925	-0.347791	-1.137667	-0.003404	0.002151	-0.004068	-0.914063	0.525146	0.062012	0.566756	-0.413936	-0.620926	-0.349136	-162.614529	-83.152304	97.173972	-0.014890	0.118297	0.992867	0.909797	0.413522	-0.035626	-0.414787	0.902776	-0.113784	0	0	0
57461	0	0	0	0	0	9.734967	-0.347642	-1.137353	0.001924	0.004351	0.001178	-0.911865	0.527100	0.060791	0.566764	-0.413943	-0.620913	-0.349137	-162.601144	-83.152978	97.159853	-0.014859	0.118289	0.992868	0.909802	0.413509	-0.035649	-0.414777	0.902783	-0.113764	0	0	0
57462	0	0	0	0	0	9.725298	-0.350751	-1.104400	0.002696	-0.005226	-0.004022	-0.909912	0.531494	0.062500	0.566734	-0.413949	-0.620940	-0.349129	-162.624918	-83.149170	97.183559	-0.014916	0.118349	0.992860	0.909803	0.413509	-0.035622	-0.414772	0.902776	-0.113842	0	0	0
57463	0	0	0	0	0	9.704100	-0.340731	-1.181984	0.000014	0.003911	0.000222	-0.906494	0.527100	0.055908	0.566735	-0.413960	-0.620927	-0.349138	-162.617614	-83.149767	97.174464	-0.014896	0.118341	0.992861	0.909816	0.413480	-0.035633	-0.414745	0.902790	-0.113827	0	0	0
57464	0	0	0	0	0	9.744180	-0.340284	-1.115772	0.001909	0.000441	0.000956	-0.906250	0.529541	0.059326	0.566731	-0.413974	-0.620927	-0.349129	-162.609852	-83.148208	97.166148	-0.014883	0.118370	0.992858	0.909820	0.413469	-0.035656	-0.414737	0.902791	-0.113848	0	0	0
57465	0	0	0	0	0	9.716133	-0.357781	-1.125664	-0.003438	0.000426	-0.001023	-0.909180	0.524170	0.062988	0.566713	-0.413996	-0.620920	-0.349145	-162.615158	-83.147112	97.167761	-0.014888	0.118388	0.992856	0.909847	0.413411	-0.035652	-0.414678	0.902816	-0.113870	0	0	0
57466	0	0	0	0	0	9.744178	-0.340283	-1.115787	-0.003472	-0.001300	0.002022	-0.909912	0.535645	0.053223	0.566693	-0.414032	-0.620913	-0.349147	-162.608669	-83.144392	97.157428	-0.014873	0.118437	0.992850	0.909874	0.413347	-0.035679	-0.414617	0.902838	-0.113911	0	0	0
57467	0	0	0	0	0	9.766310	-0.358138	-1.147297	-0.003472	-0.001299	0.002022	-0.908203	0.525879	0.057373	0.566674	-0.414067	-0.620905	-0.349150	-162.602607	-83.141831	97.147572	-0.014858	0.118484	0.992845	0.909902	0.413284	-0.035704	-0.414558	0.902861	-0.113949	0	0	0
57468	0	0	0	0	0	9.719359	-0.386316	-1.145918	0.000713	-0.003021	0.004601	-0.906738	0.521729	0.063965	0.566665	-0.414099	-0.620905	-0.349126	-162.583466	-83.137840	97.127544	-0.014825	0.118558	0.992836	0.909908	0.413266	-0.035763	-0.414545	0.902860	-0.114003	0	0	0
57469	0	0	0	0	0	9.719329	-0.386782	-1.146019	0.000727	0.000889	0.004823	-0.912354	0.531738	0.055176	0.566666	-0.414127	-0.620893	-0.349113	-162.559175	-83.135994	97.101751	-0.014776	0.118596	0.992833	0.909918	0.413238	-0.035821	-0.414524	0.902867	-0.114019	0	0	0
57470	0	0	0	0	0	9.725685	-0.355900	-1.159233	0.005713	-0.002589	0.002646	-0.915771	0.528809	0.055664	0.566664	-0.414140	-0.620904	-0.349082	-162.546598	-83.132511	97.090786	-0.014760	0.118659	0.992825	0.909907	0.413259	-0.035864	-0.414550	0.902849	-0.114068	0	0	0
57471	0	0	0	0	0	9.728965	-0.384215	-1.179063	0.000762	0.002615	0.001778	-0.908203	0.533203	0.059082	0.566665	-0.414156	-0.620893	-0.349081	-162.533669	-83.132130	97.076457	-0.014732	0.118669	0.992825	0.909917	0.413235	-0.035891	-0.414529	0.902859	-0.114067	0	0	0
57472	0	0	0	0	0	9.747349	-0.370284	-1.136049	0.003784	-0.000844	0.004957	-0.913574	0.534912	0.059814	0.566669	-0.414177	-0.620892	-0.349051	-162.508554	-83.129234	97.051978	-0.014687	0.118725	0.992819	0.909912	0.413241	-0.035956	-0.414542	0.902849	-0.114099	0	0	0
57473	0	0	0	0	0	9.706791	-0.367379	-1.147626	0.002256	0.000023	0.004890	-0.907959	0.534180	0.063232	0.566671	-0.414203	-0.620884	-0.349032	-162.484375	-83.126900	97.027179	-0.014641	0.118772	0.992814	0.909916	0.413226	-0.036017	-0.414535	0.902850	-0.114122	0	0	0
57474	0	0	0	0	0	9.734826	-0.350504	-1.137683	0.003383	0.000034	0.007336	-0.905273	0.529785	0.060303	0.566679	-0.414235	-0.620873	-0.349000	-162.447045	-83.123949	96.989680	-0.014569	0.118832	0.992807	0.909916	0.413217	-0.036107	-0.414536	0.902846	-0.114147	0	0	0
57475	0	0	0	0	0	9.725621	-0.358194	-1.159068	0.001509	0.001319	0.003334	-0.909180	0.522705	0.063721	0.566681	-0.414255	-0.620864	-0.348990	-162.428521	-83.122588	96.970145	-0.014531	0.118860	0.992805	0.909923	0.413198	-0.036151	-0.414522	0.902851	-0.114158	0	0	0
57476	0	0	0	0	0	9.738091	-0.379712	-1.157301	0.007983	0.001345	0.007759	-0.909912	0.521729	0.054932	0.566703	-0.414272	-0.620857	-0.348946	-162.386064	-83.120306	96.930124	-0.014453	0.118910	0.992800	0.909905	0.413230	-0.036247	-0.414565	0.902830	-0.114169	0	0	0
57477	0	0	0	0	0	9.728430	-0.383425	-1.124064	-0.000766	0.003482	0.001711	-0.908203	0.526611	0.057373	0.566704	-0.414290	-0.620841	-0.348952	-162.373101	-83.120405	96.914878	-0.014421	0.118912	0.992800	0.909921	0.413192	-0.036272	-0.414530	0.902847	-0.114159	0	0	0
57478	0	0	0	0	0	9.753691	-0.342136	-1.148611	0.003783	-0.000844	0.004958	-0.905762	0.534668	0.062012	0.566708	-0.414310	-0.620840	-0.348922	-162.349069	-83.117565	96.891666	-0.014379	0.118967	0.992794	0.909915	0.413200	-0.036335	-0.414546	0.902836	-0.114191	0	0	0
57479	0	0	0	0	0	9.737628	-0.376906	-1.102362	-0.002676	0.003041	0.000755	-0.910156	0.522705	0.052734	0.566702	-0.414331	-0.620824	-0.348936	-162.342166	-83.117589	96.881421	-0.014358	0.118969	0.992794	0.909939	0.413147	-0.036349	-0.414494	0.902860	-0.114186	0	0	0
57480	0	0	0	0	0	9.750589	-0.401970	-1.155025	-0.001182	0.000450	0.003867	-0.902588	0.522705	0.066895	0.566697	-0.414361	-0.620813	-0.348928	-162.323213	-83.115579	96.860283	-0.014318	0.119009	0.992790	0.909954	0.413108	-0.036397	-0.414461	0.902872	-0.114207	0	0	0
57481	0	0	0	0	0	9.738134	-0.381293	-1.156420	-0.002295	0.004349	0.001644	-0.904541	0.529053	0.052246	0.566697	-0.414382	-0.620792	-0.348940	-162.310189	-83.116162	96.844093	-0.014283	0.119003	0.992791	0.909977	0.413057	-0.036420	-0.414413	0.902897	-0.114189	0	0	0
57482	0	0	0	0	0	9.700909	-0.405986	-1.187556	0.002691	0.000869	-0.000533	-0.908203	0.531250	0.063965	0.566694	-0.414388	-0.620794	-0.348934	-162.308562	-83.115093	96.842389	-0.014282	0.119022	0.992789	0.909977	0.413055	-0.036429	-0.414412	0.902895	-0.114206	0	0	0
57483	0	0	0	0	0	9.757037	-0.371045	-1.167620	0.001909	0.000440	0.000956	-0.903076	0.531250	0.056885	0.566689	-0.414401	-0.620793	-0.348928	-162.301875	-83.113661	96.835009	-0.014269	0.119048	0.992786	0.909982	0.413042	-0.036450	-0.414401	0.902898	-0.114225	0	0	0
57484	0	0	0	0	0	9.731784	-0.412764	-1.142813	-0.001147	0.002174	0.000822	-0.909180	0.530273	0.058838	0.566684	-0.414421	-0.620782	-0.348933	-162.293729	-83.113024	96.824411	-0.014249	0.119062	0.992785	0.910000	0.413002	-0.036469	-0.414364	0.902914	-0.114231	0	0	0
57485	0	0	0	0	0	9.750659	-0.402574	-1.154225	0.005346	0.000014	0.001980	-0.908203	0.524658	0.048584	0.566687	-0.414429	-0.620786	-0.348912	-162.281069	-83.111181	96.812997	-0.014229	0.119096	0.992781	0.909991	0.413019	-0.036504	-0.414384	0.902902	-0.114253	0	0	0
57486	0	0	0	0	0	9.738223	-0.381582	-1.155580	0.002360	0.005197	-0.004246	-0.913574	0.533447	0.061768	0.566692	-0.414413	-0.620785	-0.348924	-162.289993	-83.113268	96.822403	-0.014244	0.119058	0.992785	0.909987	0.413029	-0.036476	-0.414391	0.902902	-0.114224	0	0	0
57487	0	0	0	0	0	9.738268	-0.381494	-1.155225	0.006509	0.001751	0.001380	-0.904785	0.531738	0.058594	0.566702	-0.414412	-0.620787	-0.348904	-162.276870	-83.112478	96.811193	-0.014222	0.119074	0.992783	0.909973	0.413057	-0.036506	-0.414423	0.902887	-0.114229	0	0	0
57488	0	0	0	0	0	9.719424	-0.392029	-1.143424	0.003452	0.003485	0.001246	-0.909424	0.522705	0.062988	0.566711	-0.414418	-0.620780	-0.348896	-162.262407	-83.112493	96.796915	-0.014193	0.119078	0.992784	0.909972	0.413058	-0.036535	-0.414428	0.902886	-0.114220	0	0	0
57489	0	0	0	0	0	9.738334	-0.381659	-1.154618	0.004635	0.003035	-0.002622	-0.907959	0.528320	0.062500	0.566714	-0.414408	-0.620783	-0.348897	-162.266585	-83.113101	96.802051	-0.014202	0.119066	0.992785	0.909965	0.413074	-0.036523	-0.414442	0.902880	-0.114212	0	0	0
57490	0	0	0	0	0	9.741175	-0.405684	-1.119607	0.002706	0.004780	-0.000311	-0.912598	0.532471	0.059326	0.566721	-0.414409	-0.620774	-0.348900	-162.259175	-83.114085	96.794193	-0.014184	0.119051	0.992787	0.909968	0.413067	-0.036533	-0.414437	0.902886	-0.114191	0	0	0
57491	0	0	0	0	0	9.716281	-0.363732	-1.122482	0.000416	0.003032	-0.002157	-0.898438	0.531738	0.057861	0.566716	-0.414413	-0.620769	-0.348912	-162.263673	-83.114610	96.797217	-0.014189	0.119041	0.992788	0.909978	0.413044	-0.036521	-0.414413	0.902897	-0.114185	0	0	0
57492	0	0	0	0	0	9.737987	-0.377292	-1.099047	0.003107	0.003902	-0.002689	-0.908203	0.518066	0.061035	0.566720	-0.414406	-0.620768	-0.348917	-162.266188	-83.115558	96.799994	-0.014193	0.119024	0.992790	0.909976	0.413049	-0.036511	-0.414417	0.902897	-0.114171	0	0	0
57493	0	0	0	0	0	9.747703	-0.373854	-1.131832	0.003092	-0.000009	-0.002910	-0.906250	0.528564	0.057129	0.566710	-0.414405	-0.620779	-0.348916	-162.276955	-83.114555	96.810876	-0.014217	0.119039	0.992788	0.909976	0.413052	-0.036495	-0.414417	0.902894	-0.114195	0	0	0
57494	0	0	0	0	0	9.747741	-0.373774	-1.131532	-0.001133	0.006086	0.001043	-0.919189	0.524658	0.061279	0.566717	-0.414417	-0.620757	-0.348929	-162.263721	-83.116103	96.795340	-0.014182	0.119016	0.992791	0.909992	0.413015	-0.036513	-0.414383	0.902914	-0.114161	0	0	0
57495	0	0	0	0	0	9.723026	-0.419232	-1.160878	-0.001493	0.002591	-0.003113	-0.913330	0.531250	0.064453	0.566705	-0.414423	-0.620752	-0.348949	-162.274276	-83.116555	96.803363	-0.014198	0.119006	0.992792	0.910011	0.412976	-0.036490	-0.414342	0.902933	-0.114160	0	0	0
57496	0	0	0	0	0	9.729479	-0.387674	-1.173677	0.001578	0.004769	-0.002756	-0.914063	0.531738	0.062012	0.566705	-0.414420	-0.620746	-0.348963	-162.278877	-83.117979	96.806968	-0.014202	0.118981	0.992795	0.910018	0.412962	-0.036473	-0.414326	0.902943	-0.114140	0	0	0
57497	0	0	0	0	0	9.747900	-0.373088	-1.130388	0.002726	0.002594	-0.003577	-0.909912	0.531738	0.062256	0.566701	-0.414413	-0.620750	-0.348971	-162.289113	-83.118513	96.817106	-0.014222	0.118969	0.992796	0.910019	0.412962	-0.036450	-0.414323	0.902945	-0.114137	0	0	0
57498	0	0	0	0	0	9.757644	-0.369663	-1.162981	0.003487	0.005210	-0.001799	-0.910889	0.531494	0.057373	0.566709	-0.414407	-0.620743	-0.348977	-162.286442	-83.119978	96.814527	-0.014214	0.118944	0.992799	0.910018	0.412964	-0.036447	-0.414325	0.902947	-0.114111	0	0	0
57499	0	0	0	0	0	9.735533	-0.351712	-1.131241	0.002726	0.002594	-0.003577	-0.907959	0.527588	0.051025	0.566706	-0.414401	-0.620747	-0.348985	-162.296682	-83.120512	96.824667	-0.014234	0.118933	0.992800	0.910019	0.412964	-0.036424	-0.414323	0.902948	-0.114109	0	0	0
57500	0	0	0	0	0	9.732498	-0.410869	-1.137402	0.006557	0.007388	-0.001442	-0.908691	0.525146	0.059326	0.566731	-0.414378	-0.620741	-0.348980	-162.287062	-83.123277	96.817723	-0.014214	0.118887	0.992806	0.909999	0.413007	-0.036429	-0.414367	0.902935	-0.114057	0	0	0
57501	0	0	0	0	0	9.738967	-0.379395	-1.150011	0.005416	0.003464	-0.004109	-0.910645	0.520020	0.054688	0.566734	-0.414361	-0.620748	-0.348983	-162.296913	-83.124378	96.829024	-0.014235	0.118865	0.992808	0.909989	0.413032	-0.036403	-0.414389	0.902926	-0.114045	0	0	0
57502	0	0	0	0	0	9.726548	-0.358251	-1.151245	0.009233	0.004347	-0.002194	-0.907227	0.532959	0.066650	0.566753	-0.414334	-0.620757	-0.348969	-162.295065	-83.125597	96.831156	-0.014237	0.118844	0.992811	0.909960	0.413096	-0.036401	-0.414452	0.902900	-0.114024	0	0	0
57503	0	0	0	0	0	9.732703	-0.410243	-1.135877	0.006958	0.006509	-0.003819	-0.904785	0.538330	0.061523	0.566769	-0.414308	-0.620757	-0.348973	-162.298326	-83.128310	96.836709	-0.014243	0.118796	0.992817	0.909943	0.413134	-0.036380	-0.414488	0.902889	-0.113981	0	0	0
57504	0	0	0	0	0	9.745565	-0.347388	-1.161703	0.005416	0.003464	-0.004108	-0.910889	0.524902	0.057617	0.566771	-0.414295	-0.620762	-0.348975	-162.306341	-83.129114	96.845703	-0.014260	0.118779	0.992818	0.909936	0.413151	-0.036360	-0.414503	0.902883	-0.113973	0	0	0
57505	0	0	0	0	0	9.729521	-0.381631	-1.115199	0.002324	0.003474	-0.001199	-0.907471	0.534912	0.052979	0.566773	-0.414296	-0.620758	-0.348980	-162.304780	-83.129713	96.843725	-0.014254	0.118770	0.992820	0.909939	0.413145	-0.036360	-0.414497	0.902887	-0.113962	0	0	0
57506	0	0	0	0	0	9.735964	-0.350203	-1.128000	0.003105	0.003902	-0.002688	-0.915527	0.530273	0.062744	0.566778	-0.414286	-0.620758	-0.348983	-162.307818	-83.130756	96.847372	-0.014260	0.118751	0.992822	0.909935	0.413155	-0.036348	-0.414506	0.902885	-0.113947	0	0	0
57507	0	0	0	0	0	9.720446	-0.388420	-1.135948	0.000415	0.003032	-0.002156	-0.901855	0.534424	0.056885	0.566773	-0.414290	-0.620753	-0.348995	-162.312326	-83.131281	96.850406	-0.014265	0.118741	0.992823	0.909946	0.413133	-0.036336	-0.414482	0.902896	-0.113941	0	0	0
57508	0	0	0	0	0	9.720494	-0.388205	-1.135604	0.003105	0.003902	-0.002687	-0.908691	0.532227	0.058838	0.566776	-0.414284	-0.620752	-0.349001	-162.315204	-83.132205	96.853377	-0.014269	0.118724	0.992825	0.909945	0.413135	-0.036326	-0.414484	0.902897	-0.113928	0	0	0
57509	0	0	0	0	0	9.736112	-0.349601	-1.126904	0.000795	0.004340	-0.001267	-0.911133	0.531982	0.063232	0.566777	-0.414286	-0.620742	-0.349012	-162.313575	-83.133289	96.850448	-0.014261	0.118706	0.992827	0.909954	0.413115	-0.036323	-0.414464	0.902909	-0.113909	0	0	0
57510	0	0	0	0	0	9.739466	-0.377479	-1.146418	0.000035	0.001724	-0.003045	-0.914795	0.529541	0.061035	0.566765	-0.414292	-0.620742	-0.349024	-162.323251	-83.133068	96.858369	-0.014278	0.118708	0.992827	0.909967	0.413088	-0.036305	-0.414435	0.902921	-0.113919	0	0	0
57511	0	0	0	0	0	9.757840	-0.363068	-1.103193	0.001921	0.004353	0.001179	-0.907715	0.531250	0.060303	0.566774	-0.414300	-0.620730	-0.349025	-162.309869	-83.133734	96.844252	-0.014247	0.118700	0.992828	0.909972	0.413075	-0.036328	-0.414425	0.902928	-0.113899	0	0	0
57512	0	0	0	0	0	9.720669	-0.387785	-1.134251	0.003851	0.002607	-0.001130	-0.910400	0.526855	0.063477	0.566776	-0.414298	-0.620730	-0.349021	-162.307825	-83.133690	96.842630	-0.014244	0.118702	0.992828	0.909969	0.413082	-0.036333	-0.414432	0.902925	-0.113899	0	0	0
57513	0	0	0	0	0	9.761225	-0.391005	-1.122425	0.004254	0.001728	-0.003508	-0.908691	0.522949	0.064941	0.566773	-0.414289	-0.620739	-0.349023	-162.318145	-83.133738	96.853733	-0.014267	0.118698	0.992828	0.909963	0.413096	-0.036312	-0.414443	0.902919	-0.113904	0	0	0
57514	0	0	0	0	0	9.748777	-0.369907	-1.123853	0.003851	0.002608	-0.001130	-0.907227	0.529297	0.055908	0.566773	-0.414290	-0.620739	-0.349021	-162.317170	-83.133647	96.852824	-0.014265	0.118700	0.992828	0.909963	0.413096	-0.036314	-0.414444	0.902918	-0.113905	0	0	0
57515	0	0	0	0	0	9.727174	-0.356126	-1.146601	0.002703	0.004782	-0.000310	-0.906982	0.532227	0.065430	0.566781	-0.414289	-0.620729	-0.349025	-162.309466	-83.134805	96.844877	-0.014246	0.118682	0.992830	0.909964	0.413092	-0.036323	-0.414441	0.902923	-0.113881	0	0	0
57516	0	0	0	0	0	9.720830	-0.387291	-1.133040	0.000415	0.003032	-0.002156	-0.906494	0.530518	0.056152	0.566776	-0.414294	-0.620725	-0.349036	-162.312924	-83.135149	96.846795	-0.014249	0.118675	0.992831	0.909976	0.413069	-0.036315	-0.414417	0.902934	-0.113878	0	0	0
57517	0	0	0	0	0	9.730580	-0.383975	-1.165738	0.003851	0.002608	-0.001130	-0.908936	0.525391	0.056641	0.566779	-0.414292	-0.620725	-0.349033	-162.311424	-83.135263	96.845760	-0.014247	0.118674	0.992831	0.909972	0.413076	-0.036317	-0.414424	0.902931	-0.113875	0	0	0
57518	0	0	0	0	0	9.708437	-0.366365	-1.133940	0.002680	0.006970	0.002957	-0.905518	0.531982	0.059570	0.566801	-0.414297	-0.620704	-0.349029	-162.284973	-83.136979	96.819336	-0.014189	0.118651	0.992835	0.909971	0.413074	-0.036361	-0.414428	0.902935	-0.113830	0	0	0
57519	0	0	0	0	0	9.739857	-0.376978	-1.143255	0.003105	0.003903	-0.002687	-0.904785	0.525879	0.055664	0.566804	-0.414289	-0.620702	-0.349036	-162.289084	-83.138072	96.823522	-0.014195	0.118631	0.992837	0.909971	0.413076	-0.036347	-0.414429	0.902937	-0.113814	0	0	0
57520	0	0	0	0	0	9.749051	-0.369796	-1.121506	0.002287	0.001750	0.001847	-0.910400	0.526367	0.055908	0.566807	-0.414302	-0.620697	-0.349026	-162.275117	-83.137083	96.809280	-0.014168	0.118651	0.992835	0.909972	0.413070	-0.036380	-0.414427	0.902937	-0.113822	0	0	0
57521	0	0	0	0	0	9.717726	-0.359274	-1.111352	0.000794	0.004341	-0.001267	-0.912354	0.518311	0.056641	0.566808	-0.414305	-0.620688	-0.349037	-162.273478	-83.138167	96.806341	-0.014160	0.118633	0.992837	0.909982	0.413050	-0.036377	-0.414407	0.902949	-0.113803	0	0	0
57522	0	0	0	0	0	9.718334	-0.363226	-1.165384	0.004230	0.003916	-0.000240	-0.912109	0.521729	0.068604	0.566819	-0.414299	-0.620685	-0.349031	-162.266453	-83.138829	96.800419	-0.014146	0.118624	0.992839	0.909974	0.413067	-0.036388	-0.414425	0.902942	-0.113787	0	0	0
57523	0	0	0	0	0	9.761639	-0.390896	-1.118853	0.005723	0.001326	0.002874	-0.909912	0.533203	0.053955	0.566828	-0.414306	-0.620684	-0.349009	-162.247582	-83.137545	96.782967	-0.014112	0.118650	0.992836	0.909963	0.413086	-0.036432	-0.414449	0.902930	-0.113797	0	0	0
57524	0	0	0	0	0	9.740018	-0.377349	-1.141755	0.001541	0.003046	0.000290	-0.915527	0.526367	0.063721	0.566829	-0.414315	-0.620676	-0.349011	-162.240333	-83.137493	96.774693	-0.014095	0.118653	0.992836	0.909970	0.413069	-0.036447	-0.414434	0.902937	-0.113793	0	0	0
57525	0	0	0	0	0	9.749220	-0.370140	-1.119927	0.000794	0.004341	-0.001267	-0.910645	0.534424	0.057129	0.566831	-0.414318	-0.620667	-0.349022	-162.238689	-83.138577	96.771749	-0.014087	0.118635	0.992838	0.909979	0.413049	-0.036444	-0.414414	0.902949	-0.113774	0	0	0
57526	0	0	0	0	0	9.709329	-0.370625	-1.185515	0.003484	0.005211	-0.001797	-0.913330	0.535156	0.054199	0.566839	-0.414311	-0.620661	-0.349027	-162.236257	-83.140081	96.769541	-0.014079	0.118610	0.992841	0.909978	0.413053	-0.036441	-0.414418	0.902950	-0.113748	0	0	0
57527	0	0	0	0	0	9.702404	-0.397866	-1.117551	0.008815	0.001317	-0.000032	-0.908936	0.522461	0.059326	0.566850	-0.414301	-0.620671	-0.349003	-162.228809	-83.139299	96.765380	-0.014072	0.118624	0.992840	0.909954	0.413104	-0.036460	-0.414471	0.902925	-0.113756	0	0	0
57528	0	0	0	0	0	9.727718	-0.356306	-1.141921	0.006919	0.004787	-0.000770	-0.907471	0.529541	0.062744	0.566868	-0.414285	-0.620671	-0.348992	-162.220193	-83.140469	96.759310	-0.014057	0.118605	0.992842	0.909935	0.413144	-0.036471	-0.414512	0.902909	-0.113731	0	0	0
57529	0	0	0	0	0	9.759109	-0.366880	-1.151509	0.004218	0.000004	-0.000460	-0.908691	0.526611	0.055664	0.566864	-0.414289	-0.620679	-0.348981	-162.219231	-83.139046	96.759029	-0.014060	0.118630	0.992839	0.909930	0.413154	-0.036480	-0.414523	0.902901	-0.113754	0	0	0
57530	0	0	0	0	0	9.752729	-0.398223	-1.138137	0.003448	0.003488	0.001248	-0.911377	0.529541	0.053223	0.566873	-0.414294	-0.620671	-0.348974	-162.205354	-83.139088	96.745368	-0.014031	0.118633	0.992839	0.909928	0.413155	-0.036508	-0.414528	0.902900	-0.113744	0	0	0
57531	0	0	0	0	0	9.731129	-0.384481	-1.160981	0.006161	0.002170	-0.002547	-0.916748	0.533691	0.059814	0.566877	-0.414281	-0.620680	-0.348968	-162.209593	-83.139212	96.751446	-0.014044	0.118629	0.992839	0.909915	0.413185	-0.036499	-0.414556	0.902887	-0.113745	0	0	0
57532	0	0	0	0	0	9.721435	-0.387578	-1.127736	0.001540	0.003046	0.000290	-0.905273	0.535400	0.057373	0.566880	-0.414288	-0.620673	-0.348967	-162.201568	-83.139245	96.742884	-0.014026	0.118631	0.992839	0.909919	0.413176	-0.036514	-0.414549	0.902891	-0.113739	0	0	0
57533	0	0	0	0	0	9.721469	-0.387567	-1.127450	0.003850	0.002608	-0.001129	-0.910645	0.528809	0.054932	0.566882	-0.414286	-0.620674	-0.348964	-162.200060	-83.139359	96.741840	-0.014024	0.118629	0.992840	0.909916	0.413183	-0.036517	-0.414556	0.902888	-0.113737	0	0	0
57534	0	0	0	0	0	9.722097	-0.391264	-1.181580	0.004289	0.003451	-0.006551	-0.907471	0.524902	0.062012	0.566881	-0.414263	-0.620684	-0.348975	-162.220176	-83.140781	96.763203	-0.014065	0.118599	0.992843	0.909907	0.413206	-0.036469	-0.414574	0.902881	-0.113726	0	0	0
57535	0	0	0	0	0	9.709095	-0.366089	-1.128381	0.004608	0.005226	0.000650	-0.907959	0.529541	0.060059	0.566896	-0.414259	-0.620675	-0.348970	-162.206359	-83.142012	96.750199	-0.014035	0.118581	0.992845	0.909901	0.413218	-0.036490	-0.414589	0.902878	-0.113697	0	0	0
57536	0	0	0	0	0	9.740515	-0.376659	-1.137737	0.000794	0.004341	-0.001268	-0.913574	0.524414	0.063965	0.566897	-0.414264	-0.620665	-0.348981	-162.204436	-83.142920	96.746829	-0.014027	0.118566	0.992847	0.909911	0.413195	-0.036489	-0.414566	0.902891	-0.113681	0	0	0
57537	0	0	0	0	0	9.730831	-0.379828	-1.104333	0.001919	0.004355	0.001179	-0.912354	0.532715	0.059814	0.566905	-0.414271	-0.620653	-0.348982	-162.191020	-83.143583	96.732677	-0.013996	0.118558	0.992848	0.909916	0.413183	-0.036512	-0.414556	0.902898	-0.113661	0	0	0
57538	0	0	0	0	0	9.731462	-0.383825	-1.158401	0.004632	0.003037	-0.002616	-0.909424	0.528809	0.054932	0.566907	-0.414263	-0.620656	-0.348982	-162.195255	-83.144016	96.737658	-0.014005	0.118550	0.992849	0.909911	0.413195	-0.036502	-0.414568	0.902893	-0.113657	0	0	0
57539	0	0	0	0	0	9.721765	-0.386846	-1.125143	-0.000367	0.002603	-0.000669	-0.907715	0.531982	0.056396	0.566902	-0.414274	-0.620648	-0.348991	-162.194082	-83.144047	96.734518	-0.013999	0.118550	0.992849	0.909925	0.413164	-0.036504	-0.414537	0.902907	-0.113655	0	0	0
57540	0	0	0	0	0	9.737967	-0.352240	-1.170818	0.005425	0.007378	-0.003883	-0.907471	0.531982	0.059326	0.566919	-0.414249	-0.620645	-0.348999	-162.196063	-83.147167	96.738325	-0.014000	0.118495	0.992856	0.909911	0.413195	-0.036483	-0.414566	0.902900	-0.113605	0	0	0
57541	0	0	0	0	0	9.728295	-0.355205	-1.137341	0.003850	0.002609	-0.001128	-0.905762	0.523926	0.055664	0.566922	-0.414247	-0.620645	-0.348996	-162.194548	-83.147282	96.737275	-0.013998	0.118494	0.992856	0.909908	0.413202	-0.036486	-0.414574	0.902897	-0.113602	0	0	0
57542	0	0	0	0	0	9.721939	-0.386371	-1.123798	0.000793	0.004341	-0.001267	-0.903564	0.522705	0.056641	0.566924	-0.414250	-0.620637	-0.349005	-162.192130	-83.148252	96.733766	-0.013989	0.118478	0.992858	0.909916	0.413185	-0.036485	-0.414557	0.902907	-0.113585	0	0	0
57543	0	0	0	0	0	9.753357	-0.396837	-1.133232	0.002321	0.003475	-0.001198	-0.916260	0.533203	0.066162	0.566926	-0.414250	-0.620632	-0.349010	-162.190544	-83.148851	96.731762	-0.013983	0.118468	0.992859	0.909919	0.413179	-0.036485	-0.414551	0.902911	-0.113574	0	0	0
57544	0	0	0	0	0	9.762532	-0.389579	-1.111497	0.005378	0.001743	-0.001058	-0.910156	0.524902	0.059326	0.566928	-0.414247	-0.620637	-0.349000	-162.188944	-83.148299	96.731316	-0.013984	0.118478	0.992858	0.909910	0.413197	-0.036491	-0.414569	0.902902	-0.113582	0	0	0
57545	0	0	0	0	0	9.703779	-0.400399	-1.165800	0.005414	0.003466	-0.004103	-0.907227	0.535156	0.062256	0.566932	-0.414229	-0.620644	-0.349003	-162.198792	-83.149402	96.742612	-0.014005	0.118456	0.992861	0.909900	0.413222	-0.036466	-0.414591	0.902893	-0.113570	0	0	0
57546	0	0	0	0	0	9.725148	-0.326473	-1.116064	0.006906	0.000877	-0.000987	-0.906494	0.534668	0.064697	0.566935	-0.414224	-0.620654	-0.348987	-162.196704	-83.148358	96.742609	-0.014007	0.118474	0.992858	0.909885	0.413254	-0.036476	-0.414624	0.902876	-0.113586	0	0	0
57547	0	0	0	0	0	9.712967	-0.392953	-1.144021	0.000782	0.000428	-0.001488	-0.912354	0.531494	0.063965	0.566924	-0.414233	-0.620656	-0.348990	-162.201759	-83.147346	96.746406	-0.014017	0.118490	0.992856	0.909894	0.413234	-0.036471	-0.414603	0.902883	-0.113606	0	0	0
57548	0	0	0	0	0	9.718793	-0.357468	-1.102568	0.003103	0.003903	-0.002685	-0.911133	0.527588	0.063477	0.566924	-0.414230	-0.620653	-0.348998	-162.204922	-83.148158	96.749108	-0.014021	0.118476	0.992858	0.909898	0.413227	-0.036460	-0.414596	0.902888	-0.113594	0	0	0
57549	0	0	0	0	0	9.731902	-0.382454	-1.155152	0.002653	-0.000851	0.002517	-0.903809	0.530029	0.055664	0.566920	-0.414249	-0.620654	-0.348982	-162.192591	-83.145747	96.736473	-0.013999	0.118520	0.992853	0.909900	0.413219	-0.036498	-0.414592	0.902886	-0.113626	0	0	0
57550	0	0	0	0	0	9.722169	-0.385579	-1.122084	0.002725	0.002594	-0.003574	-0.911133	0.526123	0.057617	0.566916	-0.414243	-0.620658	-0.348989	-162.202159	-83.146125	96.745942	-0.014018	0.118511	0.992854	0.909901	0.413219	-0.036477	-0.414589	0.902887	-0.113626	0	0	0
57551	0	0	0	0	0	9.741091	-0.375100	-1.133310	0.001539	0.003047	0.000290	-0.913330	0.528564	0.056885	0.566918	-0.414251	-0.620650	-0.348990	-162.194894	-83.146230	96.737766	-0.014001	0.118512	0.992854	0.909907	0.413204	-0.036491	-0.414576	0.902894	-0.113620	0	0	0
57552	0	0	0	0	0	9.731987	-0.382231	-1.154514	0.001943	0.002166	-0.002086	-0.905029	0.533936	0.055176	0.566914	-0.414250	-0.620651	-0.348994	-162.199365	-83.146200	96.741938	-0.014010	0.118511	0.992854	0.909909	0.413200	-0.036482	-0.414570	0.902896	-0.113623	0	0	0
57553	0	0	0	0	0	9.747554	-0.343653	-1.146020	-0.000368	0.002603	-0.000669	-0.909912	0.525879	0.061035	0.566909	-0.414261	-0.620644	-0.349003	-162.198193	-83.146231	96.738799	-0.014003	0.118511	0.992854	0.909924	0.413168	-0.036484	-0.414540	0.902910	-0.113622	0	0	0
57554	0	0	0	0	0	9.716507	-0.420456	-1.162390	0.000782	0.000428	-0.001488	-0.906738	0.526611	0.067139	0.566898	-0.414271	-0.620646	-0.349005	-162.202246	-83.145086	96.741745	-0.014012	0.118530	0.992852	0.909932	0.413151	-0.036482	-0.414521	0.902916	-0.113643	0	0	0
57555	0	0	0	0	0	9.744529	-0.402858	-1.152449	0.001528	-0.000866	0.000070	-0.910889	0.527100	0.065186	0.566888	-0.414285	-0.620650	-0.348999	-162.201687	-83.143095	96.740317	-0.014013	0.118565	0.992847	0.909938	0.413135	-0.036494	-0.414507	0.902918	-0.113676	0	0	0
57556	0	0	0	0	0	9.732059	-0.381973	-1.153988	0.004227	0.003918	-0.000238	-0.906738	0.530273	0.058350	0.566893	-0.414287	-0.620644	-0.348998	-162.194293	-83.143488	96.732868	-0.013997	0.118560	0.992848	0.909938	0.413134	-0.036506	-0.414507	0.902920	-0.113665	0	0	0
57557	0	0	0	0	0	9.744593	-0.402626	-1.151991	0.007345	0.001719	-0.006408	-0.906982	0.529053	0.055664	0.566891	-0.414260	-0.620664	-0.348998	-162.216029	-83.144041	96.757253	-0.014046	0.118544	0.992849	0.909920	0.413179	-0.036460	-0.414547	0.902901	-0.113669	0	0	0
57558	0	0	0	0	0	9.731527	-0.377236	-1.099073	0.000036	0.001722	-0.003046	-0.903320	0.526611	0.059814	0.566881	-0.414263	-0.620665	-0.349008	-162.225576	-83.143899	96.765435	-0.014063	0.118545	0.992849	0.909930	0.413158	-0.036442	-0.414524	0.902910	-0.113678	0	0	0
57559	0	0	0	0	0	9.734925	-0.405088	-1.118547	0.007319	0.003910	-0.003142	-0.905762	0.529053	0.059082	0.566892	-0.414243	-0.620672	-0.349003	-162.229324	-83.145075	96.771688	-0.014074	0.118523	0.992852	0.909912	0.413199	-0.036428	-0.414563	0.902895	-0.113661	0	0	0
57560	0	0	0	0	0	9.735601	-0.408819	-1.172615	0.007723	0.003029	-0.005519	-0.902100	0.520020	0.057129	0.566896	-0.414216	-0.620687	-0.349001	-162.244066	-83.146024	96.789261	-0.014108	0.118503	0.992854	0.909892	0.413247	-0.036394	-0.414606	0.902876	-0.113655	0	0	0
57561	0	0	0	0	0	9.719797	-0.359430	-1.154300	0.008469	0.001735	-0.003960	-0.905762	0.524170	0.061279	0.566901	-0.414193	-0.620704	-0.348990	-162.254034	-83.146156	96.802442	-0.014135	0.118497	0.992854	0.909869	0.413299	-0.036374	-0.414656	0.902852	-0.113659	0	0	0
57562	0	0	0	0	0	9.723198	-0.387247	-1.173816	0.006940	0.002601	-0.004031	-0.908203	0.536865	0.059326	0.566904	-0.414173	-0.620716	-0.348986	-162.264077	-83.146650	96.814875	-0.014160	0.118485	0.992855	0.909852	0.413339	-0.036351	-0.414692	0.902836	-0.113657	0	0	0
57563	0	0	0	0	0	9.713489	-0.390011	-1.140590	0.005034	0.002157	-0.004990	-0.907959	0.532471	0.053467	0.566901	-0.414157	-0.620728	-0.348990	-162.280079	-83.147191	96.832151	-0.014194	0.118472	0.992856	0.909843	0.413361	-0.036316	-0.414711	0.902827	-0.113658	0	0	0
57564	0	0	0	0	0	9.754043	-0.392934	-1.128678	0.013466	0.002170	-0.005904	-0.908936	0.530029	0.051025	0.566916	-0.414113	-0.620757	-0.348967	-162.293374	-83.147771	96.851892	-0.014234	0.118457	0.992857	0.909796	0.413465	-0.036287	-0.414811	0.902781	-0.113657	0	0	0
57565	0	0	0	0	0	9.740956	-0.367366	-1.075857	0.006587	-0.000899	-0.008183	-0.909668	0.529541	0.059814	0.566901	-0.414087	-0.620787	-0.348969	-162.327421	-83.147198	96.888240	-0.014310	0.118458	0.992856	0.909781	0.413506	-0.036223	-0.414843	0.902763	-0.113688	0	0	0
57566	0	0	0	0	0	9.729116	-0.350034	-1.131907	0.002723	0.002594	-0.003573	-0.905273	0.529541	0.065918	0.566899	-0.414079	-0.620791	-0.348974	-162.336645	-83.147663	96.897810	-0.014329	0.118447	0.992857	0.909778	0.413513	-0.036202	-0.414847	0.902761	-0.113686	0	0	0
57567	0	0	0	0	0	9.706910	-0.331872	-1.100367	0.003505	0.003023	-0.005061	-0.899170	0.528320	0.053467	0.566895	-0.414064	-0.620798	-0.348984	-162.352599	-83.148687	96.914155	-0.014361	0.118426	0.992859	0.909776	0.413522	-0.036165	-0.414851	0.902760	-0.113679	0	0	0
57568	0	0	0	0	0	9.720082	-0.356370	-1.152850	-0.001089	0.001706	-0.005492	-0.908203	0.524170	0.055908	0.566877	-0.414066	-0.620801	-0.349006	-162.373750	-83.148870	96.933018	-0.014399	0.118418	0.992859	0.909793	0.413488	-0.036122	-0.414813	0.902776	-0.113690	0	0	0
57569	0	0	0	0	0	9.732623	-0.376953	-1.150879	0.002319	0.003476	-0.001197	-0.907959	0.531006	0.062256	0.566879	-0.414066	-0.620797	-0.349011	-162.372176	-83.149470	96.931025	-0.014394	0.118408	0.992861	0.909796	0.413481	-0.036122	-0.414807	0.902781	-0.113679	0	0	0
57570	0	0	0	0	0	9.710389	-0.359020	-1.119486	0.004620	-0.000874	-0.002832	-0.912354	0.531494	0.062500	0.566870	-0.414063	-0.620812	-0.349002	-162.382505	-83.147837	96.942395	-0.014421	0.118433	0.992857	0.909789	0.413498	-0.036110	-0.414821	0.902770	-0.113712	0	0	0
57571	0	0	0	0	0	9.732286	-0.288944	-1.124507	0.006183	-0.000017	-0.005806	-0.909424	0.532471	0.066650	0.566861	-0.414044	-0.620834	-0.349000	-162.404703	-83.147329	96.966575	-0.014472	0.118436	0.992856	0.909775	0.413532	-0.036068	-0.414850	0.902754	-0.113735	0	0	0
57572	0	0	0	0	0	9.757304	-0.330656	-1.120952	-0.000026	0.002191	0.003264	-0.912109	0.537109	0.055908	0.566860	-0.414072	-0.620818	-0.348998	-162.385429	-83.146176	96.944833	-0.014429	0.118461	0.992854	0.909792	0.413490	-0.036113	-0.414813	0.902770	-0.113741	0	0	0
57573	0	0	0	0	0	9.741821	-0.369137	-1.128992	0.000035	0.001722	-0.003046	-0.904297	0.534912	0.061279	0.566848	-0.414076	-0.620818	-0.349011	-162.396093	-83.146138	96.953848	-0.014448	0.118460	0.992854	0.909804	0.413465	-0.036092	-0.414786	0.902781	-0.113749	0	0	0
57574	0	0	0	0	0	9.741845	-0.368851	-1.128872	-0.002652	0.000849	-0.002518	-0.908203	0.532227	0.057373	0.566830	-0.414092	-0.620815	-0.349027	-162.405053	-83.145348	96.959670	-0.014462	0.118472	0.992852	0.909827	0.413416	-0.036078	-0.414735	0.902802	-0.113767	0	0	0
57575	0	0	0	0	0	9.732749	-0.376018	-1.150121	0.003443	0.003492	0.001250	-0.906250	0.528564	0.057373	0.566839	-0.414097	-0.620807	-0.349021	-162.391697	-83.145533	96.946459	-0.014434	0.118472	0.992853	0.909826	0.413416	-0.036104	-0.414739	0.902802	-0.113756	0	0	0
57576	0	0	0	0	0	9.723018	-0.379254	-1.116870	-0.001151	0.002175	0.000817	-0.917236	0.530762	0.060791	0.566834	-0.414116	-0.620797	-0.349025	-162.383625	-83.144953	96.936158	-0.014414	0.118484	0.992851	0.909842	0.413380	-0.036123	-0.414705	0.902817	-0.113761	0	0	0
57577	0	0	0	0	0	9.754413	-0.389898	-1.126528	0.001906	0.000445	0.000960	-0.906006	0.527344	0.063477	0.566830	-0.414129	-0.620796	-0.349018	-162.376864	-83.143523	96.928702	-0.014402	0.118511	0.992848	0.909847	0.413367	-0.036144	-0.414694	0.902819	-0.113780	0	0	0
57578	0	0	0	0	0	9.732797	-0.376328	-1.149614	0.004593	0.001317	0.000432	-0.905029	0.526855	0.059570	0.566832	-0.414134	-0.620797	-0.349007	-162.369575	-83.142468	96.922004	-0.014390	0.118531	0.992846	0.909843	0.413375	-0.036164	-0.414704	0.902813	-0.113793	0	0	0
57579	0	0	0	0	0	9.720315	-0.355455	-1.151170	0.005375	0.001746	-0.001055	-0.910889	0.534668	0.062256	0.566835	-0.414129	-0.620803	-0.348997	-162.368099	-83.142098	96.921872	-0.014390	0.118537	0.992845	0.909833	0.413396	-0.036169	-0.414725	0.902803	-0.113798	0	0	0
57580	0	0	0	0	0	9.742600	-0.373249	-1.182219	-0.001151	0.002175	0.000817	-0.909668	0.531494	0.057617	0.566829	-0.414150	-0.620791	-0.349003	-162.360319	-83.141441	96.911476	-0.014370	0.118551	0.992844	0.909852	0.413353	-0.036187	-0.414685	0.902821	-0.113804	0	0	0
57581	0	0	0	0	0	9.741983	-0.369378	-1.127511	0.000351	0.003501	0.004153	-0.906738	0.531006	0.058105	0.566836	-0.414172	-0.620772	-0.348999	-162.335551	-83.141125	96.884986	-0.014316	0.118563	0.992843	0.909863	0.413322	-0.036238	-0.414661	0.902833	-0.113793	0	0	0
57582	0	0	0	0	0	9.751770	-0.366442	-1.160223	0.001159	0.001738	-0.000599	-0.913574	0.524658	0.064209	0.566832	-0.414181	-0.620770	-0.348999	-162.333228	-83.140542	96.881768	-0.014311	0.118574	0.992842	0.909870	0.413307	-0.036246	-0.414647	0.902838	-0.113802	0	0	0
57583	0	0	0	0	0	9.695772	-0.401564	-1.180037	0.004216	0.000008	-0.000456	-0.904785	0.537109	0.063721	0.566829	-0.414184	-0.620777	-0.348988	-162.332212	-83.139120	96.881432	-0.014313	0.118598	0.992839	0.909865	0.413317	-0.036255	-0.414657	0.902831	-0.113824	0	0	0
57584	0	0	0	0	0	9.673515	-0.383773	-1.148737	0.002687	0.000873	-0.000527	-0.910889	0.528320	0.057129	0.566823	-0.414194	-0.620778	-0.348985	-162.330589	-83.137922	96.879117	-0.014311	0.118620	0.992837	0.909870	0.413305	-0.036265	-0.414646	0.902833	-0.113843	0	0	0
57585	0	0	0	0	0	9.742047	-0.369542	-1.126903	0.001537	0.003048	0.000290	-0.911865	0.525391	0.061279	0.566824	-0.414202	-0.620770	-0.348987	-162.323333	-83.138029	96.870949	-0.014294	0.118620	0.992837	0.909877	0.413290	-0.036279	-0.414633	0.902840	-0.113837	0	0	0
57586	0	0	0	0	0	9.751851	-0.366405	-1.159548	0.002319	0.003476	-0.001197	-0.909668	0.522949	0.055908	0.566826	-0.414202	-0.620766	-0.348990	-162.321851	-83.138521	96.869153	-0.014289	0.118612	0.992838	0.909879	0.413285	-0.036279	-0.414628	0.902844	-0.113828	0	0	0
57587	0	0	0	0	0	9.826492	-0.404270	-1.122811	0.001528	-0.000865	0.000072	-0.906006	0.530273	0.067139	0.566816	-0.414216	-0.620770	-0.348984	-162.321248	-83.136530	96.867681	-0.014290	0.118646	0.992834	0.909885	0.413270	-0.036291	-0.414614	0.902846	-0.113860	0	0	0
57588	0	0	0	0	0	9.782629	-0.372827	-1.114553	0.006911	0.004794	-0.000764	-0.901123	0.527832	0.056396	0.566831	-0.414204	-0.620768	-0.348976	-162.313102	-83.137594	96.861538	-0.014275	0.118630	0.992836	0.909870	0.413301	-0.036301	-0.414647	0.902834	-0.113837	0	0	0
57589	0	0	0	0	0	9.714157	-0.386952	-1.135940	0.003092	-0.000009	-0.002902	-0.909912	0.528809	0.062988	0.566821	-0.414203	-0.620779	-0.348975	-162.323855	-83.136588	96.872406	-0.014300	0.118644	0.992834	0.909870	0.413304	-0.036285	-0.414647	0.902831	-0.113861	0	0	0
57590	0	0	0	0	0	9.705067	-0.394129	-1.157181	0.001914	0.004358	0.001178	-0.910400	0.533203	0.063965	0.566829	-0.414212	-0.620766	-0.348975	-162.309668	-83.137094	96.857481	-0.014268	0.118639	0.992835	0.909875	0.413291	-0.036311	-0.414637	0.902837	-0.113844	0	0	0
57591	0	0	0	0	0	9.630497	-0.356137	-1.193412	0.001195	0.003460	-0.003644	-0.908691	0.525391	0.058594	0.566824	-0.414208	-0.620765	-0.348989	-162.319857	-83.138110	96.866687	-0.014285	0.118619	0.992837	0.909882	0.413277	-0.036285	-0.414621	0.902846	-0.113833	0	0	0
57592	0	0	0	0	0	9.724714	-0.387580	-1.222351	0.000790	0.004341	-0.001269	-0.909180	0.525879	0.065918	0.566825	-0.414212	-0.620755	-0.349000	-162.317806	-83.139011	96.863173	-0.014275	0.118605	0.992839	0.909893	0.413254	-0.036285	-0.414598	0.902859	-0.113817	0	0	0
57593	0	0	0	0	0	9.764600	-0.386646	-1.155938	0.007684	0.001309	-0.002468	-0.909668	0.530762	0.060547	0.566829	-0.414197	-0.620768	-0.348987	-162.322055	-83.138649	96.870141	-0.014291	0.118609	0.992838	0.909873	0.413298	-0.036278	-0.414641	0.902838	-0.113826	0	0	0
57594	0	0	0	0	0	9.804485	-0.385650	-1.089530	0.007315	0.003913	-0.003139	-0.902588	0.528076	0.061523	0.566838	-0.414180	-0.620775	-0.348983	-162.325692	-83.139601	96.875902	-0.014301	0.118592	0.992840	0.909858	0.413332	-0.036266	-0.414674	0.902825	-0.113812	0	0	0
57595	0	0	0	0	0	9.792042	-0.364514	-1.090809	0.010002	0.004786	-0.003665	-0.913086	0.533203	0.059082	0.566855	-0.414148	-0.620785	-0.348973	-162.329017	-83.141345	96.883276	-0.014312	0.118560	0.992844	0.909828	0.413398	-0.036250	-0.414738	0.902799	-0.113786	0	0	0
57596	0	0	0	0	0	9.714496	-0.385655	-1.133477	0.001976	0.003887	-0.005131	-0.909180	0.526367	0.057617	0.566851	-0.414138	-0.620787	-0.348989	-162.343935	-83.142671	96.897629	-0.014339	0.118533	0.992847	0.909833	0.413392	-0.036214	-0.414727	0.902805	-0.113773	0	0	0
57597	0	0	0	0	0	9.671324	-0.357823	-1.179563	0.001599	0.002577	-0.006019	-0.910156	0.527100	0.055908	0.566840	-0.414127	-0.620793	-0.349008	-162.365964	-83.143617	96.918992	-0.014381	0.118512	0.992849	0.909838	0.413385	-0.036165	-0.414714	0.902811	-0.113771	0	0	0
57598	0	0	0	0	0	9.643392	-0.374820	-1.189187	-0.001458	0.004307	-0.006163	-0.906982	0.528564	0.064453	0.566830	-0.414120	-0.620792	-0.349037	-162.387634	-83.145471	96.938612	-0.014418	0.118475	0.992852	0.909853	0.413356	-0.036112	-0.414680	0.902829	-0.113754	0	0	0
57599	0	0	0	0	0	9.724468	-0.380939	-1.165325	0.002353	0.005198	-0.004242	-0.899170	0.522949	0.053955	0.566832	-0.414107	-0.620788	-0.349054	-162.397394	-83.147539	96.948053	-0.014433	0.118437	0.992857	0.909856	0.413353	-0.036082	-0.414674	0.902835	-0.113726	0	0	0
57600	0	0	0	0	0	9.793023	-0.366366	-1.143241	0.008842	0.003049	-0.003065	-0.912842	0.526855	0.061523	0.566843	-0.414085	-0.620801	-0.349041	-162.400548	-83.148077	96.954640	-0.014446	0.118426	0.992858	0.909831	0.413408	-0.036073	-0.414728	0.902812	-0.113720	0	0	0
57601	0	0	0	0	0	9.820390	-0.344305	-1.078526	0.007718	0.003032	-0.005512	-0.910889	0.527588	0.065430	0.566847	-0.414057	-0.620816	-0.349040	-162.416134	-83.149182	96.973045	-0.014481	0.118402	0.992860	0.909811	0.413456	-0.036036	-0.414771	0.902793	-0.113711	0	0	0
57602	0	0	0	0	0	9.792451	-0.361496	-1.088142	0.005408	0.003469	-0.004097	-0.906250	0.527344	0.053711	0.566848	-0.414043	-0.620822	-0.349044	-162.426351	-83.150065	96.984299	-0.014503	0.118384	0.992862	0.909803	0.413474	-0.036011	-0.414786	0.902787	-0.113703	0	0	0
57603	0	0	0	0	0	9.711505	-0.354614	-1.111180	0.003098	0.003905	-0.002683	-0.908936	0.526611	0.059570	0.566851	-0.414036	-0.620821	-0.349051	-162.430471	-83.151157	96.988491	-0.014509	0.118364	0.992864	0.909803	0.413476	-0.035997	-0.414787	0.902788	-0.113688	0	0	0
57604	0	0	0	0	0	9.702458	-0.361508	-1.132272	-0.006455	0.003869	-0.004223	-0.916748	0.536133	0.064697	0.566832	-0.414049	-0.620807	-0.349089	-162.446512	-83.152419	96.999546	-0.014529	0.118340	0.992867	0.909839	0.413400	-0.035959	-0.414707	0.902827	-0.113677	0	0	0
57605	0	0	0	0	0	9.675198	-0.382863	-1.196402	0.000035	0.001721	-0.003045	-0.910400	0.531738	0.058594	0.566821	-0.414053	-0.620807	-0.349102	-162.457182	-83.152380	97.008567	-0.014548	0.118338	0.992867	0.909851	0.413375	-0.035938	-0.414679	0.902838	-0.113684	0	0	0
57606	0	0	0	0	0	9.715751	-0.385703	-1.184402	-0.001458	0.004307	-0.006163	-0.908691	0.529785	0.062500	0.566808	-0.414050	-0.620804	-0.349134	-162.478207	-83.154078	97.026922	-0.014582	0.118304	0.992870	0.909871	0.413336	-0.035887	-0.414635	0.902861	-0.113669	0	0	0
57607	0	0	0	0	0	9.768152	-0.405238	-1.116037	0.006566	0.005208	-0.004695	-0.903809	0.525879	0.064941	0.566818	-0.414025	-0.620809	-0.349138	-162.487636	-83.156228	97.038461	-0.014602	0.118265	0.992875	0.909856	0.413372	-0.035857	-0.414668	0.902849	-0.113640	0	0	0
57608	0	0	0	0	0	9.790049	-0.335172	-1.120711	0.008464	0.001741	-0.003951	-0.911133	0.522217	0.050293	0.566820	-0.414006	-0.620824	-0.349128	-162.497167	-83.156095	97.050716	-0.014627	0.118264	0.992874	0.909836	0.413417	-0.035839	-0.414709	0.902829	-0.113648	0	0	0
57609	0	0	0	0	0	9.783720	-0.366036	-1.107202	0.003503	0.003024	-0.005057	-0.908203	0.525391	0.058594	0.566817	-0.413992	-0.620831	-0.349139	-162.513146	-83.157113	97.067085	-0.014659	0.118242	0.992877	0.909834	0.413425	-0.035802	-0.414714	0.902828	-0.113641	0	0	0
57610	0	0	0	0	0	9.721662	-0.348717	-1.141813	0.001193	0.003460	-0.003643	-0.904541	0.538574	0.056885	0.566815	-0.413984	-0.620832	-0.349151	-162.523438	-83.158138	97.077070	-0.014677	0.118222	0.992879	0.909836	0.413422	-0.035776	-0.414708	0.902832	-0.113630	0	0	0
57611	0	0	0	0	0	9.655962	-0.386568	-1.128484	-0.002617	0.002568	-0.005565	-0.909424	0.519043	0.055176	0.566796	-0.413986	-0.620831	-0.349181	-162.545900	-83.158993	97.096437	-0.014715	0.118202	0.992881	0.909859	0.413377	-0.035727	-0.414657	0.902855	-0.113630	0	0	0
57612	0	0	0	0	0	9.716094	-0.383260	-1.182379	0.003097	0.003906	-0.002682	-0.910645	0.531494	0.048096	0.566800	-0.413978	-0.620830	-0.349185	-162.548869	-83.160003	97.099892	-0.014720	0.118184	0.992883	0.909855	0.413385	-0.035716	-0.414664	0.902854	-0.113615	0	0	0
57613	0	0	0	0	0	9.706375	-0.386042	-1.148915	0.005036	0.006074	-0.004766	-0.906006	0.525635	0.051270	0.566810	-0.413955	-0.620831	-0.349196	-162.558293	-83.162636	97.110544	-0.014737	0.118136	0.992888	0.909847	0.413408	-0.035684	-0.414683	0.902850	-0.113578	0	0	0
57614	0	0	0	0	0	9.774909	-0.371363	-1.126821	0.008464	0.001742	-0.003950	-0.915283	0.521729	0.046875	0.566819	-0.413926	-0.620850	-0.349179	-162.566767	-83.162840	97.123403	-0.014763	0.118129	0.992889	0.909815	0.413478	-0.035666	-0.414751	0.902818	-0.113580	0	0	0
57615	0	0	0	0	0	9.790409	-0.332496	-1.118355	0.007716	0.003035	-0.005509	-0.907715	0.525635	0.061523	0.566824	-0.413898	-0.620865	-0.349178	-162.582401	-83.163939	97.141855	-0.014798	0.118105	0.992891	0.909795	0.413526	-0.035629	-0.414794	0.902800	-0.113571	0	0	0
57616	0	0	0	0	0	9.759045	-0.321589	-1.108364	0.004249	0.001732	-0.003497	-0.904053	0.528564	0.058594	0.566822	-0.413885	-0.620876	-0.349176	-162.592959	-83.163999	97.153856	-0.014823	0.118101	0.992891	0.909785	0.413550	-0.035608	-0.414815	0.902789	-0.113577	0	0	0
57617	0	0	0	0	0	9.715654	-0.377339	-1.126331	0.000816	0.002149	-0.004531	-0.907471	0.530762	0.060303	0.566811	-0.413882	-0.620880	-0.349192	-162.609361	-83.164445	97.169101	-0.014853	0.118090	0.992892	0.909794	0.413534	-0.035573	-0.414795	0.902798	-0.113580	0	0	0
57618	0	0	0	0	0	9.712962	-0.352999	-1.160876	-0.004180	0.001710	-0.002593	-0.900879	0.524170	0.062500	0.566792	-0.413901	-0.620872	-0.349215	-162.619178	-83.164130	97.174777	-0.014866	0.118094	0.992891	0.909824	0.413469	-0.035555	-0.414729	0.902827	-0.113591	0	0	0
57619	0	0	0	0	0	9.706626	-0.383896	-1.147511	0.003873	0.000421	-0.004385	-0.906738	0.532471	0.062500	0.566782	-0.413892	-0.620885	-0.349218	-162.635629	-83.163606	97.191834	-0.014902	0.118098	0.992890	0.909820	0.413480	-0.035526	-0.414736	0.902822	-0.113610	0	0	0
57620	0	0	0	0	0	9.725548	-0.373239	-1.158786	0.003096	0.003907	-0.002682	-0.905029	0.526123	0.061523	0.566783	-0.413889	-0.620882	-0.349225	-162.638840	-83.164435	97.194697	-0.014906	0.118083	0.992892	0.909822	0.413476	-0.035515	-0.414730	0.902826	-0.113598	0	0	0
57621	0	0	0	0	0	9.762633	-0.348018	-1.127238	0.005025	-0.001754	-0.005200	-0.906494	0.526123	0.054932	0.566767	-0.413878	-0.620906	-0.349221	-162.661445	-83.162859	97.218617	-0.014959	0.118104	0.992889	0.909813	0.413498	-0.035478	-0.414748	0.902813	-0.113638	0	0	0
57622	0	0	0	0	0	9.752862	-0.350711	-1.094173	0.005406	0.003471	-0.004095	-0.905518	0.521240	0.056152	0.566771	-0.413861	-0.620913	-0.349223	-162.670731	-83.163822	97.229472	-0.014979	0.118085	0.992891	0.909802	0.413525	-0.035455	-0.414772	0.902803	-0.113628	0	0	0
57623	0	0	0	0	0	9.724936	-0.368299	-1.103765	0.001128	0.003933	0.002664	-0.905518	0.532715	0.062256	0.566779	-0.413876	-0.620897	-0.349221	-162.651590	-83.164013	97.209099	-0.014937	0.118087	0.992891	0.909811	0.413503	-0.035492	-0.414755	0.902813	-0.113613	0	0	0
57624	0	0	0	0	0	9.732045	-0.341219	-1.171142	-0.001494	0.002585	-0.003118	-0.910889	0.529053	0.061523	0.566767	-0.413884	-0.620893	-0.349239	-162.661509	-83.164294	97.216485	-0.014951	0.118080	0.992892	0.909829	0.413465	-0.035471	-0.414714	0.902831	-0.113614	0	0	0
57625	0	0	0	0	0	9.738240	-0.393221	-1.155919	0.000376	0.001311	0.000888	-0.907227	0.526123	0.058105	0.566762	-0.413900	-0.620886	-0.349239	-162.654637	-83.163354	97.208034	-0.014936	0.118098	0.992890	0.909840	0.413438	-0.035489	-0.414690	0.902841	-0.113626	0	0	0
57626	0	0	0	0	0	9.715925	-0.375407	-1.124630	0.004995	0.000440	-0.001937	-0.910645	0.532471	0.055908	0.566758	-0.413897	-0.620897	-0.349230	-162.658826	-83.162262	97.213346	-0.014949	0.118116	0.992887	0.909832	0.413456	-0.035487	-0.414706	0.902831	-0.113646	0	0	0
57627	0	0	0	0	0	9.734828	-0.365079	-1.135961	0.004966	0.002633	0.001325	-0.909424	0.525635	0.053955	0.566768	-0.413899	-0.620894	-0.349218	-162.645451	-83.161971	97.200994	-0.014925	0.118124	0.992887	0.909825	0.413470	-0.035515	-0.414724	0.902823	-0.113643	0	0	0
57628	0	0	0	0	0	9.743951	-0.357677	-1.114198	0.007715	0.003036	-0.005507	-0.905518	0.526123	0.057129	0.566774	-0.413869	-0.620911	-0.349213	-162.660107	-83.163018	97.218989	-0.014959	0.118101	0.992889	0.909801	0.413526	-0.035480	-0.414775	0.902800	-0.113635	0	0	0
57629	0	0	0	0	0	9.718925	-0.315805	-1.117540	-0.000406	0.000883	0.002374	-0.913818	0.527588	0.065674	0.566769	-0.413892	-0.620901	-0.349210	-162.647517	-83.161590	97.204329	-0.014932	0.118130	0.992886	0.909816	0.413490	-0.035512	-0.414744	0.902813	-0.113651	0	0	0
57630	0	0	0	0	0	9.725826	-0.372199	-1.156792	0.001157	0.001739	-0.000598	-0.908203	0.530273	0.062988	0.566763	-0.413903	-0.620898	-0.349213	-162.646291	-83.160950	97.201783	-0.014928	0.118141	0.992885	0.909825	0.413469	-0.035518	-0.414723	0.902821	-0.113660	0	0	0
57631	0	0	0	0	0	9.734918	-0.364847	-1.135267	-0.001904	-0.000447	-0.000961	-0.911133	0.531494	0.066895	0.566744	-0.413923	-0.620897	-0.349222	-162.651667	-83.159365	97.204352	-0.014937	0.118168	0.992881	0.909846	0.413424	-0.035516	-0.414678	0.902838	-0.113690	0	0	0
57632	0	0	0	0	0	9.748170	-0.389846	-1.187906	-0.001528	0.000864	-0.000073	-0.904785	0.532227	0.060059	0.566730	-0.413947	-0.620889	-0.349231	-162.650297	-83.158047	97.199693	-0.014930	0.118192	0.992879	0.909870	0.413371	-0.035525	-0.414626	0.902860	-0.113711	0	0	0
57633	0	0	0	0	0	9.729313	-0.400084	-1.176221	0.000410	0.003032	-0.002157	-0.906982	0.523682	0.057129	0.566725	-0.413951	-0.620884	-0.349243	-162.654842	-83.158568	97.202761	-0.014936	0.118182	0.992880	0.909880	0.413348	-0.035514	-0.414602	0.902871	-0.113705	0	0	0
57634	0	0	0	0	0	9.738427	-0.392633	-1.154538	0.003467	0.001304	-0.002010	-0.906738	0.534912	0.061279	0.566721	-0.413950	-0.620890	-0.349240	-162.658493	-83.157973	97.206793	-0.014945	0.118191	0.992878	0.909878	0.413354	-0.035509	-0.414607	0.902867	-0.113717	0	0	0
57635	0	0	0	0	0	9.744083	-0.357108	-1.113227	0.001157	0.001739	-0.000598	-0.907715	0.527100	0.066895	0.566717	-0.413958	-0.620887	-0.349242	-162.657342	-83.157522	97.204555	-0.014942	0.118199	0.992877	0.909886	0.413337	-0.035514	-0.414590	0.902874	-0.113724	0	0	0
57636	0	0	0	0	0	9.735019	-0.364179	-1.134616	0.005401	-0.000442	-0.004310	-0.911865	0.535400	0.060303	0.566705	-0.413952	-0.620904	-0.349239	-162.672815	-83.156223	97.220965	-0.014978	0.118218	0.992875	0.909879	0.413353	-0.035490	-0.414603	0.902864	-0.113755	0	0	0
57637	0	0	0	0	0	9.707067	-0.381620	-1.144537	0.006899	0.000887	-0.000975	-0.907227	0.532227	0.054443	0.566709	-0.413944	-0.620914	-0.349223	-162.671304	-83.155369	97.221679	-0.014982	0.118232	0.992873	0.909863	0.413387	-0.035497	-0.414638	0.902847	-0.113768	0	0	0
57638	0	0	0	0	0	9.716158	-0.374325	-1.122978	-0.001528	0.000864	-0.000074	-0.912598	0.530029	0.057129	0.566698	-0.413964	-0.620908	-0.349228	-162.668774	-83.154213	97.216743	-0.014974	0.118253	0.992871	0.909881	0.413348	-0.035508	-0.414600	0.902862	-0.113786	0	0	0
57639	0	0	0	0	0	9.744859	-0.360815	-1.167369	0.004995	0.000440	-0.001936	-0.899414	0.531738	0.063721	0.566695	-0.413959	-0.620918	-0.349220	-162.673369	-83.153280	97.222507	-0.014988	0.118268	0.992869	0.909872	0.413366	-0.035504	-0.414618	0.902852	-0.113804	0	0	0
57640	0	0	0	0	0	9.747595	-0.384695	-1.132550	0.002685	0.000876	-0.000524	-0.910645	0.530029	0.057617	0.566691	-0.413968	-0.620920	-0.349214	-162.670911	-83.152138	97.219719	-0.014985	0.118288	0.992866	0.909875	0.413360	-0.035515	-0.414612	0.902852	-0.113821	0	0	0
57641	0	0	0	0	0	9.735089	-0.363773	-1.134147	0.003842	0.002615	-0.001122	-0.903320	0.526123	0.054199	0.566694	-0.413965	-0.620920	-0.349212	-162.669364	-83.152255	97.218632	-0.014982	0.118286	0.992866	0.909871	0.413367	-0.035517	-0.414620	0.902849	-0.113818	0	0	0
57642	0	0	0	0	0	9.753996	-0.353377	-1.145464	0.002685	0.000876	-0.000524	-0.902100	0.525146	0.061523	0.566691	-0.413970	-0.620924	-0.349205	-162.667238	-83.151245	97.216729	-0.014980	0.118304	0.992864	0.909870	0.413370	-0.035527	-0.414623	0.902845	-0.113834	0	0	0
57643	0	0	0	0	0	9.716243	-0.373938	-1.122374	0.001563	0.000857	-0.002971	-0.909912	0.526855	0.056885	0.566681	-0.413971	-0.620929	-0.349211	-162.677918	-83.150716	97.226641	-0.015002	0.118311	0.992863	0.909876	0.413359	-0.035508	-0.414610	0.902849	-0.113849	0	0	0
57644	0	0	0	0	0	9.744962	-0.360508	-1.166605	-0.003087	0.003921	0.003114	-0.909668	0.529053	0.059082	0.566680	-0.414000	-0.620905	-0.349220	-162.658763	-83.150683	97.203875	-0.014955	0.118317	0.992863	0.909901	0.413299	-0.035546	-0.414555	0.902876	-0.113838	0	0	0
57645	0	0	0	0	0	9.738641	-0.391840	-1.153006	0.003842	0.002615	-0.001122	-0.909180	0.530029	0.053223	0.566683	-0.413998	-0.620905	-0.349217	-162.657215	-83.150799	97.202786	-0.014953	0.118315	0.992863	0.909898	0.413306	-0.035549	-0.414563	0.902873	-0.113835	0	0	0
57646	0	0	0	0	0	9.704527	-0.357209	-1.177893	0.003091	-0.000007	-0.002898	-0.908691	0.531738	0.053711	0.566674	-0.413995	-0.620917	-0.349214	-162.666926	-83.149709	97.213014	-0.014976	0.118332	0.992861	0.909894	0.413315	-0.035535	-0.414569	0.902867	-0.113859	0	0	0
57647	0	0	0	0	0	9.735237	-0.363359	-1.133005	0.002314	0.003479	-0.001195	-0.912598	0.532959	0.057861	0.566677	-0.413995	-0.620912	-0.349218	-162.665362	-83.150311	97.211027	-0.014971	0.118322	0.992862	0.909897	0.413309	-0.035535	-0.414563	0.902871	-0.113848	0	0	0
57648	0	0	0	0	0	9.707320	-0.380790	-1.142666	0.002719	0.002596	-0.003569	-0.908203	0.526611	0.048340	0.566675	-0.413988	-0.620917	-0.349223	-162.674203	-83.150752	97.220191	-0.014989	0.118312	0.992863	0.909895	0.413315	-0.035515	-0.414567	0.902869	-0.113846	0	0	0
57649	0	0	0	0	0	9.726249	-0.370234	-1.153859	0.002313	0.003479	-0.001195	-0.911133	0.527100	0.063232	0.566677	-0.413988	-0.620912	-0.349227	-162.672638	-83.151354	97.218204	-0.014983	0.118302	0.992865	0.909898	0.413308	-0.035515	-0.414561	0.902874	-0.113835	0	0	0
57650	0	0	0	0	0	9.716471	-0.373240	-1.120630	0.005370	0.001752	-0.001048	-0.914795	0.527588	0.061768	0.566681	-0.413981	-0.620919	-0.349216	-162.670663	-83.150935	97.218020	-0.014984	0.118309	0.992864	0.909885	0.413336	-0.035522	-0.414589	0.902860	-0.113841	0	0	0
57651	0	0	0	0	0	9.735396	-0.362866	-1.131794	0.002689	0.004790	-0.000307	-0.916748	0.527100	0.064209	0.566690	-0.413981	-0.620909	-0.349219	-162.662975	-83.152102	97.210082	-0.014965	0.118291	0.992866	0.909887	0.413332	-0.035531	-0.414587	0.902864	-0.113817	0	0	0
57652	0	0	0	0	0	9.707471	-0.380436	-1.141501	0.000781	0.000428	-0.001486	-0.902588	0.526123	0.060791	0.566677	-0.413992	-0.620911	-0.349224	-162.668615	-83.150895	97.214114	-0.014976	0.118311	0.992864	0.909899	0.413307	-0.035526	-0.414560	0.902873	-0.113840	0	0	0
