// General information: 
//  MT Manager version: 2022.2.0 
//  XDA version: 2022.2.0 build 7381 rev 124627 built on 2023-07-19
// Device information: 
//  DeviceId: 10B426DD
//  ProductCode: MTW2-3A7G6
//  Firmware Version: 4.14.0
//  Hardware Version: 3.0.0
// Device settings: 
//  Filter Profile: human(46.1)
//  Option Flags: Orientation Smoother Disabled, Position/Velocity Smoother Disabled, Continuous Zero Rotation Update Disabled, AHS Disabled, ICC Disabled
// Coordinate system: ENU
PacketCounter	SampleTimeFine	Year	Month	Day	Second	Acc_X	Acc_Y	Acc_Z	Gyr_X	Gyr_Y	Gyr_Z	Mag_X	Mag_Y	Mag_Z	Quat_q0	Quat_q1	Quat_q2	Quat_q3	Roll	Pitch	Yaw	Mat[1][1]	Mat[2][1]	Mat[3][1]	Mat[1][2]	Mat[2][2]	Mat[3][2]	Mat[1][3]	Mat[2][3]	Mat[3][3]	Vel_E	Vel_N	Vel_U
57202	0	0	0	0	0	8.787117	0.200503	4.390386	-0.008131	-0.001068	0.002474	-1.076416	0.137207	-0.126465	0.145199	-0.517432	-0.105775	-0.836656	3.460039	-63.707122	-162.459254	-0.422363	-0.133501	0.896541	0.352427	-0.935457	0.026734	0.835107	0.327257	0.442152	0	0	0
57203	0	0	0	0	0	8.790985	0.239573	4.404624	-0.008483	0.000743	0.002016	-1.083008	0.134521	-0.126221	0.145177	-0.517433	-0.105724	-0.836666	3.452023	-63.706120	-162.457482	-0.422374	-0.133519	0.896534	0.352339	-0.935492	0.026673	0.835139	0.327149	0.442172	0	0	0
57204	0	0	0	0	0	8.816850	0.191230	4.405832	-0.005646	0.001075	-0.002219	-1.092285	0.138184	-0.122559	0.145144	-0.517431	-0.105698	-0.836676	3.451010	-63.705161	-162.461332	-0.422397	-0.133495	0.896526	0.352261	-0.935522	0.026666	0.835160	0.327075	0.442187	0	0	0
57205	0	0	0	0	0	8.761180	0.235966	4.421816	-0.002726	-0.002414	-0.001006	-1.075195	0.129883	-0.122070	0.145126	-0.517439	-0.105683	-0.836676	3.449886	-63.705920	-162.463142	-0.422390	-0.133478	0.896532	0.352215	-0.935539	0.026656	0.835183	0.327032	0.442176	0	0	0
57206	0	0	0	0	0	8.795832	0.179526	4.401458	-0.005428	-0.001741	0.000734	-1.081299	0.133301	-0.125244	0.145105	-0.517450	-0.105652	-0.836676	3.445777	-63.706673	-162.463399	-0.422380	-0.133473	0.896538	0.352151	-0.935564	0.026624	0.835215	0.326963	0.442166	0	0	0
57207	0	0	0	0	0	8.817035	0.190965	4.405475	-0.002591	-0.001409	-0.003501	-1.082031	0.134033	-0.127197	0.145072	-0.517454	-0.105641	-0.836681	3.447768	-63.706763	-162.469082	-0.422392	-0.133430	0.896539	0.352088	-0.935588	0.026639	0.835236	0.326912	0.442164	0	0	0
57208	0	0	0	0	0	8.778716	0.219331	4.378786	-0.001862	-0.001944	0.000161	-1.074463	0.128418	-0.124756	0.145058	-0.517462	-0.105627	-0.836680	3.446379	-63.707612	-162.470094	-0.422381	-0.133419	0.896545	0.352051	-0.935602	0.026628	0.835257	0.326877	0.442151	0	0	0
57209	0	0	0	0	0	8.787374	0.187802	4.422357	0.000488	-0.000806	-0.002037	-1.080322	0.130127	-0.115234	0.145040	-0.517461	-0.105625	-0.836684	3.448422	-63.707341	-162.473922	-0.422394	-0.133392	0.896543	0.352018	-0.935614	0.026644	0.835264	0.326854	0.442154	0	0	0
57210	0	0	0	0	0	8.778822	0.207614	4.411015	-0.001134	-0.002480	0.003822	-1.077881	0.129639	-0.124268	0.145043	-0.517474	-0.105605	-0.836679	3.443249	-63.708622	-162.470248	-0.422367	-0.133413	0.896553	0.352004	-0.935621	0.026603	0.835284	0.326826	0.442137	0	0	0
57211	0	0	0	0	0	8.791356	0.238901	4.403921	0.000999	0.001475	-0.001328	-1.076172	0.138428	-0.121338	0.145029	-0.517465	-0.105601	-0.836687	3.444662	-63.707253	-162.473029	-0.422394	-0.133399	0.896543	0.351978	-0.935630	0.026615	0.835281	0.326805	0.442157	0	0	0
57212	0	0	0	0	0	8.779005	0.207488	4.410656	0.002626	-0.008585	0.003455	-1.080811	0.136475	-0.118408	0.145037	-0.517500	-0.105602	-0.836664	3.442494	-63.712014	-162.470304	-0.422316	-0.133396	0.896579	0.351993	-0.935625	0.026594	0.835314	0.326821	0.442084	0	0	0
57213	0	0	0	0	0	8.791699	0.238761	4.403243	0.000864	0.000470	0.001167	-1.075684	0.138428	-0.121338	0.145039	-0.517496	-0.105594	-0.836667	3.440541	-63.711299	-162.468869	-0.422323	-0.133410	0.896574	0.351988	-0.935627	0.026579	0.835313	0.326808	0.442096	0	0	0
57214	0	0	0	0	0	8.800346	0.207027	4.446853	0.003296	-0.002213	0.004416	-1.080811	0.136719	-0.115967	0.145056	-0.517504	-0.105591	-0.836659	3.437199	-63.712448	-162.464406	-0.422296	-0.133438	0.896583	0.352012	-0.935619	0.026552	0.835316	0.326821	0.442080	0	0	0
57215	0	0	0	0	0	8.800415	0.218548	4.414279	0.000864	0.000470	0.001167	-1.078369	0.134521	-0.127930	0.145058	-0.517500	-0.105582	-0.836662	3.435240	-63.711765	-162.462946	-0.422303	-0.133452	0.896577	0.352007	-0.935621	0.026538	0.835315	0.326809	0.442091	0	0	0
57216	0	0	0	0	0	8.809128	0.210227	4.392864	0.001569	-0.003152	0.002082	-1.077881	0.138184	-0.119629	0.145061	-0.517513	-0.105579	-0.836655	3.433675	-63.713371	-162.461570	-0.422276	-0.133454	0.896590	0.352008	-0.935621	0.026524	0.835329	0.326807	0.442067	0	0	0
57217	0	0	0	0	0	8.791938	0.226657	4.435236	0.002567	-0.001678	0.000754	-1.078613	0.134766	-0.133789	0.145063	-0.517516	-0.105579	-0.836653	3.433419	-63.713750	-162.461103	-0.422269	-0.133456	0.896593	0.352012	-0.935620	0.026522	0.835330	0.326811	0.442061	0	0	0
57218	0	0	0	0	0	8.800641	0.218303	4.413840	0.000729	-0.000535	0.003662	-1.084961	0.134033	-0.123535	0.145071	-0.517519	-0.105566	-0.836651	3.429362	-63.713913	-162.457484	-0.422258	-0.133482	0.896594	0.352012	-0.935621	0.026491	0.835336	0.326798	0.442060	0	0	0
57219	0	0	0	0	0	8.800723	0.218033	4.413691	0.000218	-0.002816	0.002952	-1.078125	0.130615	-0.127441	0.145073	-0.517528	-0.105552	-0.836646	3.425463	-63.714886	-162.454627	-0.422237	-0.133498	0.896602	0.352002	-0.935625	0.026460	0.835351	0.326778	0.442047	0	0	0
57220	0	0	0	0	0	8.809374	0.209519	4.392405	-0.002191	0.002954	0.002450	-1.079102	0.134521	-0.123291	0.145071	-0.517518	-0.105527	-0.836656	3.420894	-63.713012	-162.452304	-0.422259	-0.133524	0.896587	0.351973	-0.935637	0.026426	0.835352	0.326733	0.442078	0	0	0
57221	0	0	0	0	0	8.791992	0.225661	4.435179	-0.001838	0.001142	0.002907	-1.073975	0.144043	-0.116943	0.145069	-0.517513	-0.105501	-0.836663	3.415676	-63.711808	-162.449426	-0.422271	-0.133551	0.896578	0.351943	-0.935649	0.026387	0.835358	0.326687	0.442100	0	0	0
57222	0	0	0	0	0	8.817844	0.189063	4.403937	-0.001703	0.002148	0.000413	-1.077881	0.139648	-0.121338	0.145058	-0.517505	-0.105484	-0.836672	3.413802	-63.710325	-162.449797	-0.422294	-0.133556	0.896566	0.351909	-0.935663	0.026374	0.835361	0.326647	0.442124	0	0	0
57223	0	0	0	0	0	8.800512	0.217011	4.414162	-0.002702	0.000673	0.001740	-1.081299	0.133789	-0.114014	0.145057	-0.517503	-0.105459	-0.836677	3.408850	-63.709530	-162.447002	-0.422299	-0.133580	0.896560	0.351882	-0.935674	0.026336	0.835370	0.326605	0.442138	0	0	0
57224	0	0	0	0	0	8.796608	0.177079	4.400005	-0.001838	0.001142	0.002907	-1.083740	0.132324	-0.117676	0.145056	-0.517500	-0.105436	-0.836681	3.404080	-63.708707	-162.444228	-0.422305	-0.133604	0.896554	0.351857	-0.935684	0.026300	0.835377	0.326566	0.442153	0	0	0
57225	0	0	0	0	0	8.809064	0.208318	4.393084	-0.000352	0.001811	-0.000458	-1.076904	0.134521	-0.123779	0.145046	-0.517492	-0.105426	-0.836690	3.403535	-63.707300	-162.445360	-0.422328	-0.133603	0.896543	0.351830	-0.935694	0.026297	0.835377	0.326537	0.442176	0	0	0
57226	0	0	0	0	0	8.787825	0.196791	4.389138	0.001375	0.002750	0.001876	-1.078857	0.129150	-0.122070	0.145050	-0.517479	-0.105418	-0.836698	3.401689	-63.705522	-162.443794	-0.422351	-0.133622	0.896529	0.351828	-0.935695	0.026285	0.835366	0.326526	0.442204	0	0	0
57227	0	0	0	0	0	8.796443	0.188358	4.367915	-0.002350	-0.001138	0.002198	-1.078125	0.131836	-0.121338	0.145042	-0.517485	-0.105393	-0.836699	3.397197	-63.705665	-162.442100	-0.422345	-0.133634	0.896530	0.351790	-0.935711	0.026250	0.835385	0.326477	0.442204	0	0	0
57228	0	0	0	0	0	8.787914	0.196308	4.388982	0.003648	-0.004025	0.004874	-1.075439	0.144531	-0.125488	0.145060	-0.517501	-0.105391	-0.836686	3.393650	-63.707865	-162.437184	-0.422301	-0.133660	0.896547	0.351820	-0.935700	0.026221	0.835395	0.326496	0.442171	0	0	0
57229	0	0	0	0	0	8.800579	0.227552	4.381645	-0.002726	-0.002413	-0.001006	-1.087646	0.142334	-0.124512	0.145042	-0.517509	-0.105375	-0.836686	3.392332	-63.708612	-162.438808	-0.422293	-0.133645	0.896553	0.351775	-0.935718	0.026210	0.835418	0.326453	0.442160	0	0	0
57230	0	0	0	0	0	8.826567	0.179543	4.382545	0.001703	-0.002148	-0.000413	-1.088867	0.141357	-0.126953	0.145035	-0.517516	-0.105378	-0.836682	3.393660	-63.709558	-162.440573	-0.422283	-0.133627	0.896560	0.351766	-0.935721	0.026219	0.835427	0.326451	0.442145	0	0	0
57231	0	0	0	0	0	8.813175	0.235451	4.439327	-0.006268	0.000876	0.002314	-1.083252	0.141357	-0.123535	0.145027	-0.517515	-0.105337	-0.836690	3.386108	-63.708504	-162.437075	-0.422291	-0.133658	0.896552	0.351712	-0.935743	0.026162	0.835445	0.326376	0.442165	0	0	0
57232	0	0	0	0	0	8.817888	0.187260	4.403926	-0.003918	0.002015	0.000116	-1.082275	0.126465	-0.125977	0.145009	-0.517509	-0.105312	-0.836700	3.383318	-63.707087	-162.437839	-0.422314	-0.133659	0.896541	0.351658	-0.935763	0.026142	0.835456	0.326316	0.442188	0	0	0
57233	0	0	0	0	0	8.791855	0.223457	4.435564	-0.007349	0.003223	-0.001805	-1.074951	0.125488	-0.128906	0.144976	-0.517497	-0.105274	-0.836718	3.380223	-63.704563	-162.440713	-0.422358	-0.133650	0.896522	0.351565	-0.935799	0.026120	0.835473	0.326218	0.442229	0	0	0
57234	0	0	0	0	0	8.812823	0.234888	4.440056	-0.007214	0.004229	-0.004300	-1.075684	0.130127	-0.120605	0.144932	-0.517481	-0.105245	-0.836738	3.380504	-63.701730	-162.447010	-0.422415	-0.133617	0.896500	0.351465	-0.935836	0.026125	0.835486	0.326124	0.442273	0	0	0
57235	0	0	0	0	0	8.799979	0.214966	4.415324	-0.012810	0.011475	-0.001024	-1.079346	0.131104	-0.121094	0.144886	-0.517440	-0.105174	-0.836781	3.373139	-63.694491	-162.449220	-0.422528	-0.133635	0.896444	0.351319	-0.935893	0.026075	0.835491	0.325955	0.442390	0	0	0
57236	0	0	0	0	0	8.787052	0.183097	4.423194	-0.016047	0.006780	-0.002741	-1.080811	0.138672	-0.123535	0.144828	-0.517421	-0.105102	-0.836812	3.366381	-63.690252	-162.453310	-0.422601	-0.133624	0.896411	0.351151	-0.935957	0.026026	0.835524	0.325775	0.442459	0	0	0
57237	0	0	0	0	0	8.811541	0.221912	4.475080	-0.022372	0.014561	-0.003127	-1.076416	0.137451	-0.125488	0.144757	-0.517372	-0.104996	-0.836868	3.355325	-63.681273	-162.456801	-0.422743	-0.133641	0.896342	0.350929	-0.936042	0.025949	0.835546	0.325522	0.442604	0	0	0
57238	0	0	0	0	0	8.765090	0.182276	4.388305	-0.010425	0.002618	-0.003271	-1.076416	0.138428	-0.120605	0.144709	-0.517366	-0.104952	-0.836885	3.352682	-63.679397	-162.461889	-0.422783	-0.133612	0.896327	0.350807	-0.936089	0.025931	0.835577	0.325401	0.442635	0	0	0
57239	0	0	0	0	0	8.773603	0.185478	4.334908	-0.010401	0.005702	-0.000523	-1.080566	0.135498	-0.119629	0.144677	-0.517347	-0.104897	-0.836909	3.345858	-63.675544	-162.462282	-0.422842	-0.133628	0.896297	0.350699	-0.936130	0.025881	0.835593	0.325274	0.442698	0	0	0
57240	0	0	0	0	0	8.815417	0.173015	4.441373	-0.006676	0.009591	-0.000841	-1.083984	0.131104	-0.123779	0.144652	-0.517310	-0.104857	-0.836941	3.342083	-63.669762	-162.463711	-0.422931	-0.133644	0.896252	0.350618	-0.936161	0.025857	0.835581	0.325178	0.442790	0	0	0
57241	0	0	0	0	0	8.806932	0.204334	4.397544	-0.007257	-0.013680	0.000840	-1.077393	0.134521	-0.124268	0.144621	-0.517371	-0.104825	-0.836913	3.337125	-63.677101	-162.464416	-0.422823	-0.133604	0.896309	0.350538	-0.936193	0.025812	0.835670	0.325104	0.442678	0	0	0
57242	0	0	0	0	0	8.770368	0.168159	4.254588	-0.009924	-0.023004	0.002528	-1.080322	0.127930	-0.117432	0.144585	-0.517475	-0.104786	-0.836860	3.329791	-63.690075	-162.463950	-0.422629	-0.133547	0.896410	0.350444	-0.936230	0.025744	0.835808	0.325021	0.442478	0	0	0
57243	0	0	0	0	0	8.741529	0.164148	4.269797	-0.016918	-0.021597	0.001180	-1.081543	0.125732	-0.119873	0.144525	-0.517577	-0.104718	-0.836816	3.319534	-63.701962	-162.465131	-0.422454	-0.133482	0.896502	0.350280	-0.936294	0.025654	0.835964	0.324864	0.442297	0	0	0
57244	0	0	0	0	0	8.796162	0.258069	4.449246	-0.022536	-0.017441	0.001711	-1.081055	0.138916	-0.125000	0.144455	-0.517666	-0.104625	-0.836784	3.305536	-63.711727	-162.465292	-0.422309	-0.133435	0.896577	0.350077	-0.936373	0.025537	0.836123	0.324656	0.442151	0	0	0
57245	0	0	0	0	0	8.839321	0.244638	4.553218	-0.027633	-0.024086	0.000151	-1.080078	0.133057	-0.120361	0.144362	-0.517785	-0.104516	-0.836741	3.290441	-63.724949	-162.467834	-0.422117	-0.133354	0.896679	0.349821	-0.936472	0.025409	0.836327	0.324403	0.441951	0	0	0
57246	0	0	0	0	0	8.806500	0.200699	4.554492	-0.020889	-0.012683	-0.001397	-1.087402	0.126953	-0.117920	0.144287	-0.517851	-0.104434	-0.836723	3.280664	-63.731889	-162.471650	-0.422023	-0.133293	0.896733	0.349619	-0.936550	0.025327	0.836459	0.324203	0.441847	0	0	0
57247	0	0	0	0	0	8.752126	0.192891	4.422559	-0.003236	-0.004696	-0.001720	-1.074219	0.131104	-0.122070	0.144258	-0.517871	-0.104419	-0.836718	3.280572	-63.734047	-162.475426	-0.421999	-0.133255	0.896750	0.349557	-0.936573	0.025324	0.836497	0.324152	0.441813	0	0	0
57248	0	0	0	0	0	8.803203	0.219605	4.376778	0.007481	-0.002212	-0.000694	-1.080078	0.133301	-0.124756	0.144264	-0.517874	-0.104446	-0.836711	3.285539	-63.735021	-162.477555	-0.421990	-0.133235	0.896757	0.349595	-0.936558	0.025362	0.836486	0.324204	0.441796	0	0	0
57249	0	0	0	0	0	8.841811	0.215101	4.337884	0.004245	-0.006908	-0.002413	-1.079102	0.133301	-0.125732	0.144251	-0.517895	-0.104465	-0.836698	3.290508	-63.738267	-162.482197	-0.421952	-0.133185	0.896782	0.349593	-0.936557	0.025397	0.836505	0.324225	0.441743	0	0	0
57250	0	0	0	0	0	8.812303	0.200581	4.386943	0.004379	-0.005900	-0.004907	-1.081787	0.135498	-0.131104	0.144230	-0.517914	-0.104493	-0.836687	3.298828	-63.741212	-162.490049	-0.421926	-0.133113	0.896805	0.349587	-0.936558	0.025459	0.836521	0.324253	0.441693	0	0	0
57251	0	0	0	0	0	8.842371	0.192959	4.401622	0.002274	-0.008112	-0.010446	-1.075684	0.135010	-0.124023	0.144179	-0.517937	-0.104525	-0.836677	3.311963	-63.744741	-162.504901	-0.421908	-0.132987	0.896832	0.349538	-0.936574	0.025557	0.836551	0.324259	0.441632	0	0	0
57252	0	0	0	0	0	8.804361	0.222083	4.374321	0.006302	-0.010867	-0.002373	-1.078125	0.125732	-0.116455	0.144171	-0.517976	-0.104559	-0.836650	3.318785	-63.750610	-162.509852	-0.421832	-0.132923	0.896877	0.349559	-0.936565	0.025604	0.836580	0.324312	0.441537	0	0	0
57253	0	0	0	0	0	8.838224	0.265367	4.371001	-0.000730	0.000539	-0.003661	-1.073242	0.129639	-0.123291	0.144143	-0.517970	-0.104554	-0.836659	3.321938	-63.749647	-162.515721	-0.421860	-0.132885	0.896870	0.349508	-0.936583	0.025629	0.836587	0.324276	0.441551	0	0	0
57254	0	0	0	0	0	8.808506	0.227453	4.485493	0.007238	-0.002477	-0.006394	-1.081299	0.141602	-0.132568	0.144124	-0.517971	-0.104596	-0.836656	3.333396	-63.750583	-162.525245	-0.421868	-0.132810	0.896877	0.349521	-0.936576	0.025717	0.836578	0.324326	0.441531	0	0	0
57255	0	0	0	0	0	8.778854	0.260017	4.404927	0.006971	-0.004493	-0.001406	-1.078857	0.131836	-0.127441	0.144127	-0.517980	-0.104622	-0.836647	3.338376	-63.752343	-162.527912	-0.421848	-0.132782	0.896891	0.349550	-0.936564	0.025754	0.836576	0.324373	0.441502	0	0	0
57256	0	0	0	0	0	8.813570	0.215912	4.351736	0.007835	-0.004024	-0.000239	-1.078369	0.139404	-0.118164	0.144135	-0.517991	-0.104651	-0.836636	3.343143	-63.754367	-162.529594	-0.421822	-0.132760	0.896906	0.349593	-0.936547	0.025788	0.836571	0.324431	0.441468	0	0	0
57257	0	0	0	0	0	8.822270	0.196492	4.362749	0.010341	0.001211	-0.002182	-1.088867	0.137695	-0.131104	0.144146	-0.517974	-0.104690	-0.836639	3.350556	-63.752999	-162.532717	-0.421849	-0.132744	0.896896	0.349650	-0.936524	0.025847	0.836533	0.324503	0.441486	0	0	0
57258	0	0	0	0	0	8.792532	0.193851	4.379832	0.010183	-0.002883	-0.002437	-1.081787	0.131836	-0.115479	0.144152	-0.517977	-0.104734	-0.836631	3.359141	-63.754297	-162.537156	-0.421840	-0.132705	0.896906	0.349703	-0.936502	0.025912	0.836516	0.324582	0.441462	0	0	0
57259	0	0	0	0	0	8.826300	0.225587	4.409163	0.006619	-0.002682	-0.001862	-1.084473	0.137207	-0.124512	0.144153	-0.517980	-0.104759	-0.836626	3.364416	-63.755174	-162.540240	-0.421834	-0.132678	0.896913	0.349730	-0.936491	0.025952	0.836507	0.324625	0.441446	0	0	0
57260	0	0	0	0	0	8.796705	0.234624	4.393458	0.005731	-0.006238	-0.005777	-1.080811	0.126465	-0.125732	0.144132	-0.517998	-0.104795	-0.836614	3.374556	-63.758278	-162.549257	-0.421809	-0.132597	0.896937	0.349732	-0.936488	0.026027	0.836519	0.324666	0.441392	0	0	0
57261	0	0	0	0	0	8.796881	0.235060	4.393080	0.001704	-0.002147	-0.000415	-1.081299	0.136963	-0.123779	0.144123	-0.518002	-0.104795	-0.836612	3.375468	-63.758833	-162.550917	-0.421804	-0.132582	0.896941	0.349719	-0.936493	0.026033	0.836527	0.324658	0.441383	0	0	0
57262	0	0	0	0	0	8.805751	0.227169	4.371262	0.005951	-0.009058	-0.002827	-1.083740	0.127441	-0.126953	0.144113	-0.518034	-0.104827	-0.836591	3.382507	-63.763649	-162.556334	-0.421745	-0.132520	0.896978	0.349735	-0.936485	0.026083	0.836550	0.324705	0.441305	0	0	0
57263	0	0	0	0	0	8.788868	0.232030	4.445667	0.002278	-0.006778	0.002992	-1.084229	0.133301	-0.122803	0.144119	-0.518059	-0.104823	-0.836575	3.380081	-63.766960	-162.553872	-0.421690	-0.132523	0.897004	0.349741	-0.936484	0.026061	0.836576	0.324709	0.441254	0	0	0
57264	0	0	0	0	0	8.827483	0.226981	4.406723	0.001571	-0.003154	0.002079	-1.078857	0.132324	-0.122314	0.144121	-0.518071	-0.104820	-0.836567	3.378512	-63.768565	-162.552491	-0.421663	-0.132525	0.897016	0.349742	-0.936484	0.026048	0.836589	0.324707	0.441230	0	0	0
57265	0	0	0	0	0	8.815096	0.207035	4.381027	-0.001130	-0.002484	0.003822	-1.082520	0.130615	-0.126221	0.144124	-0.518082	-0.104797	-0.836563	3.372816	-63.769528	-162.548483	-0.421639	-0.132550	0.897023	0.349724	-0.936492	0.026003	0.836608	0.324675	0.441217	0	0	0
57266	0	0	0	0	0	8.844969	0.198268	4.396162	-0.002347	-0.001141	0.002199	-1.085449	0.133057	-0.126953	0.144117	-0.518089	-0.104776	-0.836562	3.368725	-63.769985	-162.546794	-0.421628	-0.132560	0.897027	0.349692	-0.936504	0.025971	0.836627	0.324634	0.441212	0	0	0
57267	0	0	0	0	0	8.815118	0.218038	4.348494	-0.003540	0.003287	0.003324	-1.082520	0.134766	-0.125488	0.144114	-0.518076	-0.104740	-0.836575	3.361927	-63.767517	-162.543198	-0.421657	-0.132598	0.897008	0.349651	-0.936521	0.025921	0.836630	0.324569	0.441254	0	0	0
57268	0	0	0	0	0	8.823695	0.197650	4.359815	0.000245	0.000267	0.005699	-1.078369	0.128174	-0.124023	0.144130	-0.518077	-0.104719	-0.836574	3.355162	-63.767286	-162.536872	-0.421646	-0.132646	0.897006	0.349655	-0.936521	0.025869	0.836634	0.324551	0.441260	0	0	0
57269	0	0	0	0	0	8.865739	0.208742	4.401087	0.013627	0.012079	0.005030	-1.081543	0.137451	-0.117432	0.144182	-0.518016	-0.104744	-0.836600	3.355614	-63.759895	-162.530449	-0.421741	-0.132728	0.896949	0.349764	-0.936480	0.025879	0.836540	0.324635	0.441376	0	0	0
57270	0	0	0	0	0	8.784820	0.226189	4.334252	0.017558	-0.003021	0.002110	-1.080566	0.137939	-0.114746	0.144226	-0.518017	-0.104807	-0.836584	3.363159	-63.761424	-162.529017	-0.421715	-0.132731	0.896961	0.349898	-0.936429	0.025936	0.836497	0.324783	0.441348	0	0	0
57271	0	0	0	0	0	8.844285	0.233007	4.300011	0.000669	0.006375	0.000964	-1.081055	0.135986	-0.121094	0.144231	-0.517989	-0.104794	-0.836602	3.360872	-63.757428	-162.527194	-0.421770	-0.132764	0.896930	0.349893	-0.936431	0.025922	0.836472	0.324763	0.441412	0	0	0
57272	0	0	0	0	0	8.835409	0.229660	4.354342	0.007799	0.005972	-0.000187	-1.076904	0.132813	-0.123779	0.144245	-0.517957	-0.104816	-0.836617	3.364878	-63.753736	-162.528050	-0.421827	-0.132775	0.896902	0.349936	-0.936414	0.025956	0.836425	0.324807	0.441468	0	0	0
57273	0	0	0	0	0	8.796973	0.222976	4.425429	-0.000644	-0.003288	0.001784	-1.079834	0.137939	-0.128174	0.144241	-0.517970	-0.104802	-0.836611	3.361769	-63.755100	-162.526538	-0.421804	-0.132779	0.896912	0.349916	-0.936422	0.025931	0.836445	0.324781	0.441448	0	0	0
57274	0	0	0	0	0	8.772062	0.171699	4.406818	-0.000997	-0.001476	0.001328	-1.081055	0.131104	-0.121582	0.144234	-0.517977	-0.104788	-0.836610	3.359485	-63.755719	-162.526001	-0.421793	-0.132780	0.896917	0.349891	-0.936432	0.025913	0.836461	0.324753	0.441439	0	0	0
57275	0	0	0	0	0	8.805789	0.214461	4.403750	0.007728	-0.001947	0.005004	-1.086670	0.128174	-0.115967	0.144267	-0.517979	-0.104799	-0.836602	3.357359	-63.756355	-162.520241	-0.421770	-0.132820	0.896922	0.349955	-0.936409	0.025896	0.836446	0.324804	0.441430	0	0	0
57276	0	0	0	0	0	8.797308	0.222876	4.424766	0.009187	-0.004364	-0.001109	-1.081055	0.140625	-0.125244	0.144275	-0.517989	-0.104836	-0.836589	3.363934	-63.758544	-162.523075	-0.421744	-0.132789	0.896939	0.350005	-0.936388	0.025945	0.836438	0.324875	0.441393	0	0	0
57277	0	0	0	0	0	8.827172	0.214742	4.439890	0.005294	0.000737	0.001758	-1.077393	0.133789	-0.121826	0.144289	-0.517981	-0.104845	-0.836591	3.364015	-63.757674	-162.521226	-0.421753	-0.132806	0.896932	0.350036	-0.936377	0.025946	0.836420	0.324902	0.441407	0	0	0
57278	0	0	0	0	0	8.784896	0.203630	4.399091	0.006133	-0.001880	0.000177	-1.081055	0.130127	-0.121826	0.144296	-0.517984	-0.104864	-0.836585	3.367179	-63.758485	-162.522208	-0.421743	-0.132795	0.896938	0.350067	-0.936365	0.025970	0.836413	0.324941	0.441393	0	0	0
57279	0	0	0	0	0	8.776379	0.212027	4.420184	0.008215	-0.002753	0.002967	-1.078613	0.139404	-0.122070	0.144318	-0.517989	-0.104883	-0.836576	3.367893	-63.759599	-162.519487	-0.421720	-0.132810	0.896947	0.350122	-0.936344	0.025974	0.836401	0.324995	0.441375	0	0	0
57280	0	0	0	0	0	8.827429	0.226881	4.406837	0.005136	-0.003357	0.001505	-1.073975	0.127930	-0.119629	0.144327	-0.517999	-0.104896	-0.836567	3.369046	-63.761299	-162.518864	-0.421693	-0.132807	0.896960	0.350150	-0.936333	0.025982	0.836403	0.325027	0.441348	0	0	0
57281	0	0	0	0	0	8.797780	0.247053	4.358739	0.002921	-0.003490	0.001209	-1.085938	0.132813	-0.115234	0.144329	-0.518010	-0.104897	-0.836559	3.368683	-63.762795	-162.518216	-0.421669	-0.132804	0.896971	0.350156	-0.936331	0.025977	0.836412	0.325034	0.441325	0	0	0
57282	0	0	0	0	0	8.827705	0.238549	4.373759	0.002435	-0.002685	0.003247	-1.080078	0.136963	-0.123779	0.144339	-0.518020	-0.104894	-0.836551	3.366220	-63.764170	-162.515287	-0.421642	-0.132820	0.896982	0.350168	-0.936327	0.025957	0.836421	0.325039	0.441304	0	0	0
57283	0	0	0	0	0	8.827875	0.238286	4.373429	-0.001641	-0.004764	0.003113	-1.082520	0.135254	-0.125732	0.144339	-0.518041	-0.104874	-0.836541	3.361088	-63.766517	-162.512013	-0.421599	-0.132833	0.897000	0.350148	-0.936336	0.025916	0.836451	0.325009	0.441270	0	0	0
57284	0	0	0	0	0	8.828040	0.226307	4.405641	-0.003212	-0.001609	0.001033	-1.072021	0.137695	-0.119873	0.144325	-0.518050	-0.104852	-0.836541	3.357886	-63.767202	-162.511867	-0.421589	-0.132830	0.897005	0.350104	-0.936353	0.025890	0.836475	0.324960	0.441261	0	0	0
57285	0	0	0	0	0	8.806926	0.226250	4.368942	0.000732	-0.000537	0.003661	-1.077637	0.133789	-0.119141	0.144335	-0.518051	-0.104836	-0.836540	3.353064	-63.767030	-162.507448	-0.421581	-0.132864	0.897004	0.350106	-0.936353	0.025853	0.836478	0.324945	0.441265	0	0	0
57286	0	0	0	0	0	8.810819	0.253730	4.415746	-0.004537	0.001814	0.004651	-1.075684	0.137695	-0.121338	0.144335	-0.518048	-0.104797	-0.836547	3.344670	-63.765878	-162.502359	-0.421587	-0.132907	0.896995	0.350066	-0.936370	0.025790	0.836492	0.324880	0.441287	0	0	0
57287	0	0	0	0	0	8.806855	0.201884	4.434187	-0.006619	0.002687	0.001862	-1.085693	0.133789	-0.123047	0.144320	-0.518041	-0.104753	-0.836560	3.337548	-63.763878	-162.500107	-0.421611	-0.132933	0.896980	0.349998	-0.936397	0.025737	0.836508	0.324792	0.441322	0	0	0
57288	0	0	0	0	0	8.815350	0.216587	4.348096	-0.003186	0.001478	0.003780	-1.079590	0.138428	-0.120361	0.144320	-0.518038	-0.104722	-0.836566	3.330962	-63.762888	-162.496172	-0.421617	-0.132966	0.896972	0.349965	-0.936410	0.025687	0.836519	0.324739	0.441340	0	0	0
57289	0	0	0	0	0	8.806622	0.200900	4.434693	-0.005243	0.005438	0.003738	-1.090820	0.123291	-0.120117	0.144318	-0.518018	-0.104677	-0.836583	3.322300	-63.759351	-162.491224	-0.421658	-0.133019	0.896945	0.349918	-0.936430	0.025623	0.836517	0.324662	0.441399	0	0	0
57290	0	0	0	0	0	8.806427	0.212160	4.402585	-0.002189	0.002953	0.002452	-1.087646	0.139160	-0.117676	0.144316	-0.518008	-0.104653	-0.836593	3.317728	-63.757473	-162.488897	-0.421681	-0.133045	0.896930	0.349889	-0.936442	0.025590	0.836518	0.324617	0.441431	0	0	0
57291	0	0	0	0	0	8.827505	0.223277	4.406868	-0.007130	0.000405	0.001151	-1.082275	0.132080	-0.119873	0.144293	-0.518011	-0.104610	-0.836601	3.311681	-63.756834	-162.488312	-0.421689	-0.133053	0.896925	0.349810	-0.936472	0.025544	0.836547	0.324525	0.441443	0	0	0
57292	0	0	0	0	0	8.814882	0.203327	4.381632	-0.002056	0.003960	-0.000042	-1.086914	0.128418	-0.125244	0.144281	-0.517995	-0.104592	-0.836615	3.310012	-63.754297	-162.489137	-0.421729	-0.133059	0.896906	0.349771	-0.936487	0.025533	0.836544	0.324480	0.441484	0	0	0
57293	0	0	0	0	0	8.784961	0.200007	4.399127	-0.005999	0.002888	-0.002671	-1.081787	0.133545	-0.114014	0.144244	-0.517983	-0.104562	-0.836632	3.308920	-63.751985	-162.493578	-0.421774	-0.133037	0.896888	0.349681	-0.936521	0.025527	0.836558	0.324392	0.441520	0	0	0
57294	0	0	0	0	0	8.805996	0.222871	4.370990	-0.004537	0.001812	0.004651	-1.069824	0.132324	-0.116943	0.144244	-0.517981	-0.104522	-0.836639	3.300530	-63.750832	-162.488495	-0.421779	-0.133080	0.896879	0.349641	-0.936537	0.025463	0.836572	0.324326	0.441542	0	0	0
57295	0	0	0	0	0	8.797207	0.230684	4.392661	-0.003759	0.006108	0.000373	-1.082520	0.136719	-0.121338	0.144230	-0.517957	-0.104491	-0.836660	3.296705	-63.746968	-162.488261	-0.421836	-0.133099	0.896849	0.349588	-0.936558	0.025437	0.836566	0.324258	0.441604	0	0	0
57296	0	0	0	0	0	8.814307	0.202246	4.382839	-0.004051	0.001007	0.002613	-1.078369	0.131592	-0.126709	0.144223	-0.517956	-0.104460	-0.836665	3.291013	-63.746208	-162.485874	-0.421842	-0.133121	0.896843	0.349543	-0.936576	0.025394	0.836582	0.324198	0.441619	0	0	0
57297	0	0	0	0	0	8.784480	0.198755	4.400145	-0.002567	0.001679	-0.000752	-1.083740	0.123291	-0.125000	0.144205	-0.517948	-0.104440	-0.836676	3.289462	-63.744595	-162.487382	-0.421870	-0.133117	0.896831	0.349495	-0.936594	0.025384	0.836588	0.324147	0.441644	0	0	0
57298	0	0	0	0	0	8.805536	0.210086	4.404466	-0.003053	0.002483	0.001286	-1.085205	0.136963	-0.119873	0.144195	-0.517940	-0.104415	-0.836686	3.285783	-63.742946	-162.486602	-0.421892	-0.133131	0.896818	0.349454	-0.936610	0.025357	0.836594	0.324094	0.441672	0	0	0
57299	0	0	0	0	0	8.792903	0.190183	4.379248	-0.000839	0.002617	0.001581	-1.080566	0.131348	-0.125977	0.144190	-0.517928	-0.104396	-0.836697	3.282737	-63.740935	-162.485570	-0.421920	-0.133148	0.896803	0.349425	-0.936622	0.025335	0.836592	0.324055	0.441705	0	0	0
57300	0	0	0	0	0	8.784098	0.186604	4.433417	-0.000194	0.005905	-0.000203	-1.076660	0.135254	-0.124023	0.144183	-0.517903	-0.104384	-0.836715	3.282194	-63.737281	-162.486461	-0.421977	-0.133158	0.896775	0.349401	-0.936631	0.025334	0.836573	0.324025	0.441762	0	0	0
57301	0	0	0	0	0	8.813726	0.201550	4.384039	0.000864	0.000469	0.001167	-1.087402	0.133057	-0.125732	0.144181	-0.517897	-0.104374	-0.836720	3.280503	-63.736391	-162.485724	-0.421988	-0.133168	0.896768	0.349388	-0.936636	0.025322	0.836573	0.324006	0.441777	0	0	0
57302	0	0	0	0	0	8.805121	0.209722	4.405314	0.003432	-0.001209	0.001919	-1.079590	0.131104	-0.122314	0.144188	-0.517900	-0.104377	-0.836716	3.280051	-63.736876	-162.484399	-0.421978	-0.133175	0.896771	0.349403	-0.936630	0.025318	0.836571	0.324019	0.441769	0	0	0
57303	0	0	0	0	0	8.805051	0.209673	4.405457	0.001023	0.004562	0.001421	-1.071289	0.127441	-0.122803	0.144190	-0.517879	-0.104365	-0.836731	3.277994	-63.733701	-162.483156	-0.422022	-0.133200	0.896747	0.349392	-0.936635	0.025305	0.836554	0.323996	0.441820	0	0	0
57304	0	0	0	0	0	8.813565	0.201421	4.384368	0.003079	0.000602	0.001463	-1.079834	0.142578	-0.117676	0.144195	-0.517874	-0.104366	-0.836733	3.277749	-63.733134	-162.482287	-0.422029	-0.133209	0.896743	0.349403	-0.936631	0.025304	0.836546	0.324003	0.441829	0	0	0
57305	0	0	0	0	0	8.796249	0.229576	4.394635	0.002726	0.002414	0.001006	-1.082520	0.135010	-0.134521	0.144200	-0.517860	-0.104364	-0.836741	3.277026	-63.731269	-162.481269	-0.422054	-0.133225	0.896728	0.349408	-0.936629	0.025300	0.836531	0.324002	0.441858	0	0	0
57306	0	0	0	0	0	8.775087	0.218138	4.390527	0.002567	-0.001679	0.000752	-1.077881	0.138428	-0.114258	0.144200	-0.517865	-0.104367	-0.836738	3.277462	-63.731984	-162.481487	-0.422044	-0.133220	0.896734	0.349411	-0.936628	0.025302	0.836535	0.324008	0.441847	0	0	0
57307	0	0	0	0	0	8.804872	0.209621	4.405816	0.002593	0.001407	0.003500	-1.088623	0.130859	-0.117920	0.144216	-0.517856	-0.104358	-0.836741	3.273782	-63.730665	-162.477109	-0.422054	-0.133258	0.896723	0.349429	-0.936622	0.025275	0.836523	0.324008	0.441869	0	0	0
57308	0	0	0	0	0	8.796238	0.229648	4.394654	0.004051	-0.001008	-0.002613	-1.080566	0.132324	-0.123291	0.144206	-0.517855	-0.104376	-0.836741	3.278924	-63.730886	-162.481626	-0.422061	-0.133224	0.896725	0.349430	-0.936620	0.025315	0.836519	0.324027	0.441863	0	0	0
57309	0	0	0	0	0	8.792414	0.190116	4.380233	0.003298	-0.002217	0.004414	-1.076904	0.137939	-0.129150	0.144223	-0.517862	-0.104370	-0.836735	3.275183	-63.731799	-162.477022	-0.422037	-0.133254	0.896732	0.349451	-0.936613	0.025285	0.836522	0.324035	0.441851	0	0	0
57310	0	0	0	0	0	8.804882	0.221317	4.373312	0.001888	0.005031	0.002587	-1.076904	0.130615	-0.116943	0.144232	-0.517841	-0.104360	-0.836748	3.272658	-63.728736	-162.474373	-0.422076	-0.133288	0.896709	0.349456	-0.936612	0.025268	0.836500	0.324025	0.441900	0	0	0
57311	0	0	0	0	0	8.813345	0.201376	4.384813	0.004941	0.002547	0.001302	-1.077881	0.135742	-0.120605	0.144243	-0.517825	-0.104366	-0.836755	3.272927	-63.726724	-162.473131	-0.422103	-0.133306	0.896693	0.349479	-0.936603	0.025272	0.836477	0.324043	0.441931	0	0	0
57312	0	0	0	0	0	8.783451	0.209786	4.369750	0.002241	0.003219	0.003044	-1.079834	0.126465	-0.125732	0.144255	-0.517810	-0.104358	-0.836763	3.270196	-63.724712	-162.470026	-0.422126	-0.133339	0.896677	0.349489	-0.936600	0.025253	0.836461	0.324039	0.441964	0	0	0
57313	0	0	0	0	0	8.783280	0.209732	4.370095	0.005453	0.004828	0.002012	-1.075684	0.131592	-0.125488	0.144269	-0.517785	-0.104362	-0.836776	3.270005	-63.721424	-162.468172	-0.422171	-0.133368	0.896652	0.349516	-0.936590	0.025254	0.836427	0.324055	0.442015	0	0	0
57314	0	0	0	0	0	8.812876	0.189678	4.418230	0.008021	0.003148	0.002765	-1.079590	0.131592	-0.121582	0.144294	-0.517767	-0.104379	-0.836781	3.270914	-63.719443	-162.465433	-0.422194	-0.133397	0.896637	0.349573	-0.936569	0.025263	0.836392	0.324106	0.442046	0	0	0
57315	0	0	0	0	0	8.812638	0.201551	4.386226	0.006099	0.008115	0.000227	-1.085205	0.135254	-0.125244	0.144305	-0.517726	-0.104387	-0.836803	3.272900	-63.714206	-162.465569	-0.422272	-0.133421	0.896596	0.349597	-0.936559	0.025283	0.836342	0.324124	0.442127	0	0	0
57316	0	0	0	0	0	8.812270	0.201556	4.386964	0.009423	0.008983	0.007389	-1.088135	0.134766	-0.126709	0.144356	-0.517685	-0.104394	-0.836819	3.268873	-63.709038	-162.456428	-0.422328	-0.133513	0.896556	0.349686	-0.936527	0.025257	0.836277	0.324180	0.442209	0	0	0
57317	0	0	0	0	0	8.815733	0.240992	4.402109	0.004776	0.011536	0.003845	-1.086670	0.129395	-0.121094	0.144383	-0.517632	-0.104387	-0.836848	3.265541	-63.701925	-162.451092	-0.422422	-0.133586	0.896501	0.349721	-0.936514	0.025237	0.836214	0.324186	0.442322	0	0	0
57318	0	0	0	0	0	8.811327	0.189693	4.421317	0.007477	0.010862	0.002104	-1.076172	0.126709	-0.125977	0.144408	-0.517581	-0.104398	-0.836873	3.266396	-63.695509	-162.448641	-0.422512	-0.133634	0.896452	0.349771	-0.936495	0.025250	0.836148	0.324221	0.442422	0	0	0
57319	0	0	0	0	0	8.819353	0.193196	4.368790	0.009879	0.018171	0.005399	-1.080322	0.129395	-0.123779	0.144453	-0.517499	-0.104401	-0.836916	3.264155	-63.684716	-162.441870	-0.422657	-0.133735	0.896368	0.349845	-0.936468	0.025242	0.836044	0.324258	0.442591	0	0	0
57320	0	0	0	0	0	8.809856	0.189756	4.424246	0.011743	0.020113	0.005239	-1.075684	0.132080	-0.117920	0.144507	-0.517408	-0.104415	-0.836961	3.263222	-63.673111	-162.434696	-0.422813	-0.133843	0.896278	0.349943	-0.936431	0.025245	0.835924	0.324321	0.442773	0	0	0
57321	0	0	0	0	0	8.791667	0.217915	4.436211	0.013121	0.022860	0.007115	-1.073975	0.129883	-0.130615	0.144572	-0.517305	-0.104425	-0.837013	3.260340	-63.659775	-162.424918	-0.422989	-0.133978	0.896175	0.350056	-0.936389	0.025235	0.835788	0.324385	0.442982	0	0	0
57322	0	0	0	0	0	8.807958	0.189564	4.428032	0.007693	0.021119	0.007849	-1.077148	0.133301	-0.121094	0.144627	-0.517214	-0.104414	-0.837060	3.254016	-63.647679	-162.414316	-0.423145	-0.134113	0.896081	0.350132	-0.936362	0.025196	0.835677	0.324408	0.443174	0	0	0
57323	0	0	0	0	0	8.777250	0.197671	4.414598	0.007343	0.022928	0.007391	-1.080811	0.134766	-0.126953	0.144678	-0.517114	-0.104399	-0.837115	3.247463	-63.634167	-162.404156	-0.423323	-0.134252	0.895977	0.350196	-0.936338	0.025158	0.835560	0.324418	0.443388	0	0	0
57324	0	0	0	0	0	8.797504	0.208957	4.420541	0.009884	0.018161	0.005400	-1.079346	0.130127	-0.128418	0.144727	-0.517033	-0.104406	-0.837156	3.245428	-63.623682	-162.396938	-0.423462	-0.134355	0.895895	0.350280	-0.936307	0.025151	0.835454	0.324465	0.443552	0	0	0
57325	0	0	0	0	0	8.775491	0.197370	4.418107	0.002538	0.021387	0.003591	-1.081543	0.135254	-0.126465	0.144750	-0.516940	-0.104382	-0.837212	3.240606	-63.610904	-162.391666	-0.423640	-0.134454	0.895796	0.350291	-0.936304	0.025125	0.835359	0.324433	0.443754	0	0	0
57326	0	0	0	0	0	8.795820	0.220249	4.391564	0.000675	0.019443	0.003751	-1.085693	0.133545	-0.121582	0.144768	-0.516860	-0.104354	-0.837262	3.235121	-63.599632	-162.386486	-0.423796	-0.134546	0.895709	0.350291	-0.936305	0.025093	0.835280	0.324393	0.443932	0	0	0
57327	0	0	0	0	0	8.786384	0.216521	4.446733	0.004293	0.012331	0.005882	-1.082275	0.135742	-0.127197	0.144803	-0.516806	-0.104338	-0.837292	3.229152	-63.592246	-162.378557	-0.423887	-0.134640	0.895652	0.350330	-0.936291	0.025053	0.835218	0.324393	0.444050	0	0	0
57328	0	0	0	0	0	8.803122	0.199818	4.405373	0.004080	0.015146	0.002929	-1.077637	0.133057	-0.132568	0.144825	-0.516740	-0.104330	-0.837329	3.226852	-63.583406	-162.374753	-0.424010	-0.134710	0.895583	0.350355	-0.936282	0.025043	0.835145	0.324391	0.444189	0	0	0
57329	0	0	0	0	0	8.772690	0.196548	4.423703	0.003567	0.012866	0.002219	-1.079346	0.133057	-0.127686	0.144842	-0.516682	-0.104320	-0.837364	3.224656	-63.575415	-162.371623	-0.424122	-0.134771	0.895521	0.350371	-0.936276	0.025033	0.835081	0.324382	0.444315	0	0	0
57330	0	0	0	0	0	8.780847	0.188313	4.403452	0.005269	0.010718	0.001809	-1.082031	0.129395	-0.134033	0.144860	-0.516633	-0.104322	-0.837390	3.224616	-63.569072	-162.369582	-0.424211	-0.134816	0.895472	0.350401	-0.936265	0.025038	0.835023	0.324396	0.444414	0	0	0
57331	0	0	0	0	0	8.780286	0.176797	4.436867	0.006621	0.010381	0.000940	-1.081543	0.137939	-0.122314	0.144875	-0.516582	-0.104329	-0.837418	3.226017	-63.562446	-162.368769	-0.424308	-0.134853	0.895420	0.350432	-0.936253	0.025055	0.834961	0.324415	0.444517	0	0	0
57332	0	0	0	0	0	8.771343	0.196891	4.426357	0.004243	0.006161	0.000390	-1.088135	0.137695	-0.129150	0.144882	-0.516553	-0.104335	-0.837435	3.227318	-63.558663	-162.368882	-0.424365	-0.134870	0.895391	0.350448	-0.936247	0.025068	0.834926	0.324426	0.444575	0	0	0
57333	0	0	0	0	0	8.792092	0.196931	4.463608	0.002166	0.007034	-0.002404	-1.075195	0.128418	-0.117920	0.144877	-0.516518	-0.104336	-0.837457	3.229809	-63.554025	-162.371479	-0.424440	-0.134873	0.895355	0.350440	-0.936249	0.025092	0.834891	0.324418	0.444646	0	0	0
57334	0	0	0	0	0	8.791890	0.208644	4.431711	-0.000675	0.006704	0.001829	-1.082275	0.136230	-0.128174	0.144877	-0.516491	-0.104317	-0.837476	3.226602	-63.549978	-162.369704	-0.424496	-0.134905	0.895323	0.350420	-0.936257	0.025070	0.834871	0.324382	0.444711	0	0	0
57335	0	0	0	0	0	8.800175	0.188646	4.443517	0.002892	0.006497	0.001259	-1.078857	0.132080	-0.117676	0.144884	-0.516460	-0.104311	-0.837494	3.225630	-63.545829	-162.368470	-0.424555	-0.134934	0.895291	0.350424	-0.936256	0.025066	0.834839	0.324374	0.444776	0	0	0
57336	0	0	0	0	0	8.770103	0.185409	4.461089	0.001027	0.004556	0.001418	-1.080322	0.132568	-0.130371	0.144886	-0.516440	-0.104301	-0.837507	3.224010	-63.542997	-162.367378	-0.424595	-0.134955	0.895269	0.350417	-0.936258	0.025056	0.834822	0.324357	0.444821	0	0	0
57337	0	0	0	0	0	8.791052	0.208445	4.433382	-0.005317	0.009256	-0.001723	-1.086426	0.137939	-0.124023	0.144861	-0.516403	-0.104267	-0.837539	3.221593	-63.537149	-162.369779	-0.424687	-0.134965	0.895223	0.350341	-0.936288	0.025043	0.834807	0.324268	0.444913	0	0	0
57338	0	0	0	0	0	8.748185	0.173580	4.458437	-0.012800	0.011478	-0.001043	-1.083984	0.136230	-0.128174	0.144820	-0.516363	-0.104201	-0.837579	3.214433	-63.530279	-162.371349	-0.424793	-0.134986	0.895170	0.350208	-0.936339	0.024993	0.834808	0.324112	0.445024	0	0	0
57339	0	0	0	0	0	8.810908	0.195677	4.504690	-0.011911	0.015027	0.002870	-1.082275	0.142822	-0.127686	0.144804	-0.516307	-0.104124	-0.837626	3.202330	-63.521236	-162.366703	-0.424917	-0.135063	0.895100	0.350104	-0.936380	0.024907	0.834789	0.323961	0.445170	0	0	0
57340	0	0	0	0	0	8.768555	0.195816	4.431927	-0.000375	-0.001273	-0.003204	-1.080566	0.132080	-0.118408	0.144780	-0.516311	-0.104125	-0.837628	3.205593	-63.521591	-162.371964	-0.424924	-0.135023	0.895102	0.350065	-0.936393	0.024932	0.834802	0.323939	0.445163	0	0	0
57341	0	0	0	0	0	8.764679	0.167817	4.385424	-0.005104	0.006440	0.001230	-1.085938	0.131348	-0.123047	0.144771	-0.516286	-0.104087	-0.837649	3.199766	-63.517494	-162.369961	-0.424980	-0.135057	0.895071	0.350011	-0.936415	0.024890	0.834796	0.323863	0.445229	0	0	0
57342	0	0	0	0	0	8.776788	0.175828	4.443819	0.002867	0.003414	-0.001485	-1.081543	0.132813	-0.127686	0.144765	-0.516268	-0.104093	-0.837660	3.202611	-63.515223	-162.372680	-0.425021	-0.135048	0.895053	0.350007	-0.936416	0.024914	0.834777	0.323864	0.445264	0	0	0
57343	0	0	0	0	0	8.815779	0.182455	4.372302	0.000421	-0.018697	0.003116	-1.084473	0.130127	-0.126953	0.144760	-0.516346	-0.104091	-0.837614	3.199774	-63.525502	-162.370918	-0.424863	-0.135012	0.895133	0.349999	-0.936419	0.024883	0.834860	0.323868	0.445104	0	0	0
57344	0	0	0	0	0	8.740882	0.139679	4.300013	-0.006737	-0.021370	0.001508	-1.077393	0.137939	-0.131104	0.144729	-0.516440	-0.104067	-0.837564	3.195269	-63.537504	-162.371573	-0.424686	-0.134950	0.895226	0.349928	-0.936447	0.024838	0.834980	0.323813	0.444919	0	0	0
57345	0	0	0	0	0	8.745888	0.178549	4.312014	-0.016547	-0.030274	0.004339	-1.087402	0.136719	-0.125732	0.144680	-0.516578	-0.103999	-0.837496	3.181903	-63.554315	-162.368849	-0.424429	-0.134891	0.895357	0.349784	-0.936504	0.024720	0.835171	0.323674	0.444663	0	0	0
57346	0	0	0	0	0	8.800595	0.260900	4.523161	-0.023752	-0.026046	0.000032	-1.074951	0.130615	-0.120605	0.144596	-0.516704	-0.103911	-0.837444	3.169638	-63.568946	-162.371725	-0.424218	-0.134800	0.895471	0.349565	-0.936589	0.024612	0.835370	0.323466	0.444440	0	0	0
57347	0	0	0	0	0	8.814640	0.156955	4.594469	-0.019482	-0.016805	0.003170	-1.078125	0.130859	-0.129883	0.144542	-0.516788	-0.103824	-0.837412	3.155070	-63.578177	-162.369497	-0.424076	-0.134773	0.895542	0.349392	-0.936656	0.024491	0.835515	0.323282	0.444302	0	0	0
57348	0	0	0	0	0	8.773218	0.156622	4.519813	-0.007270	-0.013669	0.000841	-1.082764	0.136230	-0.135010	0.144511	-0.516850	-0.103794	-0.837382	3.150521	-63.585753	-162.370444	-0.423965	-0.134730	0.895601	0.349314	-0.936687	0.024449	0.835604	0.323211	0.444186	0	0	0
57349	0	0	0	0	0	8.752814	0.180112	4.417218	0.013690	-0.007928	0.004947	-1.081543	0.134277	-0.117188	0.144554	-0.516872	-0.103834	-0.837357	3.152388	-63.589653	-162.365511	-0.423895	-0.134748	0.895631	0.349423	-0.936646	0.024460	0.835593	0.323323	0.444124	0	0	0
57350	0	0	0	0	0	8.812823	0.198378	4.349905	0.017282	-0.005052	0.007122	-1.082275	0.135498	-0.129395	0.144617	-0.516884	-0.103884	-0.837332	3.154124	-63.592497	-162.357768	-0.423835	-0.134792	0.895654	0.349576	-0.936588	0.024471	0.835560	0.323471	0.444079	0	0	0
57351	0	0	0	0	0	8.842749	0.190297	4.364872	0.016692	-0.003508	0.000966	-1.081543	0.132324	-0.128174	0.144655	-0.516885	-0.103945	-0.837318	3.161905	-63.594034	-162.357259	-0.423811	-0.134789	0.895665	0.349699	-0.936541	0.024530	0.835521	0.323609	0.444051	0	0	0
57352	0	0	0	0	0	8.813044	0.176228	4.414065	0.015452	-0.005250	-0.003406	-1.077637	0.132324	-0.127441	0.144669	-0.516893	-0.104015	-0.837301	3.174736	-63.596659	-162.363075	-0.423785	-0.134733	0.895686	0.349792	-0.936504	0.024627	0.835495	0.323740	0.444005	0	0	0
57353	0	0	0	0	0	8.817271	0.216844	4.427629	0.015289	-0.009341	-0.003658	-1.075684	0.140869	-0.125977	0.144678	-0.516916	-0.104085	-0.837277	3.187584	-63.601233	-162.369434	-0.423732	-0.134665	0.895721	0.349877	-0.936469	0.024723	0.835486	0.323868	0.443928	0	0	0
57354	0	0	0	0	0	8.796567	0.218088	4.390174	0.014075	-0.007999	-0.005283	-1.077393	0.133789	-0.124023	0.144679	-0.516936	-0.104156	-0.837255	3.201970	-63.605370	-162.377867	-0.423690	-0.134583	0.895753	0.349951	-0.936439	0.024831	0.835477	0.323990	0.443857	0	0	0
57355	0	0	0	0	0	8.805524	0.210926	4.368237	0.013725	-0.006189	-0.005741	-1.085205	0.135742	-0.124756	0.144682	-0.516946	-0.104224	-0.837240	3.215750	-63.608151	-162.385839	-0.423667	-0.134510	0.895775	0.350022	-0.936409	0.024935	0.835458	0.324106	0.443808	0	0	0
57356	0	0	0	0	0	8.788349	0.228342	4.410478	0.012914	-0.000489	-0.001417	-1.080322	0.133789	-0.127686	0.144700	-0.516938	-0.104275	-0.837236	3.224533	-63.608114	-162.388759	-0.423675	-0.134489	0.895775	0.350103	-0.936378	0.025003	0.835421	0.324206	0.443805	0	0	0
57357	0	0	0	0	0	8.797114	0.209114	4.421311	0.016533	-0.007602	0.000714	-1.084473	0.135742	-0.126221	0.144734	-0.516955	-0.104338	-0.837211	3.232792	-63.611890	-162.388902	-0.423619	-0.134470	0.895804	0.350222	-0.936331	0.025064	0.835399	0.324348	0.443742	0	0	0
57358	0	0	0	0	0	8.797555	0.221446	4.388026	0.019100	-0.009284	0.001470	-1.081787	0.130615	-0.123535	0.144776	-0.516980	-0.104414	-0.837179	3.242364	-63.616977	-162.388745	-0.423543	-0.134447	0.895843	0.350367	-0.936275	0.025133	0.835377	0.324519	0.443658	0	0	0
57359	0	0	0	0	0	8.836224	0.193867	4.413909	0.017535	-0.006132	-0.000614	-1.075195	0.136963	-0.125977	0.144807	-0.516990	-0.104484	-0.837159	3.252736	-63.619910	-162.390715	-0.423504	-0.134419	0.895866	0.350487	-0.936228	0.025211	0.835346	0.324666	0.443608	0	0	0
57360	0	0	0	0	0	8.798150	0.211426	4.419138	0.017022	-0.008413	-0.001322	-1.077881	0.135498	-0.123779	0.144832	-0.517012	-0.104557	-0.837132	3.264285	-63.624407	-162.394094	-0.423445	-0.134373	0.895901	0.350602	-0.936183	0.025297	0.835328	0.324816	0.443533	0	0	0
57361	0	0	0	0	0	8.789904	0.220491	4.439576	0.016023	-0.009887	0.000006	-1.072998	0.137207	-0.124756	0.144862	-0.517039	-0.104622	-0.837102	3.273064	-63.629484	-162.395094	-0.423371	-0.134341	0.895940	0.350716	-0.936139	0.025360	0.835317	0.324957	0.443450	0	0	0
57362	0	0	0	0	0	8.798989	0.212781	4.417404	0.010241	-0.009810	0.000282	-1.075684	0.136475	-0.125732	0.144876	-0.517072	-0.104664	-0.837074	3.278973	-63.634833	-162.396515	-0.423295	-0.134305	0.895982	0.350781	-0.936113	0.025401	0.835329	0.325045	0.443364	0	0	0
57363	0	0	0	0	0	8.820610	0.236299	4.388170	0.003729	-0.009197	-0.003105	-1.073975	0.138672	-0.126221	0.144861	-0.517104	-0.104685	-0.837055	3.284201	-63.639388	-162.401403	-0.423238	-0.134248	0.896017	0.350779	-0.936113	0.025437	0.835358	0.325070	0.443290	0	0	0
57364	0	0	0	0	0	8.821099	0.236462	4.387178	0.001594	-0.013147	0.002048	-1.084717	0.135742	-0.122314	0.144858	-0.517158	-0.104689	-0.837021	3.283339	-63.646704	-162.400796	-0.423128	-0.134218	0.896074	0.350780	-0.936113	0.025424	0.835414	0.325082	0.443176	0	0	0
57365	0	0	0	0	0	8.800424	0.224986	4.382090	-0.001189	-0.008651	-0.001663	-1.075684	0.133545	-0.118652	0.144838	-0.517191	-0.104685	-0.837004	3.284061	-63.651037	-162.403671	-0.423070	-0.134176	0.896107	0.350745	-0.936126	0.025426	0.835458	0.325062	0.443108	0	0	0
57366	0	0	0	0	0	8.842967	0.236361	4.422294	-0.000162	-0.004091	-0.000248	-1.084229	0.133545	-0.118896	0.144826	-0.517208	-0.104681	-0.836997	3.284245	-63.653097	-162.405354	-0.423043	-0.134154	0.896123	0.350721	-0.936135	0.025425	0.835481	0.325045	0.443076	0	0	0
57367	0	0	0	0	0	8.818055	0.196684	4.371254	-0.004567	-0.001265	0.001902	-1.071777	0.137207	-0.121094	0.144813	-0.517216	-0.104649	-0.836998	3.278661	-63.653494	-162.403572	-0.423033	-0.134165	0.896127	0.350669	-0.936155	0.025382	0.835508	0.324981	0.443072	0	0	0
57368	0	0	0	0	0	8.818074	0.196330	4.371232	-0.004918	0.000547	0.001443	-1.079102	0.138916	-0.127686	0.144798	-0.517217	-0.104617	-0.837004	3.273859	-63.652957	-162.402732	-0.423039	-0.134174	0.896122	0.350612	-0.936178	0.025345	0.835529	0.324914	0.443083	0	0	0
57369	0	0	0	0	0	8.817994	0.195935	4.371409	-0.003540	0.003295	0.003317	-1.075195	0.133545	-0.120117	0.144800	-0.517205	-0.104582	-0.837015	3.266607	-63.650593	-162.398217	-0.423064	-0.134218	0.896104	0.350580	-0.936191	0.025291	0.835530	0.324855	0.443123	0	0	0
57370	0	0	0	0	0	8.817781	0.195616	4.371854	-0.000676	0.006710	0.001826	-1.075439	0.130371	-0.121338	0.144800	-0.517178	-0.104562	-0.837034	3.263388	-63.646542	-162.396431	-0.423120	-0.134251	0.896073	0.350560	-0.936199	0.025270	0.835510	0.324819	0.443188	0	0	0
57371	0	0	0	0	0	8.808803	0.203893	4.393814	0.019645	0.009157	0.007700	-1.082520	0.129883	-0.124268	0.144878	-0.517128	-0.104608	-0.837046	3.264387	-63.641088	-162.386782	-0.423179	-0.134348	0.896030	0.350730	-0.936135	0.025282	0.835409	0.324964	0.443272	0	0	0
57372	0	0	0	0	0	8.757660	0.201212	4.374787	0.012079	0.002122	0.000155	-1.077148	0.136719	-0.131348	0.144902	-0.517109	-0.104649	-0.837048	3.270706	-63.639607	-162.387485	-0.423202	-0.134349	0.896019	0.350810	-0.936104	0.025333	0.835363	0.325053	0.443293	0	0	0
57373	0	0	0	0	0	8.808481	0.227450	4.329620	0.000919	0.006643	0.006654	-1.080322	0.135986	-0.120117	0.144926	-0.517081	-0.104621	-0.837065	3.262324	-63.635346	-162.379263	-0.423247	-0.134430	0.895986	0.350820	-0.936102	0.025272	0.835337	0.325026	0.443363	0	0	0
57374	0	0	0	0	0	8.808040	0.204052	4.395337	0.010054	0.009170	0.002850	-1.080811	0.138916	-0.117432	0.144960	-0.517036	-0.104642	-0.837084	3.263909	-63.629922	-162.375978	-0.423320	-0.134480	0.895944	0.350895	-0.936073	0.025289	0.835268	0.325087	0.443447	0	0	0
57375	0	0	0	0	0	8.778101	0.200921	4.412759	0.004647	-0.002556	0.003549	-1.076172	0.129883	-0.125488	0.144981	-0.517044	-0.104646	-0.837075	3.261536	-63.631131	-162.371534	-0.423291	-0.134507	0.895953	0.350933	-0.936059	0.025269	0.835267	0.325116	0.443429	0	0	0
57376	0	0	0	0	0	8.795264	0.172543	4.402871	0.003622	0.005965	0.004914	-1.081055	0.127686	-0.127686	0.145005	-0.517019	-0.104637	-0.837088	3.257266	-63.627607	-162.365827	-0.423330	-0.134566	0.895926	0.350963	-0.936049	0.025239	0.835234	0.325121	0.443486	0	0	0
57377	0	0	0	0	0	8.777863	0.200575	4.413248	0.010107	0.002262	0.005558	-1.073242	0.133545	-0.118896	0.145042	-0.517002	-0.104652	-0.837090	3.256017	-63.625855	-162.360108	-0.423343	-0.134617	0.895912	0.351037	-0.936021	0.025231	0.835197	0.325180	0.443514	0	0	0
57378	0	0	0	0	0	8.811435	0.231580	4.442983	0.005189	0.002811	0.007000	-1.077637	0.129150	-0.122559	0.145078	-0.516990	-0.104646	-0.837092	3.250448	-63.624203	-162.351948	-0.423349	-0.134685	0.895900	0.351089	-0.936003	0.025190	0.835172	0.325204	0.443542	0	0	0
57379	0	0	0	0	0	8.790189	0.219762	4.439048	0.001243	0.001744	0.004369	-1.078613	0.132324	-0.122559	0.145089	-0.516982	-0.104628	-0.837097	3.245297	-63.622898	-162.347262	-0.423357	-0.134726	0.895889	0.351090	-0.936004	0.025151	0.835168	0.325185	0.443565	0	0	0
57380	0	0	0	0	0	8.828476	0.202706	4.433362	-0.002188	0.002958	0.002446	-1.081787	0.139404	-0.131592	0.145087	-0.516972	-0.104604	-0.837107	3.240746	-63.621013	-162.344956	-0.423380	-0.134752	0.895875	0.351060	-0.936016	0.025117	0.835168	0.325140	0.443596	0	0	0
57381	0	0	0	0	0	8.789836	0.207655	4.472164	-0.002403	0.005773	-0.000510	-1.084717	0.133301	-0.120361	0.145074	-0.516946	-0.104581	-0.837128	3.238621	-63.617051	-162.345598	-0.423440	-0.134766	0.895844	0.351017	-0.936032	0.025104	0.835156	0.325087	0.443659	0	0	0
57382	0	0	0	0	0	8.810898	0.242068	4.411719	-0.006971	0.004510	0.001391	-1.082275	0.126953	-0.125732	0.145056	-0.516932	-0.104538	-0.837145	3.232445	-63.614244	-162.344537	-0.423480	-0.134787	0.895822	0.350943	-0.936061	0.025059	0.835167	0.324995	0.443705	0	0	0
57383	0	0	0	0	0	8.768495	0.218932	4.403639	-0.003081	-0.000598	-0.001464	-1.077881	0.134033	-0.125977	0.145030	-0.516935	-0.104519	-0.837150	3.231868	-63.614044	-162.347729	-0.423490	-0.134764	0.895821	0.350883	-0.936084	0.025055	0.835187	0.324938	0.443709	0	0	0
57384	0	0	0	0	0	8.798249	0.210417	4.418989	-0.004432	-0.000259	-0.000595	-1.083252	0.135498	-0.117676	0.145007	-0.516938	-0.104495	-0.837155	3.229747	-63.613901	-162.349572	-0.423497	-0.134751	0.895820	0.350822	-0.936108	0.025038	0.835210	0.324877	0.443712	0	0	0
57385	0	0	0	0	0	8.759821	0.226884	4.424981	-0.007485	0.002230	0.000685	-1.073486	0.135742	-0.121094	0.144984	-0.516933	-0.104451	-0.837168	3.223619	-63.612185	-162.348994	-0.423521	-0.134764	0.895806	0.350741	-0.936139	0.024992	0.835231	0.324781	0.443741	0	0	0
57386	0	0	0	0	0	8.777108	0.209917	4.382469	-0.007648	-0.001860	0.000437	-1.079590	0.138672	-0.121826	0.144956	-0.516945	-0.104412	-0.837170	3.218571	-63.612992	-162.349625	-0.423510	-0.134755	0.895813	0.350657	-0.936171	0.024953	0.835272	0.324691	0.443731	0	0	0
57387	0	0	0	0	0	8.776984	0.197905	4.415116	-0.006971	0.004509	0.001392	-1.080566	0.140381	-0.130371	0.144941	-0.516930	-0.104367	-0.837187	3.211566	-63.609993	-162.347585	-0.423550	-0.134785	0.895789	0.350587	-0.936199	0.024901	0.835281	0.324599	0.443781	0	0	0
57388	0	0	0	0	0	8.776821	0.185865	4.447838	-0.010214	-0.000179	-0.000320	-1.081055	0.127930	-0.127441	0.144905	-0.516938	-0.104319	-0.837195	3.205811	-63.609813	-162.349068	-0.423556	-0.134774	0.895788	0.350479	-0.936241	0.024857	0.835323	0.324483	0.443786	0	0	0
57389	0	0	0	0	0	8.806613	0.188581	4.430748	-0.006269	0.000886	0.002311	-1.079102	0.129883	-0.119141	0.144890	-0.516936	-0.104276	-0.837204	3.198676	-63.608673	-162.346770	-0.423568	-0.134797	0.895779	0.350412	-0.936267	0.024802	0.835345	0.324397	0.443807	0	0	0
57390	0	0	0	0	0	8.797906	0.196498	4.452157	-0.006133	0.001891	-0.000185	-1.080811	0.133789	-0.119629	0.144865	-0.516932	-0.104242	-0.837215	3.194969	-63.607314	-162.347931	-0.423591	-0.134795	0.895769	0.350339	-0.936295	0.024775	0.835364	0.324317	0.443830	0	0	0
57391	0	0	0	0	0	8.768078	0.204622	4.436974	-0.007484	0.002229	0.000685	-1.083252	0.135010	-0.121582	0.144840	-0.516927	-0.104197	-0.837228	3.189048	-63.605680	-162.347825	-0.423615	-0.134803	0.895756	0.350253	-0.936328	0.024730	0.835388	0.324218	0.443858	0	0	0
57392	0	0	0	0	0	8.789018	0.204042	4.473937	-0.006970	0.004508	0.001392	-1.076416	0.137207	-0.121094	0.144821	-0.516914	-0.104154	-0.837245	3.182876	-63.602874	-162.346769	-0.423654	-0.134824	0.895734	0.350179	-0.936357	0.024685	0.835399	0.324126	0.443904	0	0	0
57393	0	0	0	0	0	8.797604	0.207108	4.420429	-0.004782	0.001552	-0.001054	-1.082275	0.136719	-0.121094	0.144799	-0.516908	-0.104127	-0.837255	3.180245	-63.601504	-162.348251	-0.423678	-0.134820	0.895723	0.350116	-0.936381	0.024666	0.835413	0.324058	0.443927	0	0	0
57394	0	0	0	0	0	8.784980	0.175479	4.427618	-0.007133	0.000417	0.001144	-1.083740	0.129150	-0.124268	0.144777	-0.516912	-0.104087	-0.837262	3.174529	-63.601029	-162.347808	-0.423684	-0.134825	0.895720	0.350040	-0.936411	0.024622	0.835442	0.323970	0.443937	0	0	0
57395	0	0	0	0	0	8.780243	0.223018	4.463136	-0.004918	0.000547	0.001441	-1.080078	0.131592	-0.128174	0.144762	-0.516912	-0.104053	-0.837269	3.169275	-63.600277	-162.346709	-0.423693	-0.134837	0.895714	0.349981	-0.936434	0.024582	0.835463	0.323898	0.443951	0	0	0
57396	0	0	0	0	0	8.827300	0.209301	4.403567	-0.008348	0.001760	-0.000482	-1.082275	0.133545	-0.116455	0.144730	-0.516909	-0.104010	-0.837281	3.164652	-63.598983	-162.348262	-0.423716	-0.134832	0.895704	0.349888	-0.936470	0.024547	0.835490	0.323797	0.443973	0	0	0
57397	0	0	0	0	0	8.767775	0.214330	4.405298	-0.007161	-0.002669	-0.001601	-1.084473	0.134277	-0.125000	0.144694	-0.516923	-0.103977	-0.837283	3.161835	-63.599978	-162.351381	-0.423708	-0.134804	0.895712	0.349796	-0.936505	0.024525	0.835532	0.323708	0.443959	0	0	0
57398	0	0	0	0	0	8.797531	0.205587	4.420647	-0.010564	0.001629	-0.000780	-1.077637	0.138428	-0.126465	0.144656	-0.516923	-0.103926	-0.837296	3.156293	-63.598749	-162.353327	-0.423731	-0.134795	0.895702	0.349683	-0.936548	0.024483	0.835568	0.323586	0.443980	0	0	0
57399	0	0	0	0	0	8.776424	0.193802	4.416411	-0.005946	-0.004012	0.000025	-1.077393	0.132568	-0.128906	0.144632	-0.516941	-0.103895	-0.837293	3.152114	-63.600443	-162.353859	-0.423707	-0.134783	0.895715	0.349614	-0.936575	0.024449	0.835609	0.323514	0.443956	0	0	0
57400	0	0	0	0	0	8.776463	0.182057	4.448703	-0.003944	-0.001066	-0.002632	-1.083252	0.136230	-0.125732	0.144601	-0.516946	-0.103879	-0.837297	3.152670	-63.600699	-162.358378	-0.423714	-0.134749	0.895717	0.349548	-0.936599	0.024453	0.835633	0.323457	0.443951	0	0	0
57401	0	0	0	0	0	8.785179	0.173731	4.427292	-0.004080	-0.002071	-0.000136	-1.085449	0.139404	-0.126465	0.144581	-0.516955	-0.103854	-0.837298	3.149769	-63.601215	-162.359372	-0.423709	-0.134739	0.895721	0.349490	-0.936622	0.024430	0.835660	0.323397	0.443945	0	0	0
57402	0	0	0	0	0	8.776667	0.181923	4.448306	-0.000163	-0.004090	-0.000250	-1.080566	0.122559	-0.124268	0.144568	-0.516971	-0.103850	-0.837291	3.149939	-63.603275	-162.361042	-0.423682	-0.134717	0.895737	0.349466	-0.936631	0.024429	0.835684	0.323380	0.443912	0	0	0
57403	0	0	0	0	0	8.797985	0.205026	4.419769	0.000000	-0.000000	0.000000	-1.076904	0.125488	-0.134033	0.144557	-0.516969	-0.103839	-0.837296	3.149355	-63.602688	-162.362247	-0.423693	-0.134711	0.895733	0.349438	-0.936641	0.024425	0.835690	0.323352	0.443922	0	0	0
57404	0	0	0	0	0	8.768280	0.202022	4.436695	0.004754	-0.004636	-0.001691	-1.074707	0.137451	-0.125732	0.144551	-0.516983	-0.103860	-0.837285	3.154039	-63.605015	-162.365811	-0.423667	-0.134673	0.895751	0.349449	-0.936636	0.024460	0.835698	0.323382	0.443883	0	0	0
57405	0	0	0	0	0	8.785778	0.185804	4.393713	0.002538	-0.004766	-0.001989	-1.078613	0.136475	-0.123291	0.144535	-0.516996	-0.103868	-0.837279	3.157422	-63.606901	-162.369986	-0.423649	-0.134634	0.895765	0.349430	-0.936642	0.024484	0.835715	0.323380	0.443852	0	0	0
57406	0	0	0	0	0	8.789859	0.225639	4.407607	0.001702	-0.002149	-0.000411	-1.071289	0.135498	-0.121338	0.144528	-0.517003	-0.103870	-0.837276	3.158723	-63.607845	-162.371726	-0.423639	-0.134616	0.895773	0.349421	-0.936645	0.024494	0.835724	0.323379	0.443837	0	0	0
57407	0	0	0	0	0	8.798574	0.205827	4.418558	0.002052	-0.003960	0.000048	-1.080078	0.136719	-0.124268	0.144524	-0.517016	-0.103872	-0.837268	3.159037	-63.609606	-162.372224	-0.423614	-0.134604	0.895786	0.349418	-0.936647	0.024495	0.835738	0.323381	0.443810	0	0	0
57408	0	0	0	0	0	8.777622	0.194414	4.414003	0.003268	-0.005304	0.001673	-1.078369	0.132324	-0.126465	0.144528	-0.517036	-0.103878	-0.837254	3.159033	-63.612421	-162.371505	-0.423570	-0.134596	0.895808	0.349431	-0.936642	0.024492	0.835755	0.323398	0.443766	0	0	0
57409	0	0	0	0	0	8.820281	0.228910	4.389223	0.001403	-0.007245	0.001835	-1.084473	0.136719	-0.112793	0.144528	-0.517064	-0.103875	-0.837238	3.157288	-63.616019	-162.370237	-0.423514	-0.134589	0.895836	0.349428	-0.936643	0.024475	0.835785	0.323396	0.443710	0	0	0
57410	0	0	0	0	0	8.769504	0.202562	4.434251	0.000701	-0.003623	0.000917	-1.077637	0.141602	-0.125977	0.144523	-0.517078	-0.103871	-0.837230	3.156578	-63.617848	-162.370371	-0.423487	-0.134579	0.895850	0.349416	-0.936648	0.024468	0.835803	0.323387	0.443682	0	0	0
57411	0	0	0	0	0	8.799547	0.205668	4.416628	0.001403	-0.007246	0.001835	-1.082764	0.133301	-0.127441	0.144528	-0.517107	-0.103869	-0.837212	3.154467	-63.621669	-162.368110	-0.423424	-0.134578	0.895880	0.349424	-0.936646	0.024449	0.835832	0.323394	0.443623	0	0	0
57412	0	0	0	0	0	8.791194	0.225613	4.404945	-0.002244	-0.003216	-0.003042	-1.082275	0.132568	-0.132080	0.144499	-0.517120	-0.103863	-0.837210	3.156611	-63.623140	-162.373313	-0.423415	-0.134532	0.895891	0.349371	-0.936665	0.024464	0.835859	0.323357	0.443599	0	0	0
57413	0	0	0	0	0	8.778907	0.194475	4.411445	0.005807	-0.010072	-0.000316	-1.079346	0.125488	-0.123535	0.144497	-0.517154	-0.103885	-0.837186	3.160232	-63.628127	-162.375411	-0.423345	-0.134493	0.895930	0.349391	-0.936657	0.024488	0.835885	0.323397	0.443520	0	0	0
57414	0	0	0	0	0	8.796402	0.166418	4.400832	-0.002730	-0.002410	-0.001005	-1.072754	0.125977	-0.125244	0.144476	-0.517165	-0.103871	-0.837185	3.159697	-63.629202	-162.377935	-0.423335	-0.134469	0.895938	0.349343	-0.936675	0.024483	0.835911	0.323354	0.443503	0	0	0
57415	0	0	0	0	0	8.800521	0.206070	4.414668	0.002403	-0.005773	0.000506	-1.082764	0.135498	-0.134033	0.144464	-0.517185	-0.103871	-0.837174	3.160615	-63.631922	-162.379917	-0.423299	-0.134442	0.895959	0.349325	-0.936682	0.024488	0.835937	0.323346	0.443460	0	0	0
57416	0	0	0	0	0	8.779576	0.194690	4.410103	0.002053	-0.003961	0.000047	-1.089844	0.140137	-0.116943	0.144459	-0.517200	-0.103876	-0.837166	3.161705	-63.633917	-162.381196	-0.423273	-0.134423	0.895975	0.349321	-0.936683	0.024494	0.835952	0.323350	0.443429	0	0	0
57417	0	0	0	0	0	8.779798	0.206411	4.377244	0.002053	-0.003961	0.000047	-1.073242	0.141357	-0.126953	0.144458	-0.517212	-0.103879	-0.837158	3.161983	-63.635589	-162.381317	-0.423248	-0.134414	0.895988	0.349323	-0.936682	0.024495	0.835963	0.323357	0.443403	0	0	0
57418	0	0	0	0	0	8.801082	0.206213	4.413542	-0.001514	-0.003753	0.000621	-1.078613	0.139160	-0.126465	0.144446	-0.517228	-0.103866	-0.837151	3.160355	-63.637483	-162.381843	-0.423221	-0.134401	0.896002	0.349292	-0.936694	0.024481	0.835990	0.323327	0.443374	0	0	0
57419	0	0	0	0	0	8.830977	0.197608	4.428609	0.002432	-0.002687	0.003251	-1.080811	0.132568	-0.118652	0.144462	-0.517236	-0.103861	-0.837145	3.156802	-63.638441	-162.377432	-0.423196	-0.134429	0.896010	0.349312	-0.936687	0.024452	0.835994	0.323336	0.443360	0	0	0
57420	0	0	0	0	0	8.818664	0.177671	4.402769	0.000053	-0.006909	0.002705	-1.084473	0.131348	-0.121826	0.144461	-0.517265	-0.103852	-0.837128	3.153865	-63.642206	-162.375496	-0.423136	-0.134426	0.896039	0.349303	-0.936691	0.024426	0.836029	0.323325	0.443303	0	0	0
57421	0	0	0	0	0	8.768002	0.174492	4.382802	-0.004594	-0.004351	-0.000842	-1.082031	0.140137	-0.129150	0.144434	-0.517285	-0.103829	-0.837123	3.151802	-63.644245	-162.377816	-0.423111	-0.134399	0.896055	0.349236	-0.936717	0.024409	0.836069	0.323262	0.443272	0	0	0
57422	0	0	0	0	0	8.801831	0.205457	4.412084	-0.005431	-0.001733	0.000736	-1.076660	0.135986	-0.116211	0.144413	-0.517296	-0.103798	-0.837124	3.147667	-63.644987	-162.378049	-0.423100	-0.134394	0.896061	0.349172	-0.936742	0.024376	0.836101	0.323193	0.443262	0	0	0
57423	0	0	0	0	0	8.819081	0.165367	4.434384	-0.003215	-0.001604	0.001032	-1.078369	0.131592	-0.118408	0.144404	-0.517303	-0.103775	-0.837124	3.143563	-63.645408	-162.376729	-0.423091	-0.134401	0.896064	0.349134	-0.936757	0.024344	0.836122	0.323146	0.443257	0	0	0
57424	0	0	0	0	0	8.780866	0.205175	4.375159	-0.004080	-0.002072	-0.000134	-1.077393	0.136475	-0.122559	0.144383	-0.517314	-0.103753	-0.837123	3.141227	-63.646316	-162.378107	-0.423080	-0.134387	0.896071	0.349077	-0.936778	0.024325	0.836151	0.323090	0.443244	0	0	0
57425	0	0	0	0	0	8.802031	0.193147	4.444143	-0.003215	-0.001604	0.001032	-1.083496	0.131836	-0.115234	0.144370	-0.517322	-0.103728	-0.837124	3.137417	-63.646806	-162.377502	-0.423072	-0.134389	0.896075	0.349032	-0.936796	0.024295	0.836174	0.323037	0.443238	0	0	0
57426	0	0	0	0	0	8.789584	0.173291	4.418556	-0.002730	-0.002410	-0.001005	-1.082764	0.140869	-0.118408	0.144348	-0.517332	-0.103714	-0.837123	3.136882	-63.647881	-162.380026	-0.423062	-0.134365	0.896083	0.348983	-0.936814	0.024290	0.836199	0.322994	0.443221	0	0	0
57427	0	0	0	0	0	8.802191	0.193062	4.443829	-0.001730	-0.000936	-0.002333	-1.077148	0.137695	-0.117188	0.144329	-0.517335	-0.103705	-0.837125	3.137618	-63.648032	-162.383144	-0.423067	-0.134342	0.896084	0.348943	-0.936829	0.024296	0.836214	0.322961	0.443219	0	0	0
57428	0	0	0	0	0	8.789734	0.161660	4.450687	-0.006810	-0.004482	-0.001139	-1.075195	0.132080	-0.122559	0.144295	-0.517358	-0.103676	-0.837121	3.135031	-63.650288	-162.385987	-0.423040	-0.134310	0.896102	0.348860	-0.936861	0.024274	0.836262	0.322883	0.443185	0	0	0
57429	0	0	0	0	0	8.768925	0.185134	4.348562	0.000674	-0.006710	-0.001828	-1.082031	0.136719	-0.123291	0.144278	-0.517383	-0.103679	-0.837108	3.136993	-63.653611	-162.389283	-0.422998	-0.134270	0.896127	0.348836	-0.936869	0.024286	0.836293	0.322874	0.443132	0	0	0
57430	0	0	0	0	0	8.820027	0.176449	4.400087	-0.002864	-0.003416	0.001491	-1.082031	0.129150	-0.127930	0.144266	-0.517399	-0.103658	-0.837102	3.133562	-63.655339	-162.388661	-0.422971	-0.134266	0.896141	0.348797	-0.936884	0.024258	0.836323	0.322831	0.443106	0	0	0
57431	0	0	0	0	0	8.781771	0.204691	4.373366	-0.003081	-0.000598	-0.001463	-1.075195	0.130127	-0.119873	0.144242	-0.517400	-0.103639	-0.837108	3.132788	-63.654986	-162.391494	-0.422983	-0.134247	0.896138	0.348739	-0.936906	0.024252	0.836341	0.322776	0.443112	0	0	0
57432	0	0	0	0	0	8.790492	0.184598	4.384324	-0.004728	-0.005358	0.001653	-1.079834	0.136475	-0.125244	0.144225	-0.517426	-0.103612	-0.837098	3.128225	-63.657831	-162.390800	-0.422939	-0.134239	0.896160	0.348685	-0.936927	0.024215	0.836386	0.322719	0.443070	0	0	0
57433	0	0	0	0	0	8.790663	0.172714	4.416431	-0.001513	-0.003754	0.000620	-1.075195	0.135986	-0.119629	0.144213	-0.517441	-0.103596	-0.837093	3.126057	-63.659441	-162.391066	-0.422915	-0.134229	0.896173	0.348649	-0.936941	0.024197	0.836413	0.322683	0.443045	0	0	0
57434	0	0	0	0	0	8.803492	0.203966	4.408838	-0.001676	-0.007847	0.000370	-1.082275	0.139160	-0.124268	0.144197	-0.517474	-0.103587	-0.837077	3.124881	-63.663670	-162.392200	-0.422855	-0.134201	0.896205	0.348615	-0.936954	0.024184	0.836458	0.322657	0.442980	0	0	0
57435	0	0	0	0	0	8.791085	0.160962	4.448043	-0.001730	-0.000936	-0.002333	-1.083496	0.128906	-0.119629	0.144178	-0.517476	-0.103578	-0.837080	3.125507	-63.663599	-162.395279	-0.422863	-0.134178	0.896205	0.348574	-0.936969	0.024189	0.836471	0.322622	0.442981	0	0	0
57436	0	0	0	0	0	8.803814	0.203972	4.408195	0.001919	-0.004968	0.002541	-1.078369	0.132324	-0.121338	0.144182	-0.517496	-0.103576	-0.837067	3.123699	-63.666249	-162.393410	-0.422819	-0.134180	0.896225	0.348579	-0.936968	0.024173	0.836491	0.322626	0.442940	0	0	0
57437	0	0	0	0	0	8.774164	0.200500	4.425116	-0.003700	-0.000798	0.003070	-1.070801	0.134521	-0.128418	0.144173	-0.517502	-0.103542	-0.837069	3.117488	-63.666322	-162.390712	-0.422812	-0.134199	0.896226	0.348533	-0.936986	0.024124	0.836514	0.322564	0.442942	0	0	0
57438	0	0	0	0	0	8.833815	0.195013	4.423060	-0.000163	-0.004092	-0.000250	-1.072510	0.138184	-0.125488	0.144161	-0.517518	-0.103538	-0.837062	3.117658	-63.668383	-162.392381	-0.422785	-0.134177	0.896242	0.348509	-0.936995	0.024124	0.836537	0.322547	0.442909	0	0	0
57439	0	0	0	0	0	8.800240	0.163909	4.393247	0.001702	-0.002150	-0.000412	-1.077148	0.132568	-0.120605	0.144155	-0.517522	-0.103537	-0.837061	3.118162	-63.668853	-162.393495	-0.422781	-0.134167	0.896245	0.348498	-0.936999	0.024128	0.836544	0.322541	0.442902	0	0	0
57440	0	0	0	0	0	8.804241	0.203595	4.407359	0.000000	0.000000	0.000000	-1.075195	0.130615	-0.122070	0.144146	-0.517521	-0.103530	-0.837063	3.117878	-63.668580	-162.394554	-0.422787	-0.134160	0.896243	0.348477	-0.937007	0.024126	0.836550	0.322520	0.442906	0	0	0
57441	0	0	0	0	0	8.812806	0.183689	4.418623	-0.003432	0.001214	-0.001921	-1.081299	0.133301	-0.121338	0.144119	-0.517516	-0.103509	-0.837074	3.117349	-63.667297	-162.398044	-0.422814	-0.134141	0.896233	0.348411	-0.937031	0.024123	0.836563	0.322457	0.442926	0	0	0
57442	0	0	0	0	0	8.804005	0.191904	4.440284	-0.008052	0.006858	-0.002720	-1.080811	0.131836	-0.123291	0.144081	-0.517491	-0.103471	-0.837101	3.115164	-63.663016	-162.402129	-0.422888	-0.134131	0.896200	0.348311	-0.937069	0.024109	0.836568	0.322352	0.442994	0	0	0
57443	0	0	0	0	0	8.786360	0.207951	4.483697	-0.011208	0.011424	0.003803	-1.074219	0.134766	-0.120605	0.144064	-0.517451	-0.103396	-0.837138	3.102889	-63.656053	-162.397300	-0.422980	-0.134199	0.896146	0.348208	-0.937110	0.024020	0.836564	0.322205	0.443108	0	0	0
57444	0	0	0	0	0	8.807301	0.219043	4.488275	-0.004811	-0.001535	-0.003796	-1.081299	0.140625	-0.115723	0.144026	-0.517458	-0.103379	-0.837142	3.104330	-63.656541	-162.403360	-0.422987	-0.134152	0.896150	0.348130	-0.937138	0.024031	0.836593	0.322141	0.443100	0	0	0
57445	0	0	0	0	0	8.769843	0.171702	4.379228	-0.001893	-0.005028	-0.002584	-1.072266	0.132813	-0.122070	0.144004	-0.517477	-0.103373	-0.837134	3.105367	-63.658934	-162.406924	-0.422960	-0.134115	0.896169	0.348088	-0.937154	0.024037	0.836624	0.322112	0.443062	0	0	0
57446	0	0	0	0	0	8.782323	0.191501	4.404771	-0.000540	0.007716	-0.000665	-1.077393	0.139404	-0.124268	0.143995	-0.517445	-0.103360	-0.837158	3.105058	-63.654226	-162.408300	-0.423033	-0.134127	0.896132	0.348059	-0.937164	0.024039	0.836599	0.322076	0.443136	0	0	0
57447	0	0	0	0	0	8.799882	0.186661	4.329093	-0.006108	-0.021191	-0.003013	-1.079590	0.128662	-0.117432	0.143949	-0.517533	-0.103348	-0.837113	3.105308	-63.665658	-162.413993	-0.422876	-0.134031	0.896221	0.347974	-0.937196	0.024031	0.836714	0.322024	0.442957	0	0	0
57448	0	0	0	0	0	8.775876	0.135521	4.308496	-0.004350	-0.030254	-0.000724	-1.076904	0.125488	-0.120605	0.143910	-0.517662	-0.103346	-0.837040	3.105266	-63.682671	-162.418102	-0.422632	-0.133920	0.896352	0.347913	-0.937219	0.024016	0.836862	0.322003	0.442691	0	0	0
57449	0	0	0	0	0	8.738856	0.151932	4.311740	-0.015073	-0.032724	-0.001744	-1.076660	0.134277	-0.117188	0.143832	-0.517808	-0.103300	-0.836969	3.100338	-63.700888	-162.424460	-0.422375	-0.133787	0.896493	0.347744	-0.937283	0.023963	0.837062	0.321872	0.442409	0	0	0
57450	0	0	0	0	0	8.802985	0.238027	4.468710	-0.021174	-0.027754	0.000825	-1.073242	0.129395	-0.119385	0.143757	-0.517939	-0.103222	-0.836910	3.088706	-63.716519	-162.426392	-0.422147	-0.133699	0.896614	0.347549	-0.937358	0.023860	0.837259	0.321689	0.442169	0	0	0
57451	0	0	0	0	0	8.837931	0.244956	4.560932	-0.022257	-0.025406	-0.003294	-1.071777	0.138916	-0.123291	0.143662	-0.518058	-0.103145	-0.836862	3.080593	-63.730490	-162.433387	-0.421954	-0.133581	0.896722	0.347321	-0.937444	0.023785	0.837450	0.321487	0.441954	0	0	0
57452	0	0	0	0	0	8.801197	0.161786	4.547834	-0.009257	-0.016636	0.003511	-1.080078	0.128174	-0.122314	0.143636	-0.518135	-0.103102	-0.836824	3.071974	-63.739844	-162.431064	-0.421809	-0.133554	0.896794	0.347237	-0.937478	0.023711	0.837558	0.321402	0.441812	0	0	0
57453	0	0	0	0	0	8.785056	0.148819	4.377271	0.004137	-0.004840	0.002831	-1.073486	0.137939	-0.121094	0.143647	-0.518151	-0.103105	-0.836812	3.070498	-63.742053	-162.428507	-0.421771	-0.133563	0.896811	0.347258	-0.937470	0.023698	0.837569	0.321420	0.441778	0	0	0
57454	0	0	0	0	0	8.797842	0.203852	4.304652	0.016534	-0.007609	0.000685	-1.077148	0.125732	-0.121094	0.143679	-0.518171	-0.103171	-0.836786	3.079369	-63.746155	-162.429210	-0.421711	-0.133538	0.896843	0.347378	-0.937424	0.023763	0.837549	0.321565	0.441710	0	0	0
57455	0	0	0	0	0	8.853778	0.159564	4.287690	0.014671	-0.009554	0.000848	-1.079346	0.132324	-0.117188	0.143705	-0.518198	-0.103226	-0.836758	3.086644	-63.751055	-162.429825	-0.421639	-0.133510	0.896881	0.347476	-0.937386	0.023815	0.837544	0.321686	0.441631	0	0	0
57456	0	0	0	0	0	8.837043	0.153255	4.394514	0.012104	-0.007873	0.000096	-1.072998	0.136719	-0.123291	0.143724	-0.518222	-0.103275	-0.836734	3.093679	-63.755290	-162.431312	-0.421580	-0.133479	0.896914	0.347556	-0.937355	0.023865	0.837541	0.321789	0.441561	0	0	0
57457	0	0	0	0	0	8.807761	0.150753	4.410766	0.010695	-0.013711	-0.004524	-1.076660	0.128662	-0.112549	0.143718	-0.518266	-0.103331	-0.836700	3.104967	-63.762434	-162.438647	-0.421490	-0.133392	0.896969	0.347604	-0.937336	0.023946	0.837566	0.321883	0.441445	0	0	0
57458	0	0	0	0	0	8.820884	0.194691	4.369929	0.009830	-0.014181	-0.005690	-1.071045	0.136963	-0.115479	0.143704	-0.518315	-0.103390	-0.836666	3.117819	-63.770097	-162.448071	-0.421398	-0.133286	0.897028	0.347641	-0.937320	0.024039	0.837598	0.321974	0.441320	0	0	0
57459	0	0	0	0	0	8.855150	0.238326	4.365777	0.009860	-0.011094	-0.002944	-1.077393	0.128418	-0.125000	0.143702	-0.518352	-0.103437	-0.836637	3.126712	-63.775998	-162.453360	-0.421322	-0.133219	0.897073	0.347687	-0.937301	0.024102	0.837617	0.322055	0.441224	0	0	0
57460	0	0	0	0	0	8.804679	0.212452	4.410596	0.007191	-0.007330	0.001545	-1.082031	0.130615	-0.119629	0.143715	-0.518378	-0.103461	-0.836616	3.129222	-63.779967	-162.452939	-0.421262	-0.133204	0.897104	0.347732	-0.937284	0.024118	0.837628	0.322112	0.441161	0	0	0
57461	0	0	0	0	0	8.813595	0.204474	4.388584	0.007675	-0.008137	-0.000492	-1.079590	0.132568	-0.122803	0.143716	-0.518403	-0.103490	-0.836597	3.134166	-63.783962	-162.455562	-0.421208	-0.133166	0.897135	0.347763	-0.937271	0.024153	0.837642	0.322164	0.441096	0	0	0
57462	0	0	0	0	0	8.813888	0.216755	4.355362	0.010505	-0.007807	-0.004731	-1.078613	0.136475	-0.117432	0.143710	-0.518425	-0.103544	-0.836577	3.145900	-63.788006	-162.463306	-0.421166	-0.133090	0.897166	0.347810	-0.937252	0.024240	0.837644	0.322252	0.441028	0	0	0
57463	0	0	0	0	0	8.839988	0.169522	4.355812	0.011019	-0.005525	-0.004024	-1.072998	0.131104	-0.123779	0.143712	-0.518436	-0.103595	-0.836564	3.156291	-63.790471	-162.469352	-0.421143	-0.133034	0.897185	0.347864	-0.937230	0.024317	0.837633	0.322339	0.440985	0	0	0
57464	0	0	0	0	0	8.823123	0.186875	4.397852	0.011372	-0.007339	-0.003566	-1.073975	0.134033	-0.119873	0.143714	-0.518456	-0.103650	-0.836545	3.167142	-63.794284	-162.475558	-0.421100	-0.132970	0.897214	0.347922	-0.937206	0.024398	0.837630	0.322435	0.440921	0	0	0
57465	0	0	0	0	0	8.814746	0.219174	4.353504	0.010023	-0.007002	-0.002694	-1.075928	0.127686	-0.116699	0.143715	-0.518473	-0.103693	-0.836528	3.175614	-63.797547	-162.480410	-0.421063	-0.132919	0.897239	0.347968	-0.937187	0.024460	0.837630	0.322510	0.440866	0	0	0
57466	0	0	0	0	0	8.802477	0.200003	4.327421	0.006811	-0.008608	-0.001657	-1.076172	0.139404	-0.126953	0.143713	-0.518503	-0.103725	-0.836506	3.181717	-63.802146	-162.484238	-0.421003	-0.132869	0.897275	0.347997	-0.937176	0.024503	0.837648	0.322564	0.440792	0	0	0
57467	0	0	0	0	0	8.824042	0.200279	4.363297	0.006458	-0.006795	-0.002115	-1.077148	0.131836	-0.126221	0.143708	-0.518522	-0.103752	-0.836491	3.187403	-63.805317	-162.488109	-0.420965	-0.132826	0.897299	0.348018	-0.937167	0.024544	0.837659	0.322608	0.440740	0	0	0
57468	0	0	0	0	0	8.794613	0.197519	4.379912	0.001160	-0.007525	-0.003866	-1.075684	0.125000	-0.115234	0.143682	-0.518550	-0.103766	-0.836477	3.192771	-63.809225	-162.494725	-0.420922	-0.132759	0.897329	0.347989	-0.937176	0.024582	0.837692	0.322608	0.440676	0	0	0
57469	0	0	0	0	0	8.824622	0.200800	4.362099	-0.000290	-0.005103	0.002246	-1.078857	0.135254	-0.125488	0.143675	-0.518571	-0.103751	-0.836467	3.189799	-63.811601	-162.493714	-0.420884	-0.132755	0.897348	0.347964	-0.937186	0.024557	0.837722	0.322580	0.440640	0	0	0
57470	0	0	0	0	0	8.816330	0.208812	4.382881	-0.002152	-0.007048	0.002412	-1.084717	0.132080	-0.125977	0.143667	-0.518602	-0.103734	-0.836451	3.185937	-63.815436	-162.492159	-0.420823	-0.132748	0.897377	0.347934	-0.937198	0.024524	0.837765	0.322548	0.440582	0	0	0
57471	0	0	0	0	0	8.807976	0.216949	4.403788	-0.000513	-0.002283	-0.000707	-1.078125	0.137939	-0.120117	0.143654	-0.518608	-0.103725	-0.836451	3.185747	-63.815943	-162.493859	-0.420819	-0.132733	0.897381	0.347904	-0.937210	0.024522	0.837779	0.322522	0.440574	0	0	0
57472	0	0	0	0	0	8.795441	0.197089	4.378269	-0.002346	-0.001137	0.002203	-1.081299	0.138916	-0.119873	0.143647	-0.518615	-0.103703	-0.836451	3.181634	-63.816389	-162.492148	-0.420809	-0.132744	0.897385	0.347872	-0.937222	0.024490	0.837798	0.322480	0.440569	0	0	0
57473	0	0	0	0	0	8.833819	0.180087	4.372183	-0.002699	0.000677	0.001745	-1.074463	0.137207	-0.118408	0.143645	-0.518612	-0.103678	-0.836456	3.176736	-63.815486	-162.489493	-0.420816	-0.132768	0.897378	0.347843	-0.937234	0.024453	0.837806	0.322437	0.440585	0	0	0
57474	0	0	0	0	0	8.833741	0.179831	4.372352	0.000030	0.003090	0.002745	-1.072266	0.132080	-0.121338	0.143649	-0.518600	-0.103662	-0.836465	3.173080	-63.813531	-162.486774	-0.420839	-0.132797	0.897363	0.347833	-0.937238	0.024427	0.837799	0.322412	0.440617	0	0	0
57475	0	0	0	0	0	8.846180	0.199682	4.398067	0.015672	0.005010	0.002299	-1.077637	0.128174	-0.117920	0.143695	-0.518566	-0.103708	-0.836472	3.178031	-63.810146	-162.483855	-0.420883	-0.132834	0.897337	0.347952	-0.937193	0.024468	0.837727	0.322528	0.440668	0	0	0
57476	0	0	0	0	0	8.795160	0.208818	4.346181	0.011757	-0.006067	-0.000364	-1.080322	0.127686	-0.123047	0.143712	-0.518582	-0.103755	-0.836454	3.185302	-63.813331	-162.485826	-0.420840	-0.132805	0.897361	0.348027	-0.937164	0.024521	0.837718	0.322626	0.440615	0	0	0
57477	0	0	0	0	0	8.833544	0.203764	4.307419	-0.000099	0.002084	0.005240	-1.074707	0.129395	-0.125244	0.143721	-0.518574	-0.103729	-0.836460	3.178559	-63.811711	-162.480502	-0.420852	-0.132851	0.897349	0.348015	-0.937169	0.024470	0.837717	0.322589	0.440644	0	0	0
57478	0	0	0	0	0	8.812228	0.180530	4.336315	0.003886	0.007985	-0.000082	-1.074219	0.139893	-0.121094	0.143726	-0.518537	-0.103732	-0.836482	3.180084	-63.806867	-162.481095	-0.420925	-0.132870	0.897311	0.348026	-0.937165	0.024486	0.837675	0.322595	0.440719	0	0	0
57479	0	0	0	0	0	8.799287	0.201948	4.490652	0.002762	-0.007594	0.000961	-1.077148	0.128662	-0.127930	0.143725	-0.518564	-0.103737	-0.836465	3.180028	-63.810540	-162.480858	-0.420870	-0.132854	0.897340	0.348031	-0.937163	0.024483	0.837701	0.322606	0.440661	0	0	0
57480	0	0	0	0	0	8.752955	0.174175	4.370442	-0.003213	-0.001605	0.001038	-1.071533	0.126465	-0.113281	0.143712	-0.518572	-0.103715	-0.836465	3.176803	-63.811217	-162.480689	-0.420859	-0.132852	0.897345	0.347986	-0.937181	0.024457	0.837725	0.322557	0.440652	0	0	0
57481	0	0	0	0	0	8.807897	0.228370	4.371307	0.008735	-0.000486	0.003667	-1.074463	0.133789	-0.128418	0.143735	-0.518568	-0.103730	-0.836462	3.177102	-63.810999	-162.477687	-0.420856	-0.132875	0.897343	0.348040	-0.937161	0.024460	0.837705	0.322605	0.440655	0	0	0
57482	0	0	0	0	0	8.825127	0.188532	4.393757	0.007899	0.002136	0.005246	-1.075684	0.135498	-0.115234	0.143770	-0.518555	-0.103741	-0.836462	3.175108	-63.809669	-162.471795	-0.420862	-0.132925	0.897333	0.348106	-0.937136	0.024446	0.837674	0.322656	0.440677	0	0	0
57483	0	0	0	0	0	8.816621	0.185160	4.447615	0.005652	-0.001085	0.002209	-1.072510	0.136719	-0.125732	0.143786	-0.518554	-0.103750	-0.836459	3.174831	-63.809712	-162.469420	-0.420856	-0.132942	0.897333	0.348141	-0.937123	0.024443	0.837662	0.322686	0.440676	0	0	0
57484	0	0	0	0	0	8.786827	0.193817	4.432339	0.001479	0.000667	-0.003368	-1.076172	0.133789	-0.123291	0.143767	-0.518547	-0.103757	-0.836465	3.179272	-63.808948	-162.474799	-0.420880	-0.132906	0.897327	0.348118	-0.937131	0.024478	0.837660	0.322678	0.440686	0	0	0
57485	0	0	0	0	0	8.799397	0.236946	4.392486	0.004142	-0.004843	0.002833	-1.077148	0.128906	-0.130615	0.143780	-0.518562	-0.103760	-0.836453	3.177608	-63.811061	-162.471836	-0.420841	-0.132918	0.897344	0.348143	-0.937122	0.024464	0.837669	0.322699	0.440654	0	0	0
57486	0	0	0	0	0	8.825267	0.200680	4.360800	0.006265	-0.000887	-0.002324	-1.082031	0.136230	-0.118896	0.143777	-0.518559	-0.103786	-0.836452	3.183677	-63.811220	-162.475973	-0.420848	-0.132887	0.897345	0.348164	-0.937113	0.024510	0.837657	0.322738	0.440649	0	0	0
57487	0	0	0	0	0	8.820717	0.248814	4.396221	-0.002216	-0.000130	-0.000293	-1.073975	0.135498	-0.122803	0.143761	-0.518558	-0.103767	-0.836459	3.181960	-63.810549	-162.477186	-0.420861	-0.132881	0.897340	0.348119	-0.937130	0.024498	0.837669	0.322691	0.440660	0	0	0
57488	0	0	0	0	0	8.816749	0.209198	4.382020	-0.001733	-0.000938	-0.002330	-1.076660	0.125244	-0.115723	0.143737	-0.518561	-0.103760	-0.836462	3.183456	-63.810736	-162.481334	-0.420868	-0.132850	0.897341	0.348073	-0.937147	0.024509	0.837685	0.322655	0.440657	0	0	0
57489	0	0	0	0	0	8.816739	0.220833	4.349384	-0.001863	-0.001944	0.000166	-1.076904	0.133301	-0.117188	0.143721	-0.518569	-0.103742	-0.836462	3.181630	-63.811305	-162.482403	-0.420862	-0.132839	0.897345	0.348029	-0.937164	0.024494	0.837706	0.322611	0.440649	0	0	0
57490	0	0	0	0	0	8.808323	0.217301	4.403077	-0.002346	-0.001136	0.002203	-1.079102	0.136963	-0.122314	0.143715	-0.518575	-0.103720	-0.836461	3.177515	-63.811750	-162.480690	-0.420851	-0.132850	0.897349	0.347997	-0.937176	0.024462	0.837724	0.322570	0.440643	0	0	0
57491	0	0	0	0	0	8.817016	0.197132	4.414163	-0.003213	-0.001605	0.001038	-1.065430	0.135254	-0.122070	0.143704	-0.518582	-0.103696	-0.836462	3.173532	-63.812145	-162.479701	-0.420843	-0.132855	0.897352	0.347955	-0.937193	0.024431	0.837746	0.322520	0.440639	0	0	0
57492	0	0	0	0	0	8.787285	0.205346	4.398780	-0.003213	-0.001605	0.001038	-1.078613	0.123291	-0.119141	0.143690	-0.518591	-0.103674	-0.836462	3.170306	-63.812822	-162.479532	-0.420833	-0.132853	0.897357	0.347911	-0.937210	0.024406	0.837770	0.322471	0.440630	0	0	0
57493	0	0	0	0	0	8.787398	0.205101	4.398565	-0.002859	-0.003419	0.001496	-1.075684	0.132324	-0.125488	0.143674	-0.518606	-0.103649	-0.836458	3.166518	-63.814211	-162.479232	-0.420811	-0.132849	0.897368	0.347861	-0.937229	0.024376	0.837801	0.322417	0.440610	0	0	0
57494	0	0	0	0	0	8.787557	0.193381	4.430910	-0.000867	-0.000469	-0.001165	-1.086670	0.127930	-0.120361	0.143658	-0.518607	-0.103642	-0.836461	3.167125	-63.814167	-162.481837	-0.420818	-0.132830	0.897368	0.347827	-0.937242	0.024380	0.837812	0.322389	0.440610	0	0	0
57495	0	0	0	0	0	8.808723	0.216196	4.402332	-0.004691	-0.002272	0.004406	-1.082031	0.133789	-0.116211	0.143652	-0.518619	-0.103602	-0.836460	3.158847	-63.814940	-162.477478	-0.420796	-0.132858	0.897373	0.347778	-0.937262	0.024316	0.837843	0.322319	0.440601	0	0	0
57496	0	0	0	0	0	8.787636	0.204363	4.398125	-0.000996	-0.001475	0.001331	-1.082520	0.135986	-0.116943	0.143645	-0.518626	-0.103588	-0.836458	3.156542	-63.815551	-162.476919	-0.420786	-0.132860	0.897378	0.347754	-0.937271	0.024298	0.837858	0.322291	0.440593	0	0	0
57497	0	0	0	0	0	8.817469	0.207260	4.380663	-0.004209	-0.003080	0.002369	-1.080322	0.136719	-0.117920	0.143637	-0.518642	-0.103558	-0.836454	3.150574	-63.816960	-162.474265	-0.420759	-0.132872	0.897389	0.347710	-0.937288	0.024251	0.837890	0.322235	0.440573	0	0	0
57498	0	0	0	0	0	8.796455	0.195581	4.376300	-0.002377	-0.004227	-0.000541	-1.075684	0.137451	-0.123291	0.143617	-0.518660	-0.103545	-0.836447	3.149831	-63.819087	-162.476329	-0.420732	-0.132847	0.897405	0.347667	-0.937305	0.024243	0.837922	0.322198	0.440540	0	0	0
57499	0	0	0	0	0	8.817763	0.218494	4.347426	-0.002506	-0.005234	0.001955	-1.076904	0.131836	-0.127441	0.143612	-0.518682	-0.103525	-0.836437	3.145274	-63.821548	-162.474079	-0.420690	-0.132852	0.897424	0.347638	-0.937316	0.024206	0.837955	0.322162	0.440504	0	0	0
57500	0	0	0	0	0	8.818024	0.206810	4.379568	-0.002247	-0.003221	-0.003037	-1.075684	0.129150	-0.123047	0.143583	-0.518695	-0.103518	-0.836435	3.147445	-63.823020	-162.479307	-0.420680	-0.132807	0.897436	0.347584	-0.937336	0.024221	0.837982	0.322124	0.440480	0	0	0
57501	0	0	0	0	0	8.818205	0.206789	4.379203	-0.000290	-0.005104	0.002247	-1.080078	0.125000	-0.125000	0.143577	-0.518714	-0.103504	-0.836426	3.144328	-63.825236	-162.477990	-0.420644	-0.132806	0.897453	0.347561	-0.937345	0.024196	0.838010	0.322098	0.440447	0	0	0
57502	0	0	0	0	0	8.797218	0.195101	4.374786	-0.002859	-0.003420	0.001497	-1.073975	0.137207	-0.114502	0.143566	-0.518730	-0.103483	-0.836421	3.140885	-63.826964	-162.477354	-0.420616	-0.132803	0.897466	0.347522	-0.937360	0.024168	0.838040	0.322055	0.440421	0	0	0
57503	0	0	0	0	0	8.809927	0.226239	4.367325	-0.003726	-0.003889	0.000332	-1.072510	0.142334	-0.118164	0.143545	-0.518747	-0.103459	-0.836417	3.137882	-63.828627	-162.478198	-0.420594	-0.132789	0.897479	0.347465	-0.937382	0.024143	0.838075	0.321997	0.440396	0	0	0
57504	0	0	0	0	0	8.810055	0.214524	4.399746	-0.000353	0.001814	-0.000458	-1.077637	0.129395	-0.120850	0.143534	-0.518738	-0.103450	-0.836425	3.137816	-63.827300	-162.479725	-0.420617	-0.132784	0.897469	0.347439	-0.937392	0.024144	0.838074	0.321970	0.440417	0	0	0
57505	0	0	0	0	0	8.818615	0.206243	4.378405	-0.002730	-0.002413	-0.000999	-1.076904	0.138672	-0.126221	0.143516	-0.518747	-0.103434	-0.836424	3.136453	-63.828080	-162.481325	-0.420609	-0.132768	0.897475	0.347393	-0.937409	0.024133	0.838097	0.321927	0.440405	0	0	0
57506	0	0	0	0	0	8.806036	0.186497	4.352938	0.000000	0.000000	-0.000000	-1.084473	0.136230	-0.118408	0.143507	-0.518747	-0.103427	-0.836427	3.136172	-63.827805	-162.482386	-0.420615	-0.132762	0.897473	0.347371	-0.937417	0.024131	0.838103	0.321906	0.440410	0	0	0
57507	0	0	0	0	0	8.788917	0.203163	4.395620	0.000129	0.001007	-0.002496	-1.069824	0.137695	-0.122803	0.143493	-0.518738	-0.103425	-0.836435	3.137915	-63.826502	-162.485416	-0.420642	-0.132746	0.897462	0.347347	-0.937426	0.024145	0.838099	0.321887	0.440429	0	0	0
57508	0	0	0	0	0	8.818724	0.206455	4.378175	0.006359	-0.004714	0.003124	-1.077393	0.136230	-0.121094	0.143512	-0.518754	-0.103439	-0.836421	3.137942	-63.829021	-162.482761	-0.420598	-0.132753	0.897482	0.347391	-0.937409	0.024143	0.838103	0.321932	0.440390	0	0	0
57509	0	0	0	0	0	8.818852	0.206625	4.377908	0.001832	-0.001147	-0.002910	-1.078613	0.136719	-0.119385	0.143499	-0.518752	-0.103446	-0.836423	3.141261	-63.828926	-162.486635	-0.420609	-0.132725	0.897481	0.347377	-0.937414	0.024169	0.838104	0.321929	0.440390	0	0	0
57510	0	0	0	0	0	8.818860	0.206832	4.377883	0.005299	0.000729	0.001749	-1.083252	0.135254	-0.117676	0.143511	-0.518746	-0.103456	-0.836424	3.141932	-63.828289	-162.485374	-0.420615	-0.132738	0.897476	0.347407	-0.937403	0.024174	0.838088	0.321957	0.440400	0	0	0
57511	0	0	0	0	0	8.831505	0.226456	4.403221	-0.002345	-0.001137	0.002204	-1.078125	0.136230	-0.117920	0.143509	-0.518751	-0.103433	-0.836424	3.137034	-63.828498	-162.482671	-0.420606	-0.132756	0.897478	0.347379	-0.937414	0.024137	0.838104	0.321917	0.440399	0	0	0
57512	0	0	0	0	0	8.789211	0.203458	4.395017	0.004786	-0.001554	0.001042	-1.078369	0.132813	-0.115234	0.143516	-0.518754	-0.103444	-0.836419	3.138380	-63.829144	-162.482490	-0.420596	-0.132755	0.897483	0.347402	-0.937405	0.024146	0.838100	0.321943	0.440388	0	0	0
57513	0	0	0	0	0	8.831625	0.226349	4.402985	0.002087	-0.000877	0.002788	-1.075684	0.127197	-0.115723	0.143526	-0.518756	-0.103437	-0.836417	3.135411	-63.829280	-162.479275	-0.420586	-0.132778	0.897484	0.347412	-0.937402	0.024123	0.838100	0.321942	0.440387	0	0	0
57514	0	0	0	0	0	8.810458	0.226351	4.366249	-0.000643	-0.003290	0.001789	-1.074219	0.131104	-0.124268	0.143521	-0.518770	-0.103425	-0.836411	3.132887	-63.830943	-162.478248	-0.420559	-0.132777	0.897497	0.347392	-0.937410	0.024103	0.838122	0.321920	0.440362	0	0	0
57515	0	0	0	0	0	8.806512	0.186517	4.351974	-0.000482	0.000808	0.002038	-1.076172	0.136475	-0.114258	0.143516	-0.518766	-0.103406	-0.836417	3.129611	-63.829950	-162.476981	-0.420571	-0.132791	0.897489	0.347364	-0.937421	0.024078	0.838128	0.321882	0.440379	0	0	0
57516	0	0	0	0	0	8.840304	0.217535	4.381425	-0.001349	0.000339	0.000873	-1.075439	0.132813	-0.123047	0.143507	-0.518765	-0.103390	-0.836420	3.127519	-63.829508	-162.476885	-0.420577	-0.132794	0.897486	0.347335	-0.937432	0.024063	0.838137	0.321849	0.440387	0	0	0
57517	0	0	0	0	0	8.797997	0.194369	4.373253	-0.001125	-0.002482	0.003827	-1.077881	0.131836	-0.124512	0.143512	-0.518776	-0.103368	-0.836416	3.121581	-63.830509	-162.472480	-0.420552	-0.132822	0.897493	0.347321	-0.937439	0.024016	0.838155	0.321818	0.440374	0	0	0
57518	0	0	0	0	0	8.827774	0.197244	4.355879	-0.003565	0.000209	0.000581	-1.074951	0.136475	-0.120605	0.143496	-0.518777	-0.103344	-0.836420	3.118567	-63.830132	-162.472772	-0.420558	-0.132821	0.897490	0.347272	-0.937458	0.023993	0.838172	0.321764	0.440381	0	0	0
57519	0	0	0	0	0	8.798038	0.193937	4.373190	0.000867	0.000469	0.001165	-1.073242	0.131348	-0.122070	0.143496	-0.518772	-0.103335	-0.836425	3.116747	-63.829222	-162.471789	-0.420570	-0.132833	0.897483	0.347261	-0.937462	0.023980	0.838171	0.321746	0.440396	0	0	0
57520	0	0	0	0	0	8.840458	0.205078	4.413836	-0.000482	0.000808	0.002038	-1.079834	0.129883	-0.125244	0.143495	-0.518769	-0.103320	-0.836429	3.113765	-63.828548	-162.470149	-0.420576	-0.132848	0.897478	0.347244	-0.937469	0.023958	0.838175	0.321720	0.440408	0	0	0
57521	0	0	0	0	0	8.797970	0.193607	4.373341	0.002601	0.001406	0.003495	-1.080811	0.122314	-0.124023	0.143505	-0.518760	-0.103309	-0.836434	3.110444	-63.827136	-162.466747	-0.420589	-0.132880	0.897467	0.347250	-0.937467	0.023933	0.838166	0.321712	0.440431	0	0	0
57522	0	0	0	0	0	8.806581	0.173353	4.384580	-0.002827	-0.000329	0.004241	-1.077881	0.126221	-0.111572	0.143506	-0.518765	-0.103280	-0.836434	3.103625	-63.827180	-162.462329	-0.420578	-0.132912	0.897468	0.347223	-0.937478	0.023881	0.838183	0.321665	0.440433	0	0	0
57523	0	0	0	0	0	8.806542	0.184652	4.351994	-0.000996	-0.001475	0.001331	-1.077881	0.138184	-0.126709	0.143492	-0.518771	-0.103261	-0.836435	3.101423	-63.827569	-162.462937	-0.420574	-0.132906	0.897471	0.347181	-0.937494	0.023864	0.838202	0.321621	0.440428	0	0	0
57524	0	0	0	0	0	8.810654	0.200669	4.431330	0.001284	0.004836	0.007112	-1.082520	0.131836	-0.117432	0.143519	-0.518753	-0.103237	-0.836445	3.093294	-63.824747	-162.454434	-0.420596	-0.132981	0.897449	0.347200	-0.937489	0.023804	0.838183	0.321606	0.440476	0	0	0
57525	0	0	0	0	0	8.827637	0.183717	4.388917	-0.003565	0.000209	0.000581	-1.076904	0.140625	-0.123779	0.143505	-0.518751	-0.103212	-0.836451	3.089587	-63.824004	-162.454000	-0.420606	-0.132988	0.897443	0.347153	-0.937507	0.023776	0.838198	0.321550	0.440489	0	0	0
57526	0	0	0	0	0	8.797828	0.191796	4.373705	-0.001960	0.000140	0.005406	-1.080078	0.138672	-0.126953	0.143514	-0.518754	-0.103182	-0.836452	3.081881	-63.823815	-162.448039	-0.420595	-0.133033	0.897442	0.347137	-0.937514	0.023717	0.838209	0.321511	0.440495	0	0	0
57527	0	0	0	0	0	8.827589	0.182748	4.389054	-0.001446	0.002423	0.006113	-1.077881	0.126953	-0.122803	0.143535	-0.518744	-0.103150	-0.836458	3.072466	-63.821857	-162.439527	-0.420605	-0.133104	0.897427	0.347138	-0.937516	0.023646	0.838204	0.321477	0.440529	0	0	0
57528	0	0	0	0	0	8.818897	0.202190	4.378025	-0.001831	0.001146	0.002910	-1.073242	0.133545	-0.119385	0.143534	-0.518741	-0.103127	-0.836463	3.067675	-63.821015	-162.436733	-0.420611	-0.133129	0.897420	0.347113	-0.937526	0.023610	0.838212	0.321437	0.440545	0	0	0
57529	0	0	0	0	0	8.827474	0.181941	4.389319	-0.001831	0.001146	0.002910	-1.077637	0.132568	-0.123291	0.143530	-0.518737	-0.103100	-0.836470	3.062534	-63.819831	-162.434156	-0.420623	-0.133153	0.897411	0.347080	-0.937539	0.023571	0.838220	0.321388	0.440565	0	0	0
57530	0	0	0	0	0	8.797625	0.190074	4.374190	-0.001831	0.001146	0.002910	-1.081299	0.134033	-0.126709	0.143529	-0.518734	-0.103077	-0.836475	3.057744	-63.818989	-162.431362	-0.420629	-0.133178	0.897405	0.347055	-0.937549	0.023535	0.838227	0.321348	0.440580	0	0	0
57531	0	0	0	0	0	8.836022	0.149914	4.433334	-0.000706	0.003629	-0.000916	-1.087158	0.137939	-0.120361	0.143516	-0.518715	-0.103063	-0.836490	3.057363	-63.816145	-162.433055	-0.420675	-0.133179	0.897383	0.347021	-0.937562	0.023535	0.838218	0.321311	0.440625	0	0	0
57532	0	0	0	0	0	8.810176	0.197865	4.432407	-0.001478	-0.000668	0.003368	-1.073242	0.140869	-0.123779	0.143517	-0.518720	-0.103042	-0.836489	3.052356	-63.816355	-162.429793	-0.420664	-0.133202	0.897384	0.347001	-0.937570	0.023496	0.838231	0.321277	0.440624	0	0	0
57533	0	0	0	0	0	8.805994	0.169537	4.385908	-0.002537	0.004775	0.001994	-1.079590	0.133057	-0.122803	0.143519	-0.518700	-0.103014	-0.836505	3.047000	-63.813059	-162.426458	-0.420706	-0.133242	0.897359	0.346976	-0.937581	0.023457	0.838221	0.321231	0.440677	0	0	0
57534	0	0	0	0	0	8.814486	0.149311	4.397362	-0.001831	0.001146	0.002910	-1.073486	0.129883	-0.118164	0.143518	-0.518697	-0.102991	-0.836510	3.042211	-63.812216	-162.423665	-0.420712	-0.133266	0.897352	0.346951	-0.937591	0.023421	0.838228	0.321191	0.440693	0	0	0
57535	0	0	0	0	0	8.826887	0.180366	4.390565	-0.002889	0.006590	0.001536	-1.076416	0.134277	-0.118408	0.143510	-0.518670	-0.102960	-0.836532	3.037648	-63.807911	-162.422276	-0.420773	-0.133297	0.897319	0.346906	-0.937608	0.023390	0.838216	0.321127	0.440762	0	0	0
57536	0	0	0	0	0	8.796950	0.176919	4.408260	-0.002184	0.002960	0.002452	-1.082031	0.131592	-0.117676	0.143507	-0.518660	-0.102935	-0.836542	3.033079	-63.806016	-162.419954	-0.420796	-0.133323	0.897305	0.346876	-0.937620	0.023356	0.838217	0.321082	0.440793	0	0	0
57537	0	0	0	0	0	8.788093	0.208104	4.364926	-0.003885	0.005114	0.002867	-1.081787	0.136963	-0.118408	0.143503	-0.518641	-0.102898	-0.836559	3.026390	-63.802695	-162.416597	-0.420838	-0.133363	0.897279	0.346832	-0.937638	0.023307	0.838214	0.321014	0.440848	0	0	0
57538	0	0	0	0	0	8.817804	0.187722	4.412997	-0.001702	0.002153	0.000415	-1.076416	0.133789	-0.124512	0.143493	-0.518632	-0.102881	-0.836568	3.024517	-63.801200	-162.416971	-0.420861	-0.133368	0.897268	0.346798	-0.937651	0.023294	0.838217	0.320974	0.440872	0	0	0
57539	0	0	0	0	0	8.817695	0.199233	4.380580	-0.004432	-0.000259	-0.000585	-1.074951	0.134766	-0.121582	0.143472	-0.518633	-0.102855	-0.836574	3.021691	-63.800729	-162.418085	-0.420870	-0.133362	0.897264	0.346738	-0.937673	0.023273	0.838237	0.320910	0.440881	0	0	0
57540	0	0	0	0	0	8.813511	0.170990	4.334093	-0.004752	0.004645	0.001702	-1.074951	0.135742	-0.122314	0.143460	-0.518617	-0.102820	-0.836590	3.016420	-63.797847	-162.416621	-0.420910	-0.133386	0.897242	0.346684	-0.937694	0.023235	0.838239	0.320839	0.440928	0	0	0
57541	0	0	0	0	0	8.804929	0.179209	4.355484	-0.000032	-0.003089	-0.002745	-1.074219	0.128174	-0.125244	0.143440	-0.518626	-0.102820	-0.836588	3.018777	-63.798900	-162.420800	-0.420904	-0.133350	0.897250	0.346650	-0.937706	0.023252	0.838256	0.320819	0.440910	0	0	0
57542	0	0	0	0	0	8.796465	0.175909	4.409268	-0.001702	0.002153	0.000415	-1.069580	0.126709	-0.125488	0.143429	-0.518618	-0.102803	-0.836597	3.016904	-63.797405	-162.421174	-0.420927	-0.133355	0.897238	0.346616	-0.937719	0.023239	0.838259	0.320779	0.440935	0	0	0
57543	0	0	0	0	0	8.813623	0.147611	4.399148	-0.001864	-0.001944	0.000165	-1.084717	0.136719	-0.114990	0.143409	-0.518624	-0.102783	-0.836600	3.015339	-63.797753	-162.423034	-0.420926	-0.133340	0.897241	0.346563	-0.937739	0.023227	0.838281	0.320727	0.440930	0	0	0
57544	0	0	0	0	0	8.775318	0.175836	4.372515	0.000223	-0.002822	0.002953	-1.080566	0.129150	-0.118652	0.143411	-0.518636	-0.102771	-0.836593	3.011921	-63.799181	-162.420459	-0.420899	-0.133352	0.897252	0.346556	-0.937743	0.023199	0.838298	0.320712	0.440909	0	0	0
57545	0	0	0	0	0	8.826347	0.178603	4.391721	0.001734	0.000936	0.002330	-1.074707	0.140137	-0.120361	0.143418	-0.518631	-0.102763	-0.836596	3.009353	-63.798299	-162.418020	-0.420907	-0.133374	0.897245	0.346558	-0.937742	0.023180	0.838293	0.320704	0.440924	0	0	0
57546	0	0	0	0	0	8.796644	0.175434	4.408931	0.001702	-0.002153	-0.000415	-1.075684	0.137451	-0.114502	0.143411	-0.518638	-0.102765	-0.836593	3.010658	-63.799242	-162.419763	-0.420897	-0.133356	0.897253	0.346548	-0.937745	0.023189	0.838302	0.320702	0.440908	0	0	0
57547	0	0	0	0	0	8.805251	0.167349	4.387484	0.002698	-0.000678	-0.001745	-1.079346	0.135742	-0.118652	0.143407	-0.518636	-0.102773	-0.836594	3.012969	-63.799111	-162.421714	-0.420903	-0.133343	0.897252	0.346550	-0.937744	0.023207	0.838298	0.320711	0.440909	0	0	0
57548	0	0	0	0	0	8.796598	0.175518	4.409019	-0.003018	0.005581	0.004032	-1.080078	0.132324	-0.117188	0.143410	-0.518616	-0.102739	-0.836610	3.005927	-63.795763	-162.417167	-0.420942	-0.133392	0.897226	0.346520	-0.937757	0.023156	0.838291	0.320654	0.440965	0	0	0
57549	0	0	0	0	0	8.804923	0.166854	4.388161	-0.002536	0.004774	0.001994	-1.074707	0.134277	-0.125488	0.143407	-0.518597	-0.102711	-0.836626	3.000970	-63.792619	-162.414758	-0.420984	-0.133425	0.897201	0.346486	-0.937770	0.023120	0.838284	0.320601	0.441016	0	0	0
57550	0	0	0	0	0	8.817277	0.174678	4.446737	-0.010112	0.010837	-0.002752	-1.077637	0.132568	-0.123535	0.143366	-0.518557	-0.102660	-0.836664	2.997430	-63.786061	-162.418646	-0.421091	-0.133427	0.897151	0.346368	-0.937814	0.023098	0.838279	0.320471	0.441120	0	0	0
57551	0	0	0	0	0	8.799668	0.202585	4.457769	-0.001507	0.009338	0.003410	-1.079834	0.134521	-0.125244	0.143372	-0.518517	-0.102628	-0.836691	2.991189	-63.780099	-162.414381	-0.421170	-0.133487	0.897105	0.346344	-0.937824	0.023055	0.838249	0.320417	0.441216	0	0	0
57552	0	0	0	0	0	8.791294	0.146400	4.364811	0.000867	0.000468	0.001165	-1.072266	0.138916	-0.125000	0.143370	-0.518514	-0.102621	-0.836694	2.990018	-63.779590	-162.413899	-0.421176	-0.133493	0.897101	0.346335	-0.937828	0.023046	0.838250	0.320404	0.441224	0	0	0
57553	0	0	0	0	0	8.782424	0.177854	4.321540	0.002059	0.009129	0.002830	-1.078369	0.130371	-0.119629	0.143386	-0.518472	-0.102606	-0.836719	2.986256	-63.773718	-162.409802	-0.421254	-0.133550	0.897056	0.346345	-0.937825	0.023022	0.838206	0.320389	0.441317	0	0	0
57554	0	0	0	0	0	8.803617	0.165889	4.390816	0.007223	-0.004248	0.004290	-1.074707	0.129883	-0.115967	0.143412	-0.518486	-0.102621	-0.836704	2.985383	-63.776001	-162.405591	-0.421210	-0.133571	0.897073	0.346402	-0.937804	0.023014	0.838205	0.320441	0.441282	0	0	0
57555	0	0	0	0	0	8.838331	0.144317	4.271904	-0.000942	-0.021491	0.001248	-1.080811	0.134033	-0.117432	0.143392	-0.518576	-0.102619	-0.836652	2.984080	-63.787871	-162.406687	-0.421036	-0.133506	0.897165	0.346369	-0.937816	0.022994	0.838306	0.320432	0.441097	0	0	0
57556	0	0	0	0	0	8.788400	0.117446	4.315727	-0.013115	-0.021533	0.006355	-1.075684	0.135254	-0.121582	0.143364	-0.518678	-0.102556	-0.836602	2.970195	-63.800105	-162.400962	-0.420840	-0.133491	0.897259	0.346264	-0.937858	0.022877	0.838448	0.320317	0.440911	0	0	0
57557	0	0	0	0	0	8.784896	0.152786	4.381878	-0.012502	-0.021334	0.001822	-1.073242	0.132813	-0.123535	0.143321	-0.518775	-0.102505	-0.836555	2.961257	-63.811837	-162.400483	-0.420664	-0.133438	0.897350	0.346146	-0.937904	0.022799	0.838585	0.320205	0.440731	0	0	0
57558	0	0	0	0	0	8.848993	0.250337	4.507118	-0.018601	-0.016353	0.004398	-1.072266	0.128906	-0.121094	0.143274	-0.518858	-0.102420	-0.836522	2.946179	-63.821048	-162.396933	-0.420518	-0.133421	0.897420	0.345987	-0.937965	0.022676	0.838724	0.320031	0.440593	0	0	0
57559	0	0	0	0	0	8.824503	0.186602	4.520117	-0.011309	-0.012675	0.003487	-1.075195	0.134521	-0.119385	0.143241	-0.518918	-0.102361	-0.836498	2.935725	-63.827729	-162.394547	-0.420413	-0.133407	0.897472	0.345875	-0.938008	0.022590	0.838823	0.319910	0.440493	0	0	0
57560	0	0	0	0	0	8.799472	0.158439	4.436158	0.000705	-0.003630	0.000914	-1.070557	0.125488	-0.123291	0.143236	-0.518932	-0.102357	-0.836490	2.934998	-63.829557	-162.394663	-0.420386	-0.133397	0.897486	0.345864	-0.938013	0.022583	0.838841	0.319901	0.440464	0	0	0
57561	0	0	0	0	0	8.790769	0.190414	4.392484	0.017504	0.003859	-0.000617	-1.074463	0.128174	-0.118408	0.143268	-0.518901	-0.102418	-0.836497	2.944907	-63.826683	-162.396640	-0.420433	-0.133396	0.897464	0.345975	-0.937970	0.022661	0.838771	0.320028	0.440505	0	0	0
57562	0	0	0	0	0	8.845984	0.169554	4.311391	0.021293	0.000824	0.001754	-1.075439	0.140625	-0.121826	0.143322	-0.518882	-0.102495	-0.836490	2.954732	-63.825987	-162.395369	-0.420441	-0.133409	0.897459	0.346140	-0.937907	0.022737	0.838700	0.320206	0.440512	0	0	0
57563	0	0	0	0	0	8.846019	0.158819	4.343955	0.020555	0.001363	-0.001906	-1.078369	0.137451	-0.127686	0.143360	-0.518858	-0.102575	-0.836488	2.967701	-63.824562	-162.398294	-0.420469	-0.133394	0.897448	0.346281	-0.937853	0.022838	0.838627	0.320372	0.440530	0	0	0
57564	0	0	0	0	0	8.816408	0.145064	4.393648	0.018178	-0.002865	-0.002447	-1.076904	0.135498	-0.129883	0.143386	-0.518855	-0.102652	-0.836476	2.980854	-63.825852	-162.402721	-0.420460	-0.133356	0.897457	0.346401	-0.937806	0.022938	0.838582	0.320525	0.440504	0	0	0
57565	0	0	0	0	0	8.820550	0.197398	4.374913	0.016796	-0.005617	-0.004319	-1.078125	0.135010	-0.121826	0.143403	-0.518859	-0.102727	-0.836461	2.994793	-63.828043	-162.408985	-0.420442	-0.133299	0.897474	0.346504	-0.937765	0.023044	0.838549	0.320667	0.440464	0	0	0
57566	0	0	0	0	0	8.811978	0.229810	4.330913	0.010696	-0.000631	-0.001743	-1.073242	0.133789	-0.114746	0.143414	-0.518853	-0.102770	-0.836458	3.002706	-63.828076	-162.412348	-0.420449	-0.133275	0.897475	0.346565	-0.937742	0.023104	0.838520	0.320747	0.440461	0	0	0
57567	0	0	0	0	0	8.833195	0.230298	4.367540	0.012207	0.003127	-0.002368	-1.067139	0.133057	-0.124512	0.143430	-0.518827	-0.102815	-0.836466	3.011304	-63.825705	-162.415676	-0.420492	-0.133261	0.897456	0.346635	-0.937714	0.023172	0.838469	0.320834	0.440494	0	0	0
57568	0	0	0	0	0	8.820498	0.199511	4.374921	0.010730	0.002458	0.001001	-1.077148	0.130127	-0.125732	0.143454	-0.518809	-0.102849	-0.836469	3.015852	-63.824052	-162.415269	-0.420516	-0.133272	0.897444	0.346708	-0.937686	0.023209	0.838427	0.320910	0.440518	0	0	0
57569	0	0	0	0	0	8.820371	0.199969	4.375157	0.008642	0.003336	-0.001787	-1.076904	0.136230	-0.118652	0.143459	-0.518784	-0.102876	-0.836480	3.021932	-63.821312	-162.418513	-0.420564	-0.133261	0.897423	0.346742	-0.937672	0.023258	0.838389	0.320956	0.440559	0	0	0
57570	0	0	0	0	0	8.837273	0.183951	4.332828	0.013943	0.004061	-0.000039	-1.079102	0.135010	-0.119141	0.143489	-0.518757	-0.102924	-0.836486	3.029431	-63.818710	-162.419342	-0.420605	-0.133267	0.897402	0.346838	-0.937635	0.023318	0.838329	0.321060	0.440596	0	0	0
57571	0	0	0	0	0	8.819946	0.201218	4.375956	0.015454	0.007819	-0.000664	-1.077881	0.137695	-0.114990	0.143524	-0.518710	-0.102976	-0.836503	3.037532	-63.813703	-162.419861	-0.420681	-0.133287	0.897364	0.346946	-0.937594	0.023384	0.838246	0.321174	0.440671	0	0	0
57572	0	0	0	0	0	8.819722	0.190336	4.409052	0.015808	0.006003	-0.000205	-1.079102	0.141602	-0.124268	0.143558	-0.518673	-0.103031	-0.836513	3.046171	-63.809985	-162.420771	-0.420739	-0.133298	0.897335	0.347056	-0.937551	0.023454	0.838171	0.321293	0.440726	0	0	0
57573	0	0	0	0	0	8.806789	0.171312	4.384243	0.009287	0.006623	-0.003577	-1.068604	0.139404	-0.117432	0.143569	-0.518634	-0.103066	-0.836531	3.053884	-63.805557	-162.424378	-0.420813	-0.133293	0.897301	0.347108	-0.937530	0.023517	0.838113	0.321356	0.440792	0	0	0
57574	0	0	0	0	0	8.827704	0.183362	4.388796	0.009158	0.005617	-0.001081	-1.076660	0.137695	-0.124268	0.143583	-0.518603	-0.103096	-0.836544	3.059753	-63.802033	-162.426447	-0.420870	-0.133294	0.897274	0.347158	-0.937510	0.023565	0.838063	0.321414	0.440845	0	0	0
57575	0	0	0	0	0	8.810324	0.223740	4.366653	0.010346	0.001179	-0.002200	-1.074219	0.135010	-0.121826	0.143597	-0.518586	-0.103136	-0.836547	3.066847	-63.800698	-162.428931	-0.420896	-0.133282	0.897264	0.347221	-0.937486	0.023620	0.838024	0.321491	0.440863	0	0	0
57576	0	0	0	0	0	8.797724	0.181360	4.406535	0.006427	0.003205	-0.002079	-1.083740	0.133789	-0.119385	0.143598	-0.518566	-0.103158	-0.836557	3.072459	-63.798523	-162.432458	-0.420937	-0.133267	0.897247	0.347245	-0.937476	0.023665	0.837994	0.321526	0.440894	0	0	0
57577	0	0	0	0	0	8.810177	0.213057	4.399575	0.006298	0.002199	0.000417	-1.074463	0.131592	-0.116699	0.143610	-0.518550	-0.103173	-0.836563	3.074513	-63.796718	-162.432206	-0.420963	-0.133277	0.897233	0.347278	-0.937463	0.023683	0.837967	0.321559	0.440922	0	0	0
57578	0	0	0	0	0	8.788894	0.201855	4.395726	0.006298	0.002199	0.000417	-1.074951	0.130615	-0.121094	0.143620	-0.518536	-0.103189	-0.836568	3.077211	-63.795196	-162.432567	-0.420987	-0.133282	0.897221	0.347311	-0.937450	0.023705	0.837941	0.321594	0.440944	0	0	0
57579	0	0	0	0	0	8.818542	0.193550	4.411271	0.005463	0.004822	0.001995	-1.075684	0.137939	-0.117676	0.143634	-0.518511	-0.103193	-0.836580	3.077003	-63.791987	-162.430726	-0.421030	-0.133310	0.897197	0.347337	-0.937441	0.023706	0.837908	0.321610	0.440995	0	0	0
57580	0	0	0	0	0	8.826864	0.185409	4.390401	0.002508	0.005231	-0.001958	-1.076904	0.134766	-0.122070	0.143627	-0.518486	-0.103197	-0.836597	3.080101	-63.788656	-162.433954	-0.421088	-0.133302	0.897171	0.347328	-0.937443	0.023733	0.837883	0.321606	0.441045	0	0	0
57581	0	0	0	0	0	8.847801	0.197034	4.394925	0.002027	0.006040	0.000079	-1.073730	0.134521	-0.120850	0.143630	-0.518457	-0.103192	-0.836615	3.079670	-63.784668	-162.433487	-0.421146	-0.133325	0.897140	0.347328	-0.937443	0.023733	0.837854	0.321596	0.441108	0	0	0
57582	0	0	0	0	0	8.847453	0.185615	4.428274	0.009355	0.012803	0.001907	-1.080566	0.128662	-0.116943	0.143660	-0.518397	-0.103210	-0.836645	3.081726	-63.777124	-162.431180	-0.421253	-0.133377	0.897082	0.347392	-0.937419	0.023755	0.837773	0.321646	0.441225	0	0	0
57583	0	0	0	0	0	8.838334	0.206058	4.418043	0.020407	0.010349	0.000627	-1.074707	0.141113	-0.118896	0.143711	-0.518337	-0.103276	-0.836665	3.091304	-63.770729	-162.430591	-0.421347	-0.133412	0.897033	0.347540	-0.937362	0.023834	0.837665	0.321797	0.441321	0	0	0
57584	0	0	0	0	0	8.744553	0.192534	4.358859	0.018896	0.006592	0.001254	-1.079834	0.132813	-0.124512	0.143760	-0.518296	-0.103340	-0.836674	3.099971	-63.766719	-162.429560	-0.421405	-0.133438	0.897002	0.347682	-0.937308	0.023904	0.837577	0.321944	0.441380	0	0	0
57585	0	0	0	0	0	8.773876	0.196057	4.342409	0.004922	0.012545	0.001320	-1.080078	0.130371	-0.120605	0.143780	-0.518238	-0.103340	-0.836707	3.099309	-63.758996	-162.426921	-0.421514	-0.133494	0.896942	0.347712	-0.937297	0.023906	0.837510	0.321954	0.441501	0	0	0
57586	0	0	0	0	0	8.794620	0.207915	4.347316	0.015460	0.007807	-0.000662	-1.076172	0.126953	-0.125000	0.143812	-0.518193	-0.103393	-0.836722	3.108154	-63.754231	-162.428283	-0.421588	-0.133507	0.896905	0.347817	-0.937256	0.023978	0.837429	0.322068	0.441572	0	0	0
57587	0	0	0	0	0	8.785930	0.205091	4.401498	0.005302	0.000723	0.001751	-1.073975	0.136719	-0.115479	0.143820	-0.518184	-0.103399	-0.836725	3.108635	-63.753251	-162.427552	-0.421601	-0.133517	0.896898	0.347836	-0.937249	0.023982	0.837414	0.322084	0.441587	0	0	0
57588	0	0	0	0	0	8.794522	0.185380	4.412756	0.005784	-0.000086	-0.000286	-1.070557	0.132080	-0.123779	0.143825	-0.518180	-0.103417	-0.836725	3.111996	-63.753014	-162.428981	-0.421608	-0.133507	0.896896	0.347861	-0.937239	0.024008	0.837400	0.322118	0.441589	0	0	0
57589	0	0	0	0	0	8.836944	0.208746	4.420696	0.013271	-0.002328	-0.000984	-1.076904	0.133789	-0.116211	0.143847	-0.518177	-0.103467	-0.836717	3.119869	-63.753800	-162.430845	-0.421601	-0.133490	0.896902	0.347946	-0.937205	0.024068	0.837369	0.322221	0.441574	0	0	0
57590	0	0	0	0	0	8.866859	0.189152	4.468341	0.007872	-0.000964	0.002504	-1.077393	0.138184	-0.116455	0.143868	-0.518176	-0.103487	-0.836711	3.121245	-63.754151	-162.428727	-0.421591	-0.133504	0.896905	0.348001	-0.937185	0.024079	0.837351	0.322275	0.441568	0	0	0
57591	0	0	0	0	0	8.824541	0.177887	4.427536	0.002922	-0.003501	0.001214	-1.077637	0.130371	-0.120361	0.143874	-0.518188	-0.103490	-0.836703	3.120615	-63.755821	-162.427388	-0.421562	-0.133506	0.896918	0.348015	-0.937180	0.024072	0.837360	0.322288	0.441542	0	0	0
57592	0	0	0	0	0	8.773645	0.175037	4.408067	0.005785	-0.000087	-0.000286	-1.077637	0.131348	-0.115723	0.143879	-0.518183	-0.103508	-0.836702	3.123976	-63.755584	-162.428817	-0.421569	-0.133496	0.896916	0.348040	-0.937170	0.024098	0.837345	0.322322	0.441544	0	0	0
57593	0	0	0	0	0	8.764960	0.206794	4.364322	0.004565	0.001258	-0.001911	-1.076904	0.134033	-0.120361	0.143873	-0.518172	-0.103521	-0.836709	3.128043	-63.754362	-162.432232	-0.421596	-0.133477	0.896906	0.348043	-0.937168	0.024131	0.837331	0.322336	0.441562	0	0	0
57594	0	0	0	0	0	8.764886	0.207061	4.364459	0.004082	0.002068	0.000125	-1.069336	0.131104	-0.120117	0.143877	-0.518160	-0.103529	-0.836715	3.129815	-63.752905	-162.432977	-0.421619	-0.133478	0.896895	0.348056	-0.937163	0.024146	0.837314	0.322350	0.441584	0	0	0
57595	0	0	0	0	0	8.819812	0.250009	4.397969	0.004565	0.001258	-0.001911	-1.078857	0.137207	-0.123047	0.143872	-0.518148	-0.103542	-0.836721	3.133702	-63.751582	-162.436141	-0.421646	-0.133461	0.896885	0.348061	-0.937160	0.024177	0.837298	0.322365	0.441603	0	0	0
57596	0	0	0	0	0	8.815971	0.187364	4.448811	0.001925	-0.004973	0.002547	-1.077148	0.129639	-0.122559	0.143876	-0.518168	-0.103539	-0.836708	3.131875	-63.754228	-162.434251	-0.421602	-0.133463	0.896905	0.348066	-0.937159	0.024161	0.837318	0.322369	0.441562	0	0	0
57597	0	0	0	0	0	8.837240	0.210452	4.420023	0.001832	-0.001152	-0.002908	-1.076172	0.132568	-0.124756	0.143860	-0.518168	-0.103546	-0.836711	3.135492	-63.754173	-162.438707	-0.421613	-0.133430	0.896905	0.348046	-0.937165	0.024188	0.837321	0.322362	0.441561	0	0	0
57598	0	0	0	0	0	8.803589	0.167850	4.422989	-0.000163	-0.004097	-0.000243	-1.073730	0.134521	-0.115967	0.143847	-0.518184	-0.103541	-0.836703	3.135650	-63.756230	-162.440364	-0.421587	-0.133408	0.896921	0.348022	-0.937174	0.024188	0.837344	0.322346	0.441529	0	0	0
57599	0	0	0	0	0	8.773796	0.187813	4.375069	-0.002570	0.001687	-0.000753	-1.069092	0.126709	-0.129883	0.143830	-0.518176	-0.103521	-0.836714	3.134011	-63.754699	-162.441776	-0.421613	-0.133405	0.896909	0.347975	-0.937192	0.024177	0.837351	0.322295	0.441554	0	0	0
57600	0	0	0	0	0	8.790869	0.159543	4.365205	0.000515	0.002283	0.000704	-1.078369	0.132813	-0.122070	0.143827	-0.518166	-0.103513	-0.836722	3.133053	-63.753137	-162.441755	-0.421636	-0.133413	0.896897	0.347960	-0.937198	0.024171	0.837345	0.322276	0.441579	0	0	0
57601	0	0	0	0	0	8.765101	0.196166	4.396642	0.004435	0.000254	0.000586	-1.079590	0.133301	-0.112305	0.143828	-0.518158	-0.103518	-0.836725	3.134289	-63.752240	-162.442433	-0.421651	-0.133412	0.896890	0.347967	-0.937195	0.024181	0.837335	0.322284	0.441592	0	0	0
57602	0	0	0	0	0	8.807538	0.196273	4.469836	0.006782	0.001385	-0.001619	-1.072510	0.132813	-0.126709	0.143831	-0.518146	-0.103542	-0.836730	3.139673	-63.751118	-162.445481	-0.421675	-0.133395	0.896881	0.347995	-0.937183	0.024223	0.837311	0.322325	0.441607	0	0	0
57603	0	0	0	0	0	8.837352	0.188184	4.485055	0.003052	-0.002497	-0.001283	-1.078369	0.132568	-0.121338	0.143824	-0.518152	-0.103551	-0.836726	3.142173	-63.752006	-162.447917	-0.421667	-0.133373	0.896888	0.347992	-0.937184	0.024242	0.837316	0.322332	0.441592	0	0	0
57604	0	0	0	0	0	8.824810	0.180097	4.426909	0.002055	-0.003970	0.000050	-1.085693	0.141602	-0.117432	0.143819	-0.518166	-0.103555	-0.836718	3.143254	-63.753999	-162.449186	-0.421640	-0.133354	0.896904	0.347988	-0.937185	0.024248	0.837331	0.322336	0.441561	0	0	0
57605	0	0	0	0	0	8.812152	0.160452	4.401644	0.000293	0.005100	-0.002254	-1.078857	0.137207	-0.123047	0.143809	-0.518141	-0.103550	-0.836735	3.144532	-63.750539	-162.451459	-0.421697	-0.133354	0.896877	0.347968	-0.937192	0.024261	0.837311	0.322316	0.441614	0	0	0
57606	0	0	0	0	0	8.782254	0.180719	4.353920	0.004402	-0.002839	-0.002154	-1.077148	0.134277	-0.118164	0.143802	-0.518148	-0.103569	-0.836730	3.149443	-63.751816	-162.455499	-0.421688	-0.133318	0.896887	0.347974	-0.937189	0.024298	0.837313	0.322340	0.441592	0	0	0
57607	0	0	0	0	0	8.786300	0.209045	4.400572	0.000163	0.004097	0.000243	-1.071777	0.131348	-0.119629	0.143800	-0.518128	-0.103557	-0.836744	3.147889	-63.748942	-162.454947	-0.421729	-0.133335	0.896865	0.347960	-0.937195	0.024288	0.837298	0.322316	0.441638	0	0	0
57608	0	0	0	0	0	8.786210	0.209038	4.400752	-0.000000	0.000000	0.000000	-1.077637	0.127441	-0.129395	0.143791	-0.518128	-0.103550	-0.836747	3.147597	-63.748664	-162.455998	-0.421736	-0.133329	0.896862	0.347938	-0.937203	0.024286	0.837304	0.322295	0.441642	0	0	0
57609	0	0	0	0	0	8.807492	0.209044	4.437225	0.003920	-0.002029	-0.000118	-1.078125	0.132813	-0.118896	0.143787	-0.518130	-0.103557	-0.836745	3.149525	-63.749110	-162.457772	-0.421733	-0.133314	0.896866	0.347937	-0.937203	0.024301	0.837306	0.322302	0.441635	0	0	0
57610	0	0	0	0	0	8.816114	0.200957	4.415791	0.001833	-0.001153	-0.002908	-1.074951	0.143799	-0.123779	0.143770	-0.518131	-0.103566	-0.836746	3.153730	-63.749398	-162.462666	-0.421740	-0.133276	0.896868	0.347919	-0.937209	0.024333	0.837310	0.322300	0.441628	0	0	0
57611	0	0	0	0	0	8.824691	0.192778	4.394450	-0.000000	0.000000	0.000000	-1.078613	0.125000	-0.125000	0.143767	-0.518128	-0.103557	-0.836750	3.152391	-63.748829	-162.462210	-0.421748	-0.133282	0.896864	0.347906	-0.937214	0.024323	0.837311	0.322283	0.441638	0	0	0
57612	0	0	0	0	0	8.816062	0.201219	4.415882	0.000645	0.003286	-0.001794	-1.078613	0.134277	-0.130127	0.143754	-0.518113	-0.103555	-0.836762	3.154339	-63.746613	-162.465347	-0.421788	-0.133270	0.896847	0.347883	-0.937222	0.024340	0.837301	0.322264	0.441672	0	0	0
57613	0	0	0	0	0	8.811929	0.173021	4.369403	0.000737	-0.000534	0.003662	-1.073486	0.129639	-0.129883	0.143759	-0.518112	-0.103538	-0.836764	3.149991	-63.746218	-162.462102	-0.421787	-0.133296	0.896844	0.347872	-0.937227	0.024307	0.837306	0.322239	0.441680	0	0	0
57614	0	0	0	0	0	8.782024	0.192968	4.321704	0.002863	0.003413	-0.001501	-1.082764	0.128174	-0.134277	0.143753	-0.518094	-0.103544	-0.836775	3.152861	-63.743939	-162.464851	-0.421827	-0.133286	0.896826	0.347868	-0.937228	0.024331	0.837287	0.322241	0.441714	0	0	0
57615	0	0	0	0	0	8.785961	0.209781	4.401213	-0.001925	0.004973	-0.002547	-1.075684	0.131348	-0.116699	0.143725	-0.518068	-0.103527	-0.836798	3.153909	-63.740020	-162.469487	-0.421896	-0.133270	0.896796	0.347806	-0.937250	0.024343	0.837278	0.322181	0.441775	0	0	0
57616	0	0	0	0	0	8.807083	0.209768	4.438002	0.000000	-0.000000	0.000000	-1.072021	0.133057	-0.124023	0.143717	-0.518068	-0.103520	-0.836801	3.153616	-63.739741	-162.470537	-0.421903	-0.133264	0.896794	0.347785	-0.937258	0.024341	0.837284	0.322160	0.441779	0	0	0
57617	0	0	0	0	0	8.807152	0.209852	4.437863	-0.002250	-0.003220	-0.003033	-1.075439	0.134521	-0.118652	0.143687	-0.518079	-0.103510	-0.836800	3.155180	-63.740959	-162.475440	-0.421896	-0.133222	0.896803	0.347728	-0.937279	0.024352	0.837311	0.322117	0.441760	0	0	0
57618	0	0	0	0	0	8.815672	0.224655	4.351349	0.000000	-0.000000	0.000000	-1.069336	0.128418	-0.116455	0.143678	-0.518078	-0.103503	-0.836803	3.154887	-63.740679	-162.476491	-0.421903	-0.133216	0.896801	0.347706	-0.937287	0.024350	0.837316	0.322096	0.441764	0	0	0
57619	0	0	0	0	0	8.824410	0.181840	4.427636	-0.000385	-0.001280	-0.003201	-1.074219	0.136963	-0.116455	0.143654	-0.518081	-0.103500	-0.836806	3.157623	-63.740884	-162.481565	-0.421911	-0.133177	0.896802	0.347663	-0.937303	0.024370	0.837330	0.322067	0.441760	0	0	0
57620	0	0	0	0	0	8.786006	0.221948	4.368445	-0.000385	-0.001280	-0.003201	-1.074951	0.131592	-0.118652	0.143630	-0.518084	-0.103501	-0.836808	3.160903	-63.741236	-162.486845	-0.421919	-0.133137	0.896805	0.347625	-0.937316	0.024395	0.837342	0.322045	0.441753	0	0	0
57621	0	0	0	0	0	8.815758	0.213532	4.383805	0.000032	0.003093	0.002740	-1.075928	0.130859	-0.126953	0.143637	-0.518071	-0.103482	-0.836817	3.156486	-63.739134	-162.483312	-0.421942	-0.133173	0.896789	0.347617	-0.937320	0.024363	0.837334	0.322019	0.441788	0	0	0
57622	0	0	0	0	0	8.807254	0.210345	4.437636	-0.000032	-0.003093	-0.002740	-1.073242	0.125244	-0.124023	0.143615	-0.518082	-0.103484	-0.836814	3.159549	-63.740537	-162.488125	-0.421932	-0.133131	0.896800	0.347584	-0.937332	0.024386	0.837352	0.322002	0.441764	0	0	0
57623	0	0	0	0	0	8.798663	0.230290	4.426341	-0.001703	0.002156	0.000411	-1.074463	0.137939	-0.119873	0.143599	-0.518071	-0.103462	-0.836826	3.157462	-63.738573	-162.489119	-0.421964	-0.133133	0.896785	0.347536	-0.937350	0.024371	0.837356	0.321949	0.441796	0	0	0
57624	0	0	0	0	0	8.803150	0.182141	4.391109	-0.001350	0.000342	0.000872	-1.075684	0.134033	-0.119141	0.143590	-0.518070	-0.103447	-0.836830	3.155362	-63.738126	-162.489018	-0.421970	-0.133136	0.896781	0.347507	-0.937361	0.024355	0.837365	0.321915	0.441804	0	0	0
57625	0	0	0	0	0	8.815722	0.201815	4.416535	-0.001703	0.002156	0.000411	-1.075195	0.131104	-0.122559	0.143584	-0.518060	-0.103429	-0.836839	3.152575	-63.736412	-162.488234	-0.421994	-0.133149	0.896768	0.347478	-0.937372	0.024335	0.837365	0.321877	0.441832	0	0	0
57626	0	0	0	0	0	8.803000	0.181942	4.391419	0.000515	0.002283	0.000704	-1.077393	0.136475	-0.124512	0.143581	-0.518050	-0.103420	-0.836847	3.151614	-63.734849	-162.488211	-0.422017	-0.133157	0.896756	0.347464	-0.937378	0.024329	0.837359	0.321858	0.441857	0	0	0
57627	0	0	0	0	0	8.790220	0.162018	4.366421	-0.000320	0.004907	0.002279	-1.077881	0.130615	-0.128662	0.143585	-0.518028	-0.103400	-0.836863	3.147498	-63.731462	-162.485352	-0.422061	-0.133194	0.896730	0.347449	-0.937384	0.024300	0.837343	0.321824	0.441911	0	0	0
57628	0	0	0	0	0	8.806716	0.209808	4.438729	-0.002055	0.003969	-0.000050	-1.073975	0.130371	-0.125000	0.143573	-0.518012	-0.103381	-0.836877	3.145831	-63.728910	-162.486184	-0.422101	-0.133200	0.896710	0.347410	-0.937399	0.024290	0.837339	0.321779	0.441952	0	0	0
57629	0	0	0	0	0	8.793996	0.189935	4.413611	0.000867	0.000469	0.001165	-1.083252	0.132568	-0.116455	0.143569	-0.518006	-0.103370	-0.836882	3.144261	-63.727897	-162.485833	-0.422115	-0.133207	0.896702	0.347393	-0.937405	0.024279	0.837339	0.321756	0.441968	0	0	0
57630	0	0	0	0	0	8.802461	0.181479	4.392517	-0.004272	0.003842	-0.000343	-1.077637	0.134766	-0.118164	0.143549	-0.517992	-0.103343	-0.836898	3.141672	-63.725408	-162.487053	-0.422155	-0.133210	0.896683	0.347334	-0.937428	0.024261	0.837343	0.321690	0.442008	0	0	0
57631	0	0	0	0	0	8.802397	0.169731	4.425288	0.000385	0.001279	0.003201	-1.078125	0.136475	-0.115723	0.143558	-0.517987	-0.103327	-0.836901	3.137144	-63.724401	-162.483103	-0.422161	-0.133244	0.896675	0.347332	-0.937429	0.024227	0.837341	0.321672	0.442026	0	0	0
57632	0	0	0	0	0	8.823446	0.192429	4.396964	-0.002185	0.002966	0.002447	-1.074707	0.137695	-0.122070	0.143555	-0.517977	-0.103302	-0.836911	3.132574	-63.722502	-162.480780	-0.422184	-0.133270	0.896660	0.347302	-0.937441	0.024193	0.837342	0.321626	0.442058	0	0	0
57633	0	0	0	0	0	8.814721	0.200439	4.418594	-0.004755	0.004652	0.001693	-1.074707	0.128174	-0.123291	0.143549	-0.517959	-0.103266	-0.836927	3.126318	-63.719439	-162.477926	-0.422223	-0.133305	0.896637	0.347257	-0.937459	0.024147	0.837341	0.321559	0.442108	0	0	0
57634	0	0	0	0	0	8.801889	0.180255	4.393714	-0.003888	0.005121	0.002858	-1.074707	0.139160	-0.121338	0.143545	-0.517942	-0.103232	-0.836944	3.120161	-63.716318	-162.474921	-0.422263	-0.133342	0.896613	0.347214	-0.937476	0.024103	0.837339	0.321494	0.442159	0	0	0
57635	0	0	0	0	0	8.814289	0.199623	4.419492	-0.003887	0.005121	0.002858	-1.074219	0.131348	-0.114746	0.143542	-0.517922	-0.103195	-0.836961	3.113323	-63.712878	-162.471346	-0.422306	-0.133385	0.896586	0.347172	-0.937493	0.024053	0.837335	0.321427	0.442216	0	0	0
57636	0	0	0	0	0	8.814053	0.199345	4.419975	-0.004624	0.005655	-0.000804	-1.081787	0.138916	-0.120361	0.143521	-0.517900	-0.103166	-0.836981	3.110953	-63.709338	-162.473036	-0.422362	-0.133389	0.896559	0.347108	-0.937517	0.024037	0.837333	0.321355	0.442272	0	0	0
57637	0	0	0	0	0	8.801242	0.167802	4.427659	-0.002537	0.004779	0.001986	-1.076660	0.137695	-0.126709	0.143520	-0.517882	-0.103138	-0.836997	3.105812	-63.706276	-162.470171	-0.422401	-0.133424	0.896535	0.347078	-0.937529	0.024000	0.837325	0.321306	0.442322	0	0	0
57638	0	0	0	0	0	8.771217	0.187498	4.380252	-0.002537	0.004779	0.001986	-1.079590	0.133789	-0.123779	0.143515	-0.517864	-0.103112	-0.837012	3.101463	-63.703324	-162.468319	-0.422441	-0.133452	0.896512	0.347044	-0.937542	0.023969	0.837319	0.321255	0.442370	0	0	0
57639	0	0	0	0	0	8.792273	0.187170	4.417159	-0.000835	0.002624	0.001576	-1.067871	0.137695	-0.120361	0.143516	-0.517850	-0.103093	-0.837022	3.097896	-63.701175	-162.466208	-0.422468	-0.133478	0.896496	0.347026	-0.937550	0.023944	0.837313	0.321222	0.442405	0	0	0
57640	0	0	0	0	0	8.770903	0.187142	4.380895	0.001030	0.004564	0.001408	-1.078125	0.134277	-0.123291	0.143518	-0.517831	-0.103084	-0.837035	3.096274	-63.698327	-162.465119	-0.422508	-0.133499	0.896473	0.347019	-0.937553	0.023933	0.837296	0.321205	0.442451	0	0	0
57641	0	0	0	0	0	8.791890	0.186973	4.417930	-0.002406	0.005782	-0.000511	-1.071777	0.130371	-0.126465	0.143507	-0.517805	-0.103061	-0.837056	3.093945	-63.694428	-162.465415	-0.422567	-0.133515	0.896443	0.346978	-0.937568	0.023919	0.837283	0.321153	0.442512	0	0	0
57642	0	0	0	0	0	8.808840	0.158672	4.408333	-0.002054	0.003968	-0.000050	-1.069580	0.130127	-0.118408	0.143495	-0.517789	-0.103043	-0.837070	3.092281	-63.691877	-162.466250	-0.422607	-0.133521	0.896424	0.346939	-0.937583	0.023908	0.837279	0.321108	0.442553	0	0	0
57643	0	0	0	0	0	8.782843	0.206648	4.407581	-0.000672	0.006719	0.001819	-1.078857	0.132813	-0.125732	0.143492	-0.517760	-0.103019	-0.837091	3.088661	-63.687479	-162.464707	-0.422669	-0.133553	0.896390	0.346910	-0.937594	0.023884	0.837260	0.321061	0.442623	0	0	0
57644	0	0	0	0	0	8.799739	0.178259	4.398100	-0.004623	0.005654	-0.000805	-1.077637	0.135742	-0.121826	0.143471	-0.517739	-0.102990	-0.837112	3.086293	-63.683939	-162.466398	-0.422726	-0.133558	0.896362	0.346846	-0.937618	0.023868	0.837258	0.320989	0.442679	0	0	0
57645	0	0	0	0	0	8.808115	0.169911	4.377209	-0.001571	0.003158	-0.002086	-1.078125	0.134277	-0.130371	0.143453	-0.517722	-0.102978	-0.837126	3.086632	-63.681444	-162.469239	-0.422770	-0.133548	0.896343	0.346804	-0.937634	0.023873	0.837253	0.320948	0.442718	0	0	0
57646	0	0	0	0	0	8.790777	0.197981	4.387585	-0.006971	0.004523	0.001398	-1.076172	0.135742	-0.126465	0.143434	-0.517708	-0.102934	-0.837143	3.080441	-63.678619	-162.468167	-0.422809	-0.133570	0.896321	0.346729	-0.937662	0.023828	0.837264	0.320855	0.442765	0	0	0
57647	0	0	0	0	0	8.782034	0.206161	4.409216	-0.001571	0.003158	-0.002086	-1.078857	0.136719	-0.124756	0.143416	-0.517691	-0.102921	-0.837159	3.080726	-63.675937	-162.470985	-0.422856	-0.133561	0.896300	0.346686	-0.937678	0.023832	0.837258	0.320813	0.442807	0	0	0
57648	0	0	0	0	0	8.811703	0.197715	4.424733	-0.004786	0.001559	-0.001048	-1.077148	0.131104	-0.129150	0.143391	-0.517687	-0.102895	-0.837169	3.078801	-63.674733	-162.473276	-0.422879	-0.133550	0.896291	0.346620	-0.937703	0.023818	0.837274	0.320745	0.442826	0	0	0
57649	0	0	0	0	0	8.790522	0.186093	4.420688	-0.003216	-0.001599	0.001038	-1.076660	0.131592	-0.117920	0.143379	-0.517692	-0.102870	-0.837171	3.074922	-63.674937	-162.472570	-0.422875	-0.133554	0.896293	0.346575	-0.937720	0.023788	0.837295	0.320692	0.442825	0	0	0
57650	0	0	0	0	0	8.782043	0.194364	4.441786	-0.001382	-0.002750	-0.001870	-1.081787	0.133057	-0.119385	0.143357	-0.517703	-0.102864	-0.837169	3.076165	-63.676173	-162.476219	-0.422865	-0.133522	0.896302	0.346534	-0.937735	0.023797	0.837317	0.320662	0.442805	0	0	0
57651	0	0	0	0	0	8.761031	0.183040	4.437397	-0.001897	-0.005032	-0.002574	-1.083740	0.132568	-0.118896	0.143331	-0.517723	-0.102857	-0.837162	3.077541	-63.678571	-162.480508	-0.422839	-0.133479	0.896321	0.346485	-0.937753	0.023805	0.837350	0.320628	0.442767	0	0	0
57652	0	0	0	0	0	8.769800	0.174924	4.415714	-0.003983	-0.004156	-0.005365	-1.070557	0.129883	-0.122559	0.143287	-0.517740	-0.102850	-0.837160	3.081425	-63.680503	-162.488765	-0.422829	-0.133409	0.896336	0.346407	-0.937781	0.023834	0.837387	0.320575	0.442735	0	0	0
57653	0	0	0	0	0	8.799750	0.178256	4.398078	-0.001897	-0.005032	-0.002574	-1.083984	0.132813	-0.125977	0.143259	-0.517759	-0.102843	-0.837154	3.082878	-63.682800	-162.493351	-0.422806	-0.133364	0.896353	0.346355	-0.937801	0.023843	0.837421	0.320537	0.442699	0	0	0
57654	0	0	0	0	0	8.800046	0.167003	4.430065	0.003373	-0.007401	-0.003563	-1.086670	0.133545	-0.112061	0.143240	-0.517785	-0.102864	-0.837138	3.089095	-63.686644	-162.499510	-0.422763	-0.133301	0.896383	0.346346	-0.937803	0.023888	0.837446	0.320558	0.442636	0	0	0
57655	0	0	0	0	0	8.821416	0.190290	4.401128	-0.001382	-0.002751	-0.001870	-1.079590	0.128174	-0.120117	0.143221	-0.517795	-0.102857	-0.837136	3.089780	-63.687756	-162.502456	-0.422753	-0.133274	0.896392	0.346308	-0.937816	0.023892	0.837467	0.320528	0.442618	0	0	0
57656	0	0	0	0	0	8.791787	0.187382	4.418117	0.002185	-0.002964	-0.002447	-1.080811	0.132080	-0.121582	0.143206	-0.517803	-0.102867	-0.837132	3.093751	-63.689096	-162.506868	-0.422743	-0.133235	0.896402	0.346295	-0.937821	0.023922	0.837477	0.320532	0.442596	0	0	0
57657	0	0	0	0	0	8.800448	0.179302	4.396637	-0.002601	-0.001406	-0.003495	-1.078125	0.128174	-0.116943	0.143173	-0.517807	-0.102856	-0.837136	3.095749	-63.689284	-162.512557	-0.422754	-0.133192	0.896404	0.346231	-0.937844	0.023937	0.837498	0.320482	0.442592	0	0	0
