// General information: 
//  MT Manager version: 2022.2.0 
//  XDA version: 2022.2.0 build 7381 rev 124627 built on 2023-07-19
// Device information: 
//  DeviceId: 10B426DB
//  ProductCode: MTW2-3A7G6
//  Firmware Version: 4.14.0
//  Hardware Version: 3.0.0
// Device settings: 
//  Filter Profile: human(46.1)
//  Option Flags: Orientation Smoother Disabled, Position/Velocity Smoother Disabled, Continuous Zero Rotation Update Disabled, AHS Disabled, ICC Disabled
// Coordinate system: ENU
PacketCounter	SampleTimeFine	Year	Month	Day	Second	Acc_X	Acc_Y	Acc_Z	Gyr_X	Gyr_Y	Gyr_Z	Mag_X	Mag_Y	Mag_Z	Quat_q0	Quat_q1	Quat_q2	Quat_q3	Roll	Pitch	Yaw	Mat[1][1]	Mat[2][1]	Mat[3][1]	Mat[1][2]	Mat[2][2]	Mat[3][2]	Mat[1][3]	Mat[2][3]	Mat[3][3]	Vel_E	Vel_N	Vel_U
57202	0	0	0	0	0	9.769434	0.149737	1.096611	-0.000057	0.003985	0.002718	-0.734375	-0.161621	-0.522705	0.740354	0.080319	-0.662220	0.082998	4.677359	-83.661987	8.605943	0.109151	0.016519	0.993888	-0.229273	0.973320	0.009002	-0.967223	-0.228855	0.110026	0	0	0
57203	0	0	0	0	0	9.775199	0.108688	1.086717	0.001046	0.000923	0.005676	-0.740967	-0.163330	-0.520508	0.740350	0.080300	-0.662226	0.083008	4.655895	-83.662701	8.626721	0.109133	0.016557	0.993889	-0.229264	0.973323	0.008960	-0.967227	-0.228841	0.110017	0	0	0
57204	0	0	0	0	0	9.790069	0.117918	1.057357	-0.001795	0.005155	0.000066	-0.748779	-0.158447	-0.519287	0.740362	0.080290	-0.662216	0.082994	4.658455	-83.660873	8.622113	0.109165	0.016553	0.993886	-0.229229	0.973331	0.008967	-0.967232	-0.228806	0.110048	0	0	0
57205	0	0	0	0	0	9.775615	0.099211	1.064736	-0.000287	0.003793	0.005046	-0.732178	-0.166748	-0.515137	0.740367	0.080264	-0.662213	0.082997	4.636978	-83.660152	8.641775	0.109172	0.016592	0.993884	-0.229200	0.973338	0.008927	-0.967238	-0.228773	0.110064	0	0	0
57206	0	0	0	0	0	9.775094	0.107866	1.087744	0.004109	0.002217	0.001038	-0.739258	-0.165039	-0.518799	0.740367	0.080274	-0.662211	0.083004	4.639156	-83.660048	8.640955	0.109174	0.016591	0.993884	-0.229223	0.973333	0.008931	-0.967232	-0.228796	0.110066	0	0	0
57207	0	0	0	0	0	9.790464	0.108279	1.035624	0.001911	0.003005	0.003042	-0.738525	-0.165771	-0.523438	0.740369	0.080268	-0.662208	0.083010	4.631120	-83.659590	8.649034	0.109179	0.016607	0.993883	-0.229224	0.973333	0.008917	-0.967231	-0.228796	0.110075	0	0	0
57208	0	0	0	0	0	9.789932	0.116945	1.058730	-0.002025	0.004964	0.002394	-0.733887	-0.168213	-0.517090	0.740380	0.080249	-0.662199	0.083003	4.621671	-83.657979	8.656377	0.109205	0.016626	0.993880	-0.229189	0.973341	0.008901	-0.967237	-0.228759	0.110104	0	0	0
57209	0	0	0	0	0	9.775989	0.089441	1.043197	0.000000	-0.000000	0.000000	-0.738281	-0.166748	-0.509521	0.740375	0.080248	-0.662207	0.082990	4.629611	-83.659022	8.647269	0.109190	0.016606	0.993882	-0.229169	0.973346	0.008914	-0.967243	-0.228740	0.110085	0	0	0
57210	0	0	0	0	0	9.823511	0.130785	1.080543	0.001911	0.003005	0.003042	-0.735352	-0.166016	-0.518311	0.740377	0.080242	-0.662204	0.082998	4.619902	-83.658560	8.657143	0.109195	0.016626	0.993881	-0.229173	0.973345	0.008896	-0.967242	-0.228742	0.110094	0	0	0
57211	0	0	0	0	0	9.755259	0.120206	1.083406	-0.001562	0.002679	0.001698	-0.732666	-0.159180	-0.515137	0.740380	0.080230	-0.662204	0.082988	4.617019	-83.658326	8.658222	0.109198	0.016628	0.993881	-0.229142	0.973352	0.008891	-0.967248	-0.228711	0.110099	0	0	0
57212	0	0	0	0	0	9.770142	0.129373	1.054020	0.001681	0.002813	0.005371	-0.735107	-0.159668	-0.513184	0.740381	0.080216	-0.662203	0.083004	4.595294	-83.658081	8.680052	0.109196	0.016670	0.993880	-0.229146	0.973352	0.008850	-0.967248	-0.228710	0.110106	0	0	0
57213	0	0	0	0	0	9.795097	0.084336	1.072515	0.004569	0.002599	-0.003619	-0.734619	-0.158203	-0.516846	0.740384	0.080238	-0.662198	0.082990	4.621718	-83.657600	8.654339	0.109212	0.016623	0.993879	-0.229155	0.973349	0.008901	-0.967244	-0.228725	0.110111	0	0	0
57214	0	0	0	0	0	9.770061	0.129527	1.054749	-0.001159	0.007046	-0.000240	-0.737793	-0.160889	-0.513184	0.740402	0.080230	-0.662180	0.082977	4.625437	-83.654679	8.648931	0.109264	0.016620	0.993874	-0.229126	0.973356	0.008913	-0.967245	-0.228696	0.110161	0	0	0
57215	0	0	0	0	0	9.774800	0.106771	1.090489	0.000636	0.001891	-0.000306	-0.736816	-0.161621	-0.521240	0.740403	0.080226	-0.662182	0.082963	4.632830	-83.654775	8.640092	0.109265	0.016603	0.993874	-0.229101	0.973362	0.008927	-0.967251	-0.228673	0.110158	0	0	0
57216	0	0	0	0	0	9.769986	0.129491	1.055453	0.001042	0.003590	0.001716	-0.734375	-0.158447	-0.516357	0.740408	0.080221	-0.662177	0.082963	4.629195	-83.653918	8.643352	0.109278	0.016611	0.993872	-0.229095	0.973363	0.008921	-0.967251	-0.228666	0.110173	0	0	0
57217	0	0	0	0	0	9.775227	0.097634	1.068434	0.003646	0.004501	0.001735	-0.736572	-0.161133	-0.528076	0.740416	0.080221	-0.662167	0.082966	4.626849	-83.652511	8.645949	0.109302	0.016620	0.993870	-0.229099	0.973362	0.008918	-0.967247	-0.228669	0.110198	0	0	0
57218	0	0	0	0	0	9.789609	0.115982	1.061821	0.004109	0.002216	0.001039	-0.742920	-0.162109	-0.519775	0.740415	0.080230	-0.662166	0.082974	4.629022	-83.652407	8.645133	0.109304	0.016619	0.993869	-0.229122	0.973357	0.008923	-0.967241	-0.228692	0.110199	0	0	0
57219	0	0	0	0	0	9.790075	0.106959	1.039425	0.008217	0.004432	0.002077	-0.735352	-0.166748	-0.518066	0.740421	0.080246	-0.662155	0.082993	4.627749	-83.650998	8.649281	0.109327	0.016630	0.993867	-0.229170	0.973345	0.008922	-0.967227	-0.228740	0.110224	0	0	0
57220	0	0	0	0	0	9.775132	0.097239	1.069344	0.001275	0.001114	0.003349	-0.735352	-0.163086	-0.518555	0.740418	0.080237	-0.662159	0.083000	4.616899	-83.651630	8.659936	0.109313	0.016649	0.993868	-0.229168	0.973346	0.008900	-0.967229	-0.228736	0.110215	0	0	0
57221	0	0	0	0	0	9.790017	0.106702	1.039996	0.007579	0.005208	-0.001577	-0.731445	-0.154053	-0.511719	0.740427	0.080266	-0.662144	0.083007	4.634689	-83.649674	8.645134	0.109351	0.016626	0.993864	-0.229217	0.973334	0.008937	-0.967214	-0.228788	0.110246	0	0	0
57222	0	0	0	0	0	9.769768	0.129132	1.057509	0.004975	0.004297	-0.001595	-0.736328	-0.156006	-0.517090	0.740435	0.080287	-0.662133	0.083008	4.650007	-83.648259	8.631593	0.109379	0.016604	0.993861	-0.229245	0.973327	0.008969	-0.967204	-0.228819	0.110268	0	0	0
57223	0	0	0	0	0	9.755313	0.110666	1.064794	0.006482	0.002935	0.003386	-0.738281	-0.161377	-0.508789	0.740435	0.080289	-0.662130	0.083025	4.640403	-83.647921	8.642724	0.109381	0.016626	0.993861	-0.229272	0.973321	0.008951	-0.967197	-0.228844	0.110275	0	0	0
57224	0	0	0	0	0	9.774978	0.097249	1.070744	0.006712	0.003126	0.001058	-0.741699	-0.163330	-0.511963	0.740437	0.080307	-0.662124	0.083041	4.643590	-83.647298	8.642389	0.109392	0.016627	0.993860	-0.229320	0.973310	0.008958	-0.967184	-0.228892	0.110285	0	0	0
57225	0	0	0	0	0	9.785088	0.129493	1.006168	0.007348	0.005015	0.000752	-0.732422	-0.162109	-0.521484	0.740443	0.080328	-0.662112	0.083057	4.648740	-83.645845	8.640237	0.109418	0.016626	0.993857	-0.229370	0.973298	0.008970	-0.967170	-0.228943	0.110310	0	0	0
57226	0	0	0	0	0	9.788808	0.124436	1.087306	0.005383	0.003329	0.004388	-0.739258	-0.167480	-0.516113	0.740445	0.080330	-0.662107	0.083082	4.634002	-83.645261	8.657172	0.109423	0.016660	0.993856	-0.229409	0.973289	0.008942	-0.967160	-0.228978	0.110322	0	0	0
57227	0	0	0	0	0	9.774871	0.096786	1.071769	0.009549	0.001559	0.002710	-0.734619	-0.167236	-0.516602	0.740440	0.080353	-0.662106	0.083110	4.632388	-83.645582	8.662989	0.109416	0.016671	0.993856	-0.229481	0.973272	0.008939	-0.967144	-0.229049	0.110317	0	0	0
57228	0	0	0	0	0	9.770093	0.119305	1.036574	0.001274	0.001114	0.003349	-0.733398	-0.154541	-0.523438	0.740436	0.080345	-0.662111	0.083116	4.621545	-83.646214	8.673635	0.109402	0.016689	0.993858	-0.229479	0.973273	0.008917	-0.967146	-0.229045	0.110308	0	0	0
57229	0	0	0	0	0	9.773836	0.114371	1.117432	0.006307	0.001425	-0.000964	-0.746582	-0.156006	-0.518799	0.740434	0.080365	-0.662111	0.083117	4.636084	-83.646387	8.660812	0.109402	0.016664	0.993858	-0.229506	0.973266	0.008945	-0.967139	-0.229075	0.110302	0	0	0
57230	0	0	0	0	0	9.769034	0.137203	1.082423	0.002777	0.005084	0.000408	-0.745361	-0.157471	-0.520752	0.740444	0.080370	-0.662099	0.083119	4.639534	-83.644616	8.657943	0.109434	0.016664	0.993854	-0.229515	0.973264	0.008954	-0.967133	-0.229085	0.110332	0	0	0
57231	0	0	0	0	0	9.783930	0.146640	1.053079	0.001505	0.001305	0.001021	-0.740967	-0.158936	-0.515869	0.740442	0.080363	-0.662103	0.083110	4.639863	-83.645171	8.656244	0.109425	0.016659	0.993855	-0.229492	0.973269	0.008954	-0.967140	-0.229062	0.110323	0	0	0
57232	0	0	0	0	0	9.768989	0.136903	1.082868	0.000175	0.001509	0.004351	-0.740234	-0.171875	-0.519531	0.740439	0.080347	-0.662107	0.083116	4.623091	-83.645624	8.672222	0.109412	0.016688	0.993856	-0.229481	0.973272	0.008921	-0.967144	-0.229047	0.110317	0	0	0
57233	0	0	0	0	0	9.808355	0.110113	1.094396	-0.000463	0.002285	0.000695	-0.732910	-0.174316	-0.525635	0.740441	0.080340	-0.662107	0.083105	4.625820	-83.645548	8.668048	0.109415	0.016680	0.993856	-0.229456	0.973278	0.008926	-0.967150	-0.229023	0.110318	0	0	0
57234	0	0	0	0	0	9.789136	0.114324	1.066353	-0.000926	0.004569	0.001391	-0.733154	-0.167236	-0.515869	0.740450	0.080329	-0.662099	0.083097	4.622327	-83.644117	8.670031	0.109439	0.016688	0.993853	-0.229430	0.973284	0.008921	-0.967153	-0.228996	0.110344	0	0	0
57235	0	0	0	0	0	9.789085	0.114238	1.066830	-0.001795	0.005154	0.000064	-0.737061	-0.167725	-0.514404	0.740463	0.080322	-0.662088	0.083083	4.627772	-83.642159	8.662805	0.109474	0.016679	0.993850	-0.229399	0.973291	0.008935	-0.967156	-0.228966	0.110377	0	0	0
57236	0	0	0	0	0	9.774597	0.095682	1.074361	-0.001389	0.006853	0.002086	-0.738281	-0.157471	-0.516357	0.740480	0.080305	-0.662072	0.083077	4.619505	-83.639455	8.669324	0.109519	0.016699	0.993844	-0.229370	0.973298	0.008922	-0.967158	-0.228935	0.110425	0	0	0
57237	0	0	0	0	0	9.774536	0.095445	1.074940	-0.002025	0.004963	0.002392	-0.733887	-0.160645	-0.518799	0.740490	0.080284	-0.662064	0.083067	4.610962	-83.637945	8.675344	0.109543	0.016714	0.993842	-0.229328	0.973309	0.008908	-0.967166	-0.228891	0.110452	0	0	0
57238	0	0	0	0	0	9.773972	0.104139	1.098136	-0.002025	0.004963	0.002392	-0.734863	-0.157715	-0.514893	0.740501	0.080265	-0.662055	0.083060	4.601554	-83.636334	8.682646	0.109568	0.016732	0.993838	-0.229293	0.973317	0.008892	-0.967171	-0.228854	0.110481	0	0	0
57239	0	0	0	0	0	9.754229	0.117271	1.092957	-0.001794	0.005154	0.000064	-0.737061	-0.161133	-0.515381	0.740514	0.080250	-0.662045	0.083040	4.604303	-83.634521	8.676975	0.109601	0.016726	0.993835	-0.229242	0.973329	0.008900	-0.967179	-0.228805	0.110512	0	0	0
57240	0	0	0	0	0	9.794075	0.081731	1.082014	-0.002431	0.003264	0.000370	-0.740479	-0.164551	-0.520508	0.740520	0.080237	-0.662042	0.083024	4.605719	-83.633788	8.673151	0.109615	0.016721	0.993833	-0.229201	0.973338	0.008904	-0.967187	-0.228764	0.110525	0	0	0
57241	0	0	0	0	0	9.773841	0.103660	1.099349	-0.002893	0.002883	0.005027	-0.732178	-0.161621	-0.516602	0.740523	0.080205	-0.662043	0.083019	4.584087	-83.633544	8.691789	0.109614	0.016757	0.993833	-0.229153	0.973350	0.008862	-0.967199	-0.228711	0.110532	0	0	0
57242	0	0	0	0	0	9.788251	0.121449	1.092641	-0.001157	0.001712	0.007681	-0.736328	-0.169678	-0.515625	0.740520	0.080173	-0.662048	0.083033	4.549447	-83.634031	8.724980	0.109596	0.016819	0.993834	-0.229132	0.973356	0.008795	-0.967206	-0.228683	0.110529	0	0	0
57243	0	0	0	0	0	9.773808	0.102361	1.099759	-0.005497	0.001973	0.005008	-0.738037	-0.171631	-0.515137	0.740521	0.080134	-0.662053	0.083022	4.527616	-83.634269	8.742701	0.109586	0.016853	0.993834	-0.229064	0.973372	0.008752	-0.967223	-0.228611	0.110529	0	0	0
57244	0	0	0	0	0	9.774805	0.084073	1.054677	0.002546	0.004892	0.002738	-0.735840	-0.156250	-0.521240	0.740530	0.080131	-0.662043	0.083031	4.519111	-83.632713	8.751728	0.109610	0.016874	0.993831	-0.229074	0.973370	0.008738	-0.967218	-0.228619	0.110557	0	0	0
57245	0	0	0	0	0	9.789214	0.101880	1.048007	0.000579	0.000540	0.010336	-0.739502	-0.162598	-0.513916	0.740522	0.080096	-0.662053	0.083057	4.473569	-83.634005	8.796550	0.109575	0.016956	0.993834	-0.229067	0.973372	0.008648	-0.967224	-0.228602	0.110541	0	0	0
57246	0	0	0	0	0	9.794452	0.069529	1.060791	0.001910	0.003002	0.003044	-0.744385	-0.168457	-0.512695	0.740524	0.080090	-0.662050	0.083065	4.463903	-83.633542	8.806380	0.109580	0.016976	0.993833	-0.229071	0.973372	0.008630	-0.967222	-0.228604	0.110551	0	0	0
57247	0	0	0	0	0	9.788127	0.118832	1.094045	0.004051	0.006195	0.003760	-0.732666	-0.165527	-0.516602	0.740534	0.080090	-0.662036	0.083083	4.452031	-83.631507	8.819740	0.109611	0.017007	0.993829	-0.229097	0.973366	0.008610	-0.967213	-0.228627	0.110588	0	0	0
57248	0	0	0	0	0	9.773638	0.100063	1.101488	0.003414	0.004305	0.004066	-0.738037	-0.161377	-0.518799	0.740540	0.080086	-0.662028	0.083100	4.437487	-83.630345	8.835345	0.109626	0.017040	0.993827	-0.229116	0.973361	0.008584	-0.967206	-0.228643	0.110610	0	0	0
57249	0	0	0	0	0	9.773601	0.099745	1.101842	0.001910	0.003002	0.003044	-0.736084	-0.163330	-0.520996	0.740543	0.080079	-0.662026	0.083105	4.428996	-83.629885	8.843614	0.109632	0.017057	0.993826	-0.229113	0.973362	0.008568	-0.967206	-0.228638	0.110619	0	0	0
57250	0	0	0	0	0	9.768819	0.122261	1.067048	-0.003356	0.007832	0.001761	-0.740234	-0.161377	-0.526367	0.740563	0.080055	-0.662006	0.083092	4.420976	-83.626605	8.848752	0.109686	0.017076	0.993820	-0.229065	0.973374	0.008557	-0.967212	-0.228588	0.110677	0	0	0
57251	0	0	0	0	0	9.822525	0.113925	1.072354	-0.007290	0.009792	0.001110	-0.734131	-0.161621	-0.519775	0.740594	0.080015	-0.661981	0.083060	4.414028	-83.622087	8.849814	0.109763	0.017090	0.993811	-0.228965	0.973397	0.008550	-0.967226	-0.228486	0.110756	0	0	0
57252	0	0	0	0	0	9.788334	0.108539	1.074290	-0.009200	0.004124	0.002027	-0.733398	-0.171387	-0.512207	0.740605	0.079971	-0.661979	0.083028	4.402777	-83.620937	8.854833	0.109782	0.017103	0.993809	-0.228860	0.973422	0.008529	-0.967249	-0.228379	0.110778	0	0	0
57253	0	0	0	0	0	9.783040	0.140080	1.062202	-0.012903	0.006275	-0.000953	-0.731201	-0.166504	-0.519043	0.740625	0.079924	-0.661968	0.082972	4.405730	-83.618450	8.843478	0.109828	0.017088	0.993804	-0.228717	0.973456	0.008538	-0.967278	-0.228237	0.110820	0	0	0
57254	0	0	0	0	0	9.768523	0.121511	1.069838	-0.012499	0.007972	0.001071	-0.739258	-0.154541	-0.528809	0.740651	0.079869	-0.661952	0.082927	4.395964	-83.615060	8.845100	0.109885	0.017100	0.993797	-0.228579	0.973488	0.008524	-0.967304	-0.228098	0.110881	0	0	0
57255	0	0	0	0	0	9.773149	0.098665	1.105936	-0.011167	0.007769	-0.002259	-0.736816	-0.165283	-0.522705	0.740678	0.079826	-0.661935	0.082867	4.404513	-83.611508	8.828135	0.109951	0.017077	0.993790	-0.228434	0.973522	0.008545	-0.967331	-0.227955	0.110941	0	0	0
57256	0	0	0	0	0	9.753912	0.102943	1.078319	-0.012499	0.007970	0.001072	-0.737793	-0.158203	-0.513428	0.740703	0.079771	-0.661919	0.082822	4.394746	-83.608119	8.829759	0.110009	0.017089	0.993784	-0.228297	0.973554	0.008531	-0.967357	-0.227816	0.111001	0	0	0
57257	0	0	0	0	0	9.807093	0.103664	1.106270	-0.011167	0.007767	-0.002258	-0.744873	-0.159912	-0.528320	0.740729	0.079730	-0.661902	0.082765	4.403594	-83.604750	8.812905	0.110072	0.017065	0.993777	-0.228159	0.973586	0.008552	-0.967382	-0.227681	0.111058	0	0	0
57258	0	0	0	0	0	9.773944	0.080599	1.062889	-0.009895	0.008878	0.001093	-0.740479	-0.163330	-0.513672	0.740756	0.079684	-0.661881	0.082728	4.394854	-83.600843	8.814996	0.110138	0.017080	0.993770	-0.228046	0.973613	0.008541	-0.967401	-0.227566	0.111127	0	0	0
57259	0	0	0	0	0	9.773313	0.089336	1.086519	-0.002720	0.009716	0.001461	-0.742676	-0.157959	-0.521240	0.740783	0.079661	-0.661856	0.082713	4.388632	-83.596545	8.818091	0.110211	0.017097	0.993761	-0.227993	0.973625	0.008534	-0.967405	-0.227512	0.111202	0	0	0
57260	0	0	0	0	0	9.773790	0.080149	1.064343	-0.007871	0.001251	0.002658	-0.736328	-0.167725	-0.523926	0.740784	0.079621	-0.661863	0.082687	4.376075	-83.597064	8.825190	0.110200	0.017109	0.993762	-0.227902	0.973647	0.008509	-0.967428	-0.227418	0.111195	0	0	0
57261	0	0	0	0	0	9.773237	0.088860	1.087242	-0.005035	0.002352	0.000351	-0.738770	-0.158691	-0.522461	0.740788	0.079596	-0.661865	0.082657	4.377428	-83.596836	8.819401	0.110205	0.017099	0.993762	-0.227826	0.973665	0.008512	-0.967445	-0.227343	0.111198	0	0	0
57262	0	0	0	0	0	9.739615	0.074835	1.066076	-0.004165	0.004434	-0.002282	-0.738281	-0.168701	-0.524170	0.740800	0.079585	-0.661857	0.082626	4.390898	-83.595319	8.802447	0.110236	0.017070	0.993759	-0.227766	0.973679	0.008540	-0.967456	-0.227286	0.111223	0	0	0
57263	0	0	0	0	0	9.758719	0.070578	1.094789	0.000637	0.001889	-0.000304	-0.740967	-0.161865	-0.521973	0.740801	0.079584	-0.661858	0.082612	4.399228	-83.595295	8.792977	0.110239	0.017052	0.993759	-0.227745	0.973683	0.008557	-0.967460	-0.227267	0.111222	0	0	0
57264	0	0	0	0	0	9.773679	0.080076	1.065369	0.004108	0.002213	0.001044	-0.736328	-0.161621	-0.517090	0.740801	0.079593	-0.661856	0.082620	4.401376	-83.595194	8.792186	0.110241	0.017051	0.993759	-0.227768	0.973678	0.008561	-0.967455	-0.227290	0.111223	0	0	0
57265	0	0	0	0	0	9.773112	0.088902	1.088362	0.005612	0.003516	0.002067	-0.739990	-0.164551	-0.524414	0.740804	0.079602	-0.661850	0.082632	4.399458	-83.594442	8.795834	0.110253	0.017060	0.993757	-0.227798	0.973671	0.008558	-0.967446	-0.227319	0.111237	0	0	0
57266	0	0	0	0	0	9.773077	0.088816	1.088681	0.006712	0.003122	0.001066	-0.742920	-0.162109	-0.522217	0.740805	0.079620	-0.661844	0.082649	4.402633	-83.593822	8.795512	0.110264	0.017061	0.993756	-0.227846	0.973660	0.008565	-0.967434	-0.227367	0.111247	0	0	0
57267	0	0	0	0	0	9.772492	0.097631	1.111822	0.009721	0.005727	0.003111	-0.738525	-0.160400	-0.521240	0.740814	0.079640	-0.661828	0.082680	4.397102	-83.591807	8.805200	0.110296	0.017085	0.993752	-0.227917	0.973643	0.008557	-0.967414	-0.227436	0.111283	0	0	0
57268	0	0	0	0	0	9.777674	0.065901	1.124808	0.004341	0.002404	-0.001284	-0.732910	-0.168945	-0.520752	0.740815	0.079658	-0.661825	0.082679	4.411150	-83.591493	8.792569	0.110305	0.017061	0.993751	-0.227939	0.973638	0.008585	-0.967407	-0.227462	0.111286	0	0	0
57269	0	0	0	0	0	9.787993	0.098063	1.059717	0.005899	-0.005605	0.004938	-0.739990	-0.158203	-0.515137	0.740787	0.079663	-0.661853	0.082701	4.399043	-83.595994	8.806880	0.110223	0.017077	0.993760	-0.227979	0.973629	0.008555	-0.967407	-0.227499	0.111210	0	0	0
57270	0	0	0	0	0	9.772455	0.097432	1.112165	0.006252	0.008070	-0.002197	-0.737549	-0.155762	-0.512451	0.740807	0.079689	-0.661827	0.082706	4.416615	-83.592403	8.791804	0.110289	0.017058	0.993753	-0.228019	0.973619	0.008594	-0.967390	-0.227542	0.111269	0	0	0
57271	0	0	0	0	0	9.772406	0.097473	1.112591	0.002371	0.000717	0.002350	-0.739746	-0.158203	-0.517334	0.740801	0.079683	-0.661834	0.082706	4.411494	-83.593407	8.796496	0.110271	0.017064	0.993755	-0.228012	0.973621	0.008583	-0.967394	-0.227534	0.111253	0	0	0
57272	0	0	0	0	0	9.786831	0.115674	1.105907	0.004512	0.003908	0.003069	-0.735840	-0.163330	-0.521484	0.740805	0.079687	-0.661827	0.082723	4.402909	-83.592426	8.806738	0.110285	0.017086	0.993753	-0.228041	0.973614	0.008568	-0.967385	-0.227561	0.111271	0	0	0
57273	0	0	0	0	0	9.806470	0.102176	1.111919	0.003008	0.002605	0.002046	-0.737793	-0.157715	-0.525879	0.740806	0.079685	-0.661825	0.082726	4.399761	-83.592182	8.810006	0.110288	0.017093	0.993753	-0.228043	0.973613	0.008562	-0.967385	-0.227563	0.111276	0	0	0
57274	0	0	0	0	0	9.806985	0.093072	1.089459	0.003008	0.002605	0.002046	-0.739990	-0.166016	-0.519287	0.740807	0.079687	-0.661823	0.082734	4.396028	-83.591900	8.814498	0.110291	0.017103	0.993752	-0.228056	0.973610	0.008555	-0.967381	-0.227575	0.111281	0	0	0
57275	0	0	0	0	0	9.772282	0.096622	1.113757	0.006016	0.005210	0.004092	-0.742188	-0.167969	-0.514160	0.740816	0.079689	-0.661811	0.082755	4.383356	-83.590200	8.829086	0.110316	0.017135	0.993749	-0.228090	0.973603	0.008532	-0.967370	-0.227606	0.111312	0	0	0
57276	0	0	0	0	0	9.771698	0.105482	1.136836	0.004341	0.002403	-0.001284	-0.738281	-0.155029	-0.520996	0.740817	0.079706	-0.661807	0.082755	4.397399	-83.589887	8.816459	0.110325	0.017112	0.993748	-0.228113	0.973597	0.008560	-0.967364	-0.227631	0.111316	0	0	0
57277	0	0	0	0	0	9.772778	0.087407	1.091475	0.004972	-0.001041	0.006333	-0.733887	-0.161865	-0.517090	0.740803	0.079700	-0.661821	0.082780	4.375115	-83.591996	8.840289	0.110282	0.017152	0.993752	-0.228142	0.973591	0.008514	-0.967362	-0.227655	0.111283	0	0	0
57278	0	0	0	0	0	9.772738	0.087156	1.091852	0.004052	0.008855	-0.000195	-0.737549	-0.167480	-0.520264	0.740825	0.079711	-0.661794	0.082785	4.380945	-83.588046	8.835760	0.110351	0.017154	0.993745	-0.228163	0.973586	0.008531	-0.967349	-0.227677	0.111350	0	0	0
57279	0	0	0	0	0	9.791280	0.091547	1.143342	0.001501	-0.001363	0.004984	-0.736572	-0.159912	-0.515625	0.740812	0.079699	-0.661808	0.082794	4.364459	-83.590175	8.852036	0.110310	0.017179	0.993749	-0.228161	0.973586	0.008496	-0.967354	-0.227672	0.111316	0	0	0
57280	0	0	0	0	0	9.771617	0.104616	1.137614	0.002604	0.000908	0.000022	-0.733154	-0.168213	-0.515869	0.740809	0.079707	-0.661812	0.082792	4.371450	-83.590774	8.845504	0.110301	0.017165	0.993750	-0.228168	0.973585	0.008509	-0.967354	-0.227681	0.111304	0	0	0
57281	0	0	0	0	0	9.767484	0.118458	1.079622	-0.000000	0.000000	-0.000000	-0.744873	-0.165039	-0.513916	0.740803	0.079705	-0.661820	0.082779	4.378835	-83.591962	8.836938	0.110284	0.017146	0.993752	-0.228148	0.973589	0.008521	-0.967360	-0.227662	0.111283	0	0	0
57282	0	0	0	0	0	9.772150	0.095700	1.114989	0.002604	0.000908	0.000022	-0.738525	-0.161377	-0.523682	0.740799	0.079713	-0.661823	0.082778	4.385829	-83.592561	8.830402	0.110275	0.017131	0.993753	-0.228155	0.973588	0.008534	-0.967360	-0.227671	0.111271	0	0	0
57283	0	0	0	0	0	9.753014	0.100019	1.086679	0.001504	0.001302	0.001023	-0.740479	-0.159912	-0.523438	0.740797	0.079712	-0.661827	0.082773	4.387939	-83.593087	8.827822	0.110267	0.017125	0.993754	-0.228147	0.973589	0.008538	-0.967363	-0.227663	0.111262	0	0	0
57284	0	0	0	0	0	9.791825	0.082242	1.120651	-0.000407	-0.004362	0.001937	-0.728027	-0.158447	-0.516113	0.740776	0.079704	-0.661852	0.082766	4.385525	-83.596780	8.829018	0.110203	0.017118	0.993762	-0.228127	0.973594	0.008528	-0.967375	-0.227643	0.111198	0	0	0
57285	0	0	0	0	0	9.772714	0.086464	1.092128	0.004108	0.002210	0.001045	-0.735596	-0.162842	-0.515869	0.740776	0.079709	-0.661851	0.082768	4.387994	-83.596649	8.827054	0.110206	0.017114	0.993761	-0.228135	0.973592	0.008533	-0.967372	-0.227652	0.111200	0	0	0
57286	0	0	0	0	0	9.787126	0.104742	1.085611	0.000578	0.005867	0.002416	-0.732666	-0.159424	-0.516602	0.740789	0.079699	-0.661838	0.082770	4.379713	-83.594520	8.834722	0.110240	0.017135	0.993757	-0.228125	0.973595	0.008520	-0.967371	-0.227640	0.111238	0	0	0
57287	0	0	0	0	0	9.792315	0.072623	1.098467	0.000400	-0.000969	0.005985	-0.744629	-0.160889	-0.518799	0.740778	0.079677	-0.661852	0.082778	4.356631	-83.596500	8.856695	0.110200	0.017172	0.993761	-0.228109	0.973599	0.008472	-0.967379	-0.227620	0.111207	0	0	0
57288	0	0	0	0	0	9.772653	0.085523	1.092746	0.002371	0.000716	0.002351	-0.737061	-0.156738	-0.519531	0.740772	0.079676	-0.661857	0.082784	4.351713	-83.597311	8.862012	0.110184	0.017180	0.993763	-0.228116	0.973597	0.008462	-0.967379	-0.227626	0.111194	0	0	0
57289	0	0	0	0	0	9.787632	0.094817	1.063336	0.001041	0.003584	0.001720	-0.745850	-0.170166	-0.519287	0.740778	0.079667	-0.661853	0.082779	4.348222	-83.596544	8.864307	0.110197	0.017186	0.993761	-0.228096	0.973602	0.008456	-0.967382	-0.227605	0.111208	0	0	0
57290	0	0	0	0	0	9.787610	0.094581	1.063564	0.001271	0.001110	0.003352	-0.741699	-0.155762	-0.513916	0.740774	0.079658	-0.661857	0.082785	4.337423	-83.597173	8.874907	0.110183	0.017205	0.993762	-0.228094	0.973603	0.008434	-0.967384	-0.227601	0.111199	0	0	0
57291	0	0	0	0	0	9.787070	0.103297	1.086255	-0.001737	-0.001494	0.001306	-0.738281	-0.164063	-0.515625	0.740763	0.079646	-0.661873	0.082770	4.337271	-83.599390	8.872823	0.110145	0.017195	0.993767	-0.228057	0.973611	0.008431	-0.967398	-0.227564	0.111160	0	0	0
57292	0	0	0	0	0	9.772054	0.093741	1.116000	0.004746	0.004098	0.000741	-0.744873	-0.169678	-0.521973	0.740768	0.079658	-0.661864	0.082779	4.340603	-83.598199	8.871209	0.110166	0.017195	0.993764	-0.228085	0.973605	0.008439	-0.967388	-0.227593	0.111180	0	0	0
57293	0	0	0	0	0	9.787057	0.103004	1.086400	0.001963	-0.003646	0.004288	-0.739746	-0.161621	-0.510498	0.740748	0.079653	-0.661887	0.082788	4.329093	-83.601679	8.883018	0.110103	0.017208	0.993771	-0.228092	0.973603	0.008412	-0.967394	-0.227598	0.111122	0	0	0
57294	0	0	0	0	0	9.787051	0.102799	1.086467	0.002779	0.005078	0.000414	-0.726807	-0.162842	-0.510254	0.740758	0.079658	-0.661875	0.082790	4.332587	-83.599914	8.880106	0.110134	0.017207	0.993768	-0.228101	0.973601	0.008421	-0.967388	-0.227607	0.111152	0	0	0
57295	0	0	0	0	0	9.767353	0.115830	1.081091	0.003641	0.001826	0.005703	-0.741211	-0.157471	-0.517090	0.740753	0.079650	-0.661878	0.082811	4.312042	-83.600396	8.901750	0.110120	0.017248	0.993769	-0.228122	0.973596	0.008381	-0.967385	-0.227624	0.111147	0	0	0
57296	0	0	0	0	0	9.792206	0.070358	1.099580	0.004742	0.001431	0.004702	-0.734375	-0.162354	-0.521484	0.740749	0.079650	-0.661881	0.082834	4.296221	-83.600899	8.919405	0.110106	0.017280	0.993770	-0.228155	0.973589	0.008349	-0.967379	-0.227653	0.111140	0	0	0
57297	0	0	0	0	0	9.767329	0.115074	1.081389	0.004975	0.001623	0.002374	-0.741211	-0.170410	-0.521729	0.740746	0.079654	-0.661882	0.082844	4.292739	-83.601218	8.924057	0.110099	0.017288	0.993770	-0.228176	0.973584	0.008342	-0.967375	-0.227673	0.111135	0	0	0
57298	0	0	0	0	0	9.767318	0.114836	1.081512	0.005842	0.001037	0.003702	-0.740723	-0.158691	-0.516602	0.740740	0.079662	-0.661885	0.082866	4.282794	-83.601903	8.936433	0.110083	0.017310	0.993772	-0.228218	0.973574	0.008322	-0.967367	-0.227713	0.111125	0	0	0
57299	0	0	0	0	0	9.806073	0.096920	1.115884	0.004512	0.003905	0.003070	-0.736572	-0.164795	-0.523193	0.740744	0.079665	-0.661878	0.082881	4.275548	-83.600995	8.945141	0.110096	0.017329	0.993770	-0.228244	0.973569	0.008309	-0.967359	-0.227736	0.111142	0	0	0
57300	0	0	0	0	0	9.753357	0.087022	1.066157	0.003471	0.000321	0.001351	-0.734131	-0.160889	-0.520752	0.740737	0.079672	-0.661884	0.082886	4.276495	-83.601988	8.945191	0.110079	0.017327	0.993772	-0.228261	0.973565	0.008310	-0.967357	-0.227754	0.111124	0	0	0
57301	0	0	0	0	0	9.801930	0.110363	1.058205	0.001908	0.002998	0.003047	-0.744385	-0.162109	-0.520996	0.740741	0.079664	-0.661881	0.082890	4.267967	-83.601444	8.953356	0.110086	0.017344	0.993771	-0.228255	0.973566	0.008294	-0.967358	-0.227746	0.111135	0	0	0
57302	0	0	0	0	0	9.786337	0.109703	1.110881	0.000175	0.004170	0.000391	-0.735596	-0.165039	-0.519043	0.740749	0.079660	-0.661873	0.082882	4.270448	-83.600197	8.949962	0.110108	0.017341	0.993768	-0.228239	0.973570	0.008300	-0.967359	-0.227731	0.111156	0	0	0
57303	0	0	0	0	0	9.767195	0.113817	1.082734	0.000170	0.001505	0.004353	-0.730713	-0.168213	-0.517822	0.740746	0.079643	-0.661878	0.082886	4.254890	-83.600683	8.964383	0.110096	0.017367	0.993769	-0.228222	0.973574	0.008269	-0.967364	-0.227710	0.111150	0	0	0
57304	0	0	0	0	0	9.800761	0.127631	1.104381	0.001504	0.001301	0.001023	-0.738037	-0.152100	-0.513916	0.740744	0.079643	-0.661881	0.082884	4.256002	-83.601102	8.963132	0.110089	0.017364	0.993770	-0.228219	0.973575	0.008271	-0.967366	-0.227708	0.111142	0	0	0
57305	0	0	0	0	0	9.771812	0.090614	1.118373	-0.000696	0.002091	0.003025	-0.739014	-0.159668	-0.530273	0.740744	0.079625	-0.661883	0.082878	4.245975	-83.601207	8.971250	0.110085	0.017379	0.993770	-0.228188	0.973582	0.008251	-0.967374	-0.227675	0.111142	0	0	0
57306	0	0	0	0	0	9.786804	0.099882	1.088969	-0.000463	0.002282	0.000696	-0.735107	-0.154785	-0.513428	0.740746	0.079618	-0.661883	0.082869	4.247257	-83.601052	8.968695	0.110088	0.017375	0.993770	-0.228166	0.973587	0.008254	-0.967378	-0.227653	0.111145	0	0	0
57307	0	0	0	0	0	9.786778	0.099754	1.089213	-0.001563	0.002677	0.001697	-0.746094	-0.165771	-0.512695	0.740750	0.079598	-0.661882	0.082853	4.242522	-83.600674	8.970449	0.110094	0.017379	0.993769	-0.228116	0.973599	0.008245	-0.967389	-0.227602	0.111152	0	0	0
57308	0	0	0	0	0	9.766549	0.121991	1.106402	0.001738	0.001493	-0.001305	-0.737549	-0.161865	-0.518555	0.740750	0.079606	-0.661883	0.082844	4.255559	-83.600884	8.957333	0.110094	0.017353	0.993770	-0.228113	0.973599	0.008270	-0.967390	-0.227603	0.111146	0	0	0
57309	0	0	0	0	0	9.753144	0.085616	1.068217	-0.002025	0.004959	0.002393	-0.733643	-0.157227	-0.526367	0.740759	0.079587	-0.661876	0.082835	4.247520	-83.599443	8.963152	0.110117	0.017368	0.993767	-0.228076	0.973608	0.008257	-0.967396	-0.227564	0.111172	0	0	0
57310	0	0	0	0	0	9.771679	0.090152	1.119573	0.001100	-0.000395	-0.001001	-0.731445	-0.164063	-0.514648	0.740752	0.079593	-0.661884	0.082824	4.259354	-83.600745	8.950879	0.110099	0.017341	0.993769	-0.228068	0.973610	0.008278	-0.967400	-0.227558	0.111148	0	0	0
57311	0	0	0	0	0	9.767047	0.112788	1.084177	0.000633	-0.000778	0.003657	-0.736328	-0.158936	-0.518311	0.740744	0.079579	-0.661896	0.082823	4.248096	-83.602379	8.960879	0.110068	0.017356	0.993773	-0.228048	0.973615	0.008254	-0.967409	-0.227536	0.111122	0	0	0
57312	0	0	0	0	0	9.787261	0.090411	1.067134	0.001100	-0.000395	-0.001001	-0.737305	-0.169189	-0.522461	0.740737	0.079585	-0.661905	0.082812	4.259937	-83.603681	8.948600	0.110049	0.017329	0.993775	-0.228039	0.973617	0.008275	-0.967413	-0.227530	0.111097	0	0	0
57313	0	0	0	0	0	9.782064	0.122203	1.054567	0.005209	0.001813	0.000046	-0.730713	-0.160645	-0.518555	0.740735	0.079601	-0.661904	0.082816	4.269331	-83.603749	8.940860	0.110050	0.017314	0.993775	-0.228066	0.973610	0.008293	-0.967406	-0.227559	0.111095	0	0	0
57314	0	0	0	0	0	9.767025	0.112746	1.084376	0.004108	0.002208	0.001046	-0.735107	-0.165527	-0.517822	0.740735	0.079610	-0.661902	0.082824	4.271476	-83.603651	8.940072	0.110052	0.017313	0.993775	-0.228089	0.973605	0.008298	-0.967401	-0.227582	0.111096	0	0	0
57315	0	0	0	0	0	9.801690	0.108875	1.060580	0.004571	-0.000075	0.000350	-0.742188	-0.160889	-0.522461	0.740728	0.079623	-0.661908	0.082826	4.279584	-83.604802	8.933211	0.110035	0.017296	0.993777	-0.228110	0.973600	0.008312	-0.967398	-0.227605	0.111075	0	0	0
57316	0	0	0	0	0	9.772734	0.072163	1.074560	0.006946	0.003305	-0.001259	-0.743652	-0.160400	-0.521484	0.740731	0.079650	-0.661900	0.082835	4.294690	-83.603978	8.921018	0.110052	0.017275	0.993776	-0.228157	0.973589	0.008342	-0.967384	-0.227655	0.111087	0	0	0
57317	0	0	0	0	0	9.782007	0.122313	1.055087	0.002833	-0.001567	0.001656	-0.743652	-0.166260	-0.514404	0.740718	0.079651	-0.661914	0.082833	4.294868	-83.606112	8.920764	0.110016	0.017269	0.993780	-0.228156	0.973589	0.008340	-0.967389	-0.227655	0.111050	0	0	0
57318	0	0	0	0	0	9.787216	0.090583	1.067531	0.005033	-0.002357	-0.000345	-0.735107	-0.167969	-0.520264	0.740703	0.079670	-0.661929	0.082837	4.306390	-83.608562	8.911073	0.109977	0.017244	0.993785	-0.228187	0.973582	0.008359	-0.967386	-0.227688	0.111006	0	0	0
57319	0	0	0	0	0	9.800610	0.126730	1.105829	0.006070	-0.001439	0.005336	-0.734863	-0.165039	-0.519531	0.740688	0.079676	-0.661942	0.082865	4.291110	-83.610822	8.929104	0.109933	0.017272	0.993789	-0.228235	0.973570	0.008327	-0.967380	-0.227733	0.110969	0	0	0
57320	0	0	0	0	0	9.801709	0.108601	1.060436	0.005209	0.001812	0.000046	-0.731201	-0.165039	-0.514160	0.740686	0.079693	-0.661941	0.082872	4.299143	-83.610907	8.923025	0.109933	0.017260	0.993789	-0.228268	0.973563	0.008342	-0.967372	-0.227767	0.110967	0	0	0
57321	0	0	0	0	0	9.782036	0.121836	1.054871	0.004975	0.001621	0.002375	-0.729004	-0.166992	-0.524902	0.740683	0.079701	-0.661942	0.082885	4.296892	-83.611204	8.927063	0.109927	0.017267	0.993790	-0.228298	0.973556	0.008337	-0.967366	-0.227797	0.110962	0	0	0
57322	0	0	0	0	0	9.767561	0.103233	1.061851	0.004337	-0.000267	0.002680	-0.734619	-0.162354	-0.515869	0.740673	0.079707	-0.661950	0.082898	4.291782	-83.612590	8.933707	0.109901	0.017276	0.993792	-0.228325	0.973549	0.008326	-0.967362	-0.227823	0.110939	0	0	0
57323	0	0	0	0	0	9.800584	0.126244	1.106112	0.006309	0.001416	-0.000954	-0.737305	-0.161865	-0.523193	0.740671	0.079731	-0.661949	0.082902	4.307262	-83.612764	8.920481	0.109902	0.017250	0.993793	-0.228362	0.973541	0.008355	-0.967353	-0.227862	0.110933	0	0	0
57324	0	0	0	0	0	9.766481	0.121127	1.107101	0.006128	-0.005418	0.002618	-0.739258	-0.166504	-0.525635	0.740644	0.079746	-0.661975	0.082919	4.305475	-83.617090	8.924813	0.109827	0.017247	0.993801	-0.228406	0.973530	0.008346	-0.967352	-0.227907	0.110859	0	0	0
57325	0	0	0	0	0	9.786720	0.098711	1.089827	0.005437	-0.000662	0.001680	-0.736816	-0.162109	-0.521240	0.740634	0.079757	-0.661984	0.082928	4.307464	-83.618576	8.924476	0.109801	0.017242	0.993804	-0.228434	0.973524	0.008348	-0.967348	-0.227935	0.110833	0	0	0
57326	0	0	0	0	0	9.781003	0.139267	1.099759	0.002833	-0.001568	0.001657	-0.743164	-0.164307	-0.515869	0.740622	0.079761	-0.661997	0.082931	4.307216	-83.620661	8.925360	0.109765	0.017239	0.993808	-0.228445	0.973521	0.008345	-0.967349	-0.227946	0.110797	0	0	0
57327	0	0	0	0	0	9.767108	0.111527	1.083760	0.004331	-0.002931	0.006643	-0.740723	-0.163818	-0.523193	0.740602	0.079753	-0.662017	0.082955	4.283879	-83.623816	8.949992	0.109704	0.017277	0.993814	-0.228470	0.973516	0.008296	-0.967350	-0.227967	0.110746	0	0	0
57328	0	0	0	0	0	9.772324	0.079452	1.096143	0.004799	-0.002550	0.001985	-0.736328	-0.164063	-0.524658	0.740585	0.079764	-0.662033	0.082966	4.283447	-83.626476	8.952195	0.109657	0.017274	0.993819	-0.228500	0.973508	0.008291	-0.967348	-0.227997	0.110700	0	0	0
57329	0	0	0	0	0	9.766610	0.119956	1.106092	0.002370	0.000715	0.002352	-0.737305	-0.163574	-0.520264	0.740581	0.079761	-0.662038	0.082968	4.279649	-83.627217	8.955900	0.109644	0.017279	0.993821	-0.228499	0.973509	0.008283	-0.967350	-0.227996	0.110687	0	0	0
57330	0	0	0	0	0	9.766614	0.119679	1.106087	0.000632	-0.000777	0.003658	-0.739990	-0.166504	-0.526367	0.740571	0.079750	-0.662050	0.082973	4.267588	-83.628936	8.967402	0.109611	0.017297	0.993824	-0.228491	0.973511	0.008258	-0.967356	-0.227985	0.110659	0	0	0
57331	0	0	0	0	0	9.800766	0.124454	1.104708	-0.003476	-0.002983	0.002612	-0.741455	-0.159180	-0.515381	0.740556	0.079727	-0.662071	0.082955	4.260750	-83.631815	8.970938	0.109560	0.017296	0.993830	-0.228436	0.973524	0.008241	-0.967374	-0.227930	0.110611	0	0	0
57332	0	0	0	0	0	9.786841	0.096897	1.088904	-0.000462	0.002283	0.000695	-0.744873	-0.160156	-0.522461	0.740558	0.079721	-0.662071	0.082946	4.262052	-83.631659	8.968362	0.109564	0.017291	0.993829	-0.228415	0.973529	0.008243	-0.967379	-0.227908	0.110613	0	0	0
57333	0	0	0	0	0	9.800784	0.124128	1.104581	-0.004980	-0.004284	0.001588	-0.731445	-0.168701	-0.507568	0.740540	0.079693	-0.662099	0.082918	4.258903	-83.635412	8.966936	0.109500	0.017278	0.993837	-0.228338	0.973547	0.008232	-0.967405	-0.227832	0.110549	0	0	0
57334	0	0	0	0	0	9.766688	0.118969	1.105510	-0.001504	-0.001301	-0.001023	-0.740234	-0.157959	-0.519775	0.740531	0.079690	-0.662112	0.082898	4.269783	-83.637230	8.954122	0.109473	0.017249	0.993840	-0.228304	0.973555	0.008251	-0.967416	-0.227801	0.110516	0	0	0
57335	0	0	0	0	0	9.781720	0.128188	1.075767	-0.007643	-0.001211	0.004285	-0.735352	-0.164551	-0.511963	0.740522	0.079647	-0.662130	0.082875	4.251168	-83.639339	8.967289	0.109432	0.017268	0.993844	-0.228214	0.973576	0.008212	-0.967441	-0.227708	0.110482	0	0	0
57336	0	0	0	0	0	9.771918	0.086798	1.117749	-0.007351	-0.004999	-0.000763	-0.738281	-0.163330	-0.523682	0.740503	0.079622	-0.662159	0.082834	4.258783	-83.643282	8.954389	0.109369	0.017233	0.993852	-0.228124	0.973597	0.008222	-0.967470	-0.227620	0.110412	0	0	0
57337	0	0	0	0	0	9.800903	0.123514	1.103593	-0.006309	-0.001416	0.000955	-0.743408	-0.158203	-0.517334	0.740495	0.079594	-0.662175	0.082803	4.258142	-83.645284	8.950154	0.109336	0.017220	0.993856	-0.228041	0.973617	0.008218	-0.967493	-0.227539	0.110378	0	0	0
57338	0	0	0	0	0	9.753392	0.082098	1.066221	-0.006941	-0.000638	-0.002702	-0.740234	-0.160645	-0.519043	0.740491	0.079576	-0.662187	0.082759	4.274288	-83.646652	8.928908	0.109319	0.017175	0.993858	-0.227953	0.973637	0.008248	-0.967516	-0.227455	0.110352	0	0	0
57339	0	0	0	0	0	9.786447	0.105253	1.110339	-0.006075	-0.001225	-0.001374	-0.738770	-0.156982	-0.521484	0.740484	0.079553	-0.662203	0.082717	4.284599	-83.648517	8.913315	0.109291	0.017141	0.993862	-0.227862	0.973658	0.008265	-0.967540	-0.227367	0.110318	0	0	0
57340	0	0	0	0	0	9.771977	0.086820	1.117230	-0.005671	0.000471	0.000651	-0.736328	-0.165527	-0.512207	0.740482	0.079528	-0.662211	0.082690	4.283850	-83.649394	8.909801	0.109277	0.017132	0.993864	-0.227790	0.973675	0.008262	-0.967559	-0.227295	0.110303	0	0	0
57341	0	0	0	0	0	9.786996	0.096239	1.087569	-0.001504	-0.001301	-0.001023	-0.743408	-0.163818	-0.514648	0.740473	0.079523	-0.662225	0.082666	4.295558	-83.651277	8.895674	0.109249	0.017100	0.993867	-0.227748	0.973685	0.008283	-0.967572	-0.227256	0.110269	0	0	0
57342	0	0	0	0	0	9.772543	0.077799	1.094305	0.000228	-0.002474	0.001633	-0.737793	-0.165039	-0.518555	0.740459	0.079518	-0.662242	0.082661	4.294280	-83.653879	8.896093	0.109205	0.017093	0.993872	-0.227734	0.973688	0.008277	-0.967580	-0.227242	0.110224	0	0	0
57343	0	0	0	0	0	9.782922	0.109811	1.029299	0.000404	0.001696	0.002024	-0.741943	-0.167480	-0.520264	0.740457	0.079511	-0.662245	0.082657	4.290862	-83.654226	8.898652	0.109198	0.017097	0.993873	-0.227720	0.973692	0.008270	-0.967584	-0.227228	0.110219	0	0	0
57344	0	0	0	0	0	9.753429	0.081594	1.065922	0.003003	-0.000064	0.006009	-0.735352	-0.156494	-0.521729	0.740448	0.079500	-0.662254	0.082679	4.267757	-83.655638	8.922632	0.109167	0.017139	0.993876	-0.227737	0.973688	0.008223	-0.967584	-0.227240	0.110197	0	0	0
57345	0	0	0	0	0	9.767363	0.108478	1.081766	0.004742	0.001428	0.004704	-0.744873	-0.158447	-0.516846	0.740444	0.079498	-0.662257	0.082697	4.252650	-83.656125	8.939012	0.109153	0.017169	0.993877	-0.227761	0.973683	0.008194	-0.967580	-0.227260	0.110191	0	0	0
57346	0	0	0	0	0	9.786995	0.094834	1.087695	0.006480	0.002920	0.003398	-0.733887	-0.167236	-0.511719	0.740444	0.079508	-0.662253	0.082721	4.243809	-83.655719	8.950645	0.109157	0.017192	0.993876	-0.227809	0.973672	0.008177	-0.967568	-0.227306	0.110199	0	0	0
57347	0	0	0	0	0	9.782364	0.117266	1.052344	0.009136	-0.002819	0.004664	-0.736572	-0.166260	-0.522705	0.740423	0.079525	-0.662270	0.082754	4.233277	-83.658791	8.965309	0.109100	0.017212	0.993882	-0.227881	0.973655	0.008153	-0.967558	-0.227376	0.110148	0	0	0
57348	0	0	0	0	0	9.807215	0.072010	1.070490	0.007403	-0.001646	0.002007	-0.740723	-0.159912	-0.527832	0.740408	0.079545	-0.662282	0.082775	4.233849	-83.660935	8.968002	0.109062	0.017211	0.993886	-0.227936	0.973642	0.008151	-0.967549	-0.227432	0.110111	0	0	0
57349	0	0	0	0	0	9.787022	0.094107	1.087516	0.011050	0.002842	0.003748	-0.740479	-0.163818	-0.511963	0.740407	0.079568	-0.662276	0.082811	4.226895	-83.660473	8.979766	0.109067	0.017235	0.993885	-0.228019	0.973623	0.008139	-0.967529	-0.227512	0.110120	0	0	0
57350	0	0	0	0	0	9.806120	0.089608	1.116084	0.008041	0.000241	0.001702	-0.740723	-0.163086	-0.520264	0.740398	0.079591	-0.662280	0.082832	4.228681	-83.661526	8.981606	0.109048	0.017236	0.993887	-0.228080	0.973608	0.008141	-0.967516	-0.227574	0.110101	0	0	0
57351	0	0	0	0	0	9.768431	0.089122	1.036583	0.010412	0.000954	0.004054	-0.739990	-0.165527	-0.520020	0.740389	0.079613	-0.662282	0.082869	4.220614	-83.662391	8.994515	0.109029	0.017258	0.993889	-0.228164	0.973589	0.008124	-0.967499	-0.227655	0.110087	0	0	0
57352	0	0	0	0	0	9.801969	0.102967	1.058586	0.006428	0.009562	0.002153	-0.736084	-0.164551	-0.520508	0.740412	0.079624	-0.662253	0.082891	4.215619	-83.658137	9.002248	0.109100	0.017284	0.993881	-0.228210	0.973578	0.008120	-0.967480	-0.227700	0.110162	0	0	0
57353	0	0	0	0	0	9.816357	0.121204	1.052543	0.003824	0.008657	0.002131	-0.735352	-0.156982	-0.520752	0.740433	0.079626	-0.662228	0.082902	4.211098	-83.654384	9.007783	0.109163	0.017305	0.993873	-0.228227	0.973574	0.008116	-0.967469	-0.227715	0.110227	0	0	0
57354	0	0	0	0	0	9.757349	0.161030	1.035967	0.000177	0.004170	0.000389	-0.735352	-0.161865	-0.518555	0.740441	0.079622	-0.662221	0.082894	4.213635	-83.653138	9.004334	0.109185	0.017302	0.993871	-0.228211	0.973578	0.008123	-0.967470	-0.227700	0.110248	0	0	0
57355	0	0	0	0	0	9.761390	0.147236	1.094389	-0.002428	0.003265	0.000367	-0.743652	-0.160889	-0.517578	0.740448	0.079605	-0.662218	0.082872	4.215546	-83.652375	8.999198	0.109200	0.017294	0.993869	-0.228156	0.973591	0.008127	-0.967481	-0.227645	0.110261	0	0	0
57356	0	0	0	0	0	9.781547	0.124988	1.077717	-0.004798	0.002551	-0.001986	-0.737305	-0.162842	-0.522461	0.740453	0.079591	-0.662217	0.082839	4.228044	-83.651953	8.982858	0.109212	0.017264	0.993869	-0.228090	0.973606	0.008152	-0.967496	-0.227581	0.110267	0	0	0
57357	0	0	0	0	0	9.782036	0.115979	1.055532	-0.003351	0.007830	0.001757	-0.742432	-0.163574	-0.518799	0.740474	0.079565	-0.662199	0.082822	4.220938	-83.648710	8.986545	0.109266	0.017280	0.993862	-0.228032	0.973620	0.008142	-0.967503	-0.227522	0.110324	0	0	0
57358	0	0	0	0	0	9.751919	0.097010	1.115324	-0.002428	0.003265	0.000367	-0.739258	-0.167969	-0.516846	0.740481	0.079552	-0.662196	0.082806	4.222438	-83.647980	8.982637	0.109280	0.017274	0.993861	-0.227991	0.973629	0.008146	-0.967511	-0.227481	0.110336	0	0	0
57359	0	0	0	0	0	9.801046	0.111550	1.084801	-0.004798	0.002551	-0.001986	-0.732178	-0.160645	-0.519287	0.740486	0.079539	-0.662196	0.082771	4.236561	-83.647647	8.964646	0.109291	0.017241	0.993860	-0.227923	0.973645	0.008174	-0.967526	-0.227417	0.110340	0	0	0
57360	0	0	0	0	0	9.767420	0.097496	1.063690	-0.002890	0.005547	0.001062	-0.733887	-0.161621	-0.518555	0.740499	0.079521	-0.662185	0.082757	4.233358	-83.645641	8.965204	0.109325	0.017247	0.993856	-0.227878	0.973655	0.008170	-0.967533	-0.227372	0.110375	0	0	0
57361	0	0	0	0	0	9.752346	0.087973	1.093695	-0.000462	0.002282	0.000695	-0.729492	-0.158936	-0.519531	0.740502	0.079512	-0.662185	0.082743	4.235534	-83.645436	8.961152	0.109330	0.017240	0.993856	-0.227846	0.973663	0.008175	-0.967540	-0.227340	0.110379	0	0	0
57362	0	0	0	0	0	9.766822	0.106262	1.086861	-0.003705	-0.000509	0.000977	-0.732666	-0.159668	-0.519775	0.740496	0.079494	-0.662196	0.082723	4.234603	-83.646888	8.958955	0.109306	0.017232	0.993859	-0.227793	0.973675	0.008171	-0.967555	-0.227288	0.110354	0	0	0
57363	0	0	0	0	0	9.771995	0.074586	1.099414	-0.000404	-0.001696	-0.002024	-0.731934	-0.157471	-0.520996	0.740486	0.079493	-0.662210	0.082697	4.251956	-83.648797	8.939435	0.109279	0.017190	0.993862	-0.227755	0.973684	0.008202	-0.967567	-0.227253	0.110318	0	0	0
57364	0	0	0	0	0	9.752366	0.087920	1.093523	-0.001739	-0.001491	0.001306	-0.744141	-0.158447	-0.516846	0.740476	0.079482	-0.662224	0.082685	4.250845	-83.650824	8.938552	0.109244	0.017183	0.993866	-0.227722	0.973692	0.008197	-0.967579	-0.227220	0.110283	0	0	0
57365	0	0	0	0	0	9.772021	0.074714	1.099171	0.005905	-0.000282	-0.002978	-0.733398	-0.163086	-0.513916	0.740469	0.079507	-0.662230	0.082676	4.275724	-83.652011	8.915018	0.109231	0.017134	0.993869	-0.227742	0.973687	0.008243	-0.967575	-0.227246	0.110259	0	0	0
57366	0	0	0	0	0	9.762251	0.129600	1.051038	0.005501	-0.001978	-0.005002	-0.740234	-0.162598	-0.515137	0.740457	0.079543	-0.662241	0.082664	4.311361	-83.654044	8.881334	0.109206	0.017065	0.993873	-0.227772	0.973679	0.008309	-0.967571	-0.227283	0.110219	0	0	0
57367	0	0	0	0	0	9.766887	0.107142	1.086192	0.008503	-0.002042	0.001009	-0.730713	-0.158936	-0.514404	0.740440	0.079570	-0.662254	0.082682	4.319068	-83.656480	8.877266	0.109166	0.017051	0.993877	-0.227833	0.973665	0.008321	-0.967561	-0.227346	0.110175	0	0	0
57368	0	0	0	0	0	9.781932	0.116672	1.056419	0.006771	-0.000869	-0.001649	-0.737549	-0.158936	-0.521973	0.740430	0.079599	-0.662262	0.082687	4.337800	-83.658023	8.861323	0.109144	0.017016	0.993880	-0.227879	0.973654	0.008355	-0.967553	-0.227396	0.110146	0	0	0
57369	0	0	0	0	0	9.801043	0.112516	1.084732	0.007637	-0.001456	-0.000320	-0.733154	-0.164551	-0.512207	0.740417	0.079623	-0.662272	0.082694	4.350807	-83.659943	8.850827	0.109114	0.016991	0.993884	-0.227920	0.973644	0.008377	-0.967547	-0.227440	0.110111	0	0	0
57370	0	0	0	0	0	9.781407	0.125998	1.078870	0.006771	-0.000870	-0.001649	-0.732422	-0.166504	-0.516113	0.740406	0.079653	-0.662280	0.082699	4.369555	-83.661485	8.834869	0.109093	0.016956	0.993887	-0.227966	0.973633	0.008411	-0.967538	-0.227490	0.110082	0	0	0
57371	0	0	0	0	0	9.787125	0.085447	1.068787	0.009141	-0.000156	0.000704	-0.741943	-0.169434	-0.518311	0.740396	0.079684	-0.662285	0.082719	4.379146	-83.662768	8.829538	0.109072	0.016943	0.993889	-0.228037	0.973616	0.008428	-0.967524	-0.227563	0.110058	0	0	0
57372	0	0	0	0	0	9.781420	0.126194	1.078727	0.003066	-0.001378	-0.000671	-0.736084	-0.157959	-0.524902	0.740385	0.079697	-0.662296	0.082715	4.390958	-83.664643	8.818422	0.109043	0.016917	0.993893	-0.228048	0.973613	0.008448	-0.967524	-0.227577	0.110024	0	0	0
57373	0	0	0	0	0	9.766958	0.107895	1.085472	0.005032	-0.002361	-0.000342	-0.736816	-0.159668	-0.513428	0.740370	0.079714	-0.662311	0.082715	4.403775	-83.667067	8.807002	0.109005	0.016889	0.993898	-0.228071	0.973608	0.008470	-0.967523	-0.227602	0.109980	0	0	0
57374	0	0	0	0	0	9.768076	0.090010	1.039849	0.005032	-0.002361	-0.000342	-0.737793	-0.156250	-0.509766	0.740355	0.079733	-0.662325	0.082719	4.415426	-83.669517	8.797182	0.108966	0.016863	0.993902	-0.228101	0.973600	0.008489	-0.967521	-0.227635	0.109936	0	0	0
57375	0	0	0	0	0	9.801689	0.103987	1.061081	0.001094	-0.003060	0.002964	-0.735596	-0.166992	-0.518799	0.740337	0.079724	-0.662347	0.082716	4.408177	-83.672696	8.803428	0.108910	0.016867	0.993909	-0.228085	0.973604	0.008471	-0.967531	-0.227619	0.109882	0	0	0
57376	0	0	0	0	0	9.820819	0.099463	1.089287	0.002832	-0.001569	0.001658	-0.739502	-0.171143	-0.521973	0.740324	0.079728	-0.662360	0.082720	4.407952	-83.674782	8.804288	0.108874	0.016863	0.993913	-0.228096	0.973602	0.008468	-0.967532	-0.227630	0.109846	0	0	0
57377	0	0	0	0	0	9.791318	0.071502	1.125808	0.002370	0.000714	0.002353	-0.731201	-0.161621	-0.516113	0.740319	0.079729	-0.662365	0.082726	4.405370	-83.675560	8.807447	0.108859	0.016867	0.993914	-0.228107	0.973599	0.008462	-0.967531	-0.227640	0.109833	0	0	0
57378	0	0	0	0	0	9.786711	0.093922	1.090335	0.004564	-0.002742	0.004316	-0.735596	-0.168945	-0.515137	0.740301	0.079732	-0.662382	0.082745	4.392895	-83.678433	8.821631	0.108806	0.016886	0.993920	-0.228137	0.973592	0.008434	-0.967530	-0.227668	0.109785	0	0	0
57379	0	0	0	0	0	9.791911	0.061955	1.102708	0.002194	-0.003456	0.001964	-0.737061	-0.166016	-0.514404	0.740282	0.079734	-0.662403	0.082745	4.393200	-83.681624	8.821528	0.108751	0.016877	0.993926	-0.228141	0.973592	0.008430	-0.967535	-0.227672	0.109730	0	0	0
57380	0	0	0	0	0	9.781592	0.125241	1.077276	0.008679	0.002125	0.001399	-0.736084	-0.159668	-0.523438	0.740280	0.079759	-0.662400	0.082769	4.396195	-83.681588	8.822519	0.108752	0.016879	0.993926	-0.228209	0.973576	0.008436	-0.967519	-0.227740	0.109730	0	0	0
57381	0	0	0	0	0	9.771199	0.092922	1.142202	0.001960	-0.003646	0.004294	-0.747559	-0.165039	-0.513184	0.740260	0.079750	-0.662422	0.082775	4.383740	-83.684965	8.834731	0.108690	0.016894	0.993932	-0.228206	0.973576	0.008408	-0.967527	-0.227736	0.109673	0	0	0
57382	0	0	0	0	0	9.800733	0.120560	1.105429	0.001100	-0.000396	-0.001000	-0.741211	-0.170654	-0.521729	0.740253	0.079756	-0.662431	0.082764	4.395776	-83.686265	8.822257	0.108671	0.016866	0.993935	-0.228198	0.973578	0.008429	-0.967531	-0.227730	0.109649	0	0	0
57383	0	0	0	0	0	9.781640	0.124912	1.076883	-0.000638	-0.001887	0.000306	-0.736328	-0.162598	-0.519775	0.740241	0.079754	-0.662447	0.082751	4.402606	-83.688612	8.814213	0.108634	0.016845	0.993939	-0.228177	0.973583	0.008439	-0.967540	-0.227711	0.109607	0	0	0
57384	0	0	0	0	0	9.767723	0.097483	1.060907	-0.003243	-0.002790	0.000283	-0.741211	-0.160645	-0.513184	0.740227	0.079741	-0.662466	0.082729	4.406490	-83.691335	8.807437	0.108589	0.016825	0.993944	-0.228128	0.973595	0.008443	-0.967557	-0.227663	0.109560	0	0	0
57385	0	0	0	0	0	9.767219	0.106454	1.083267	-0.004747	-0.004091	-0.000740	-0.732422	-0.162598	-0.512207	0.740210	0.079724	-0.662492	0.082694	4.416068	-83.694832	8.793576	0.108533	0.016789	0.993951	-0.228054	0.973612	0.008456	-0.967580	-0.227593	0.109498	0	0	0
57386	0	0	0	0	0	9.787442	0.084135	1.065982	-0.003243	-0.002791	0.000283	-0.739502	-0.160645	-0.512939	0.740196	0.079710	-0.662511	0.082672	4.419964	-83.697555	8.786788	0.108488	0.016769	0.993956	-0.228005	0.973623	0.008460	-0.967597	-0.227545	0.109450	0	0	0
57387	0	0	0	0	0	9.806551	0.079694	1.094410	-0.001561	0.002679	0.001695	-0.739014	-0.156982	-0.523193	0.740199	0.079695	-0.662511	0.082660	4.416224	-83.697336	8.788303	0.108492	0.016773	0.993956	-0.227968	0.973632	0.008453	-0.967605	-0.227507	0.109455	0	0	0
57388	0	0	0	0	0	9.787455	0.083701	1.065894	-0.005215	-0.004472	0.003919	-0.738525	-0.168213	-0.519775	0.740179	0.079663	-0.662540	0.082645	4.400850	-83.701180	8.799767	0.108422	0.016784	0.993963	-0.227904	0.973647	0.008419	-0.967628	-0.227441	0.109390	0	0	0
57389	0	0	0	0	0	9.766762	0.114700	1.105303	-0.003704	-0.000508	0.000977	-0.737549	-0.165283	-0.514404	0.740174	0.079642	-0.662551	0.082621	4.400894	-83.702581	8.796019	0.108399	0.016773	0.993966	-0.227841	0.973662	0.008417	-0.967646	-0.227378	0.109366	0	0	0
57390	0	0	0	0	0	9.787509	0.083365	1.065427	-0.000177	-0.004170	-0.000389	-0.738281	-0.162354	-0.514404	0.740154	0.079643	-0.662574	0.082606	4.410578	-83.706063	8.785176	0.108343	0.016744	0.993973	-0.227821	0.973667	0.008431	-0.967657	-0.227361	0.109304	0	0	0
57391	0	0	0	0	0	9.807196	0.069981	1.070794	-0.002377	-0.003378	0.001612	-0.740723	-0.161133	-0.514648	0.740137	0.079628	-0.662597	0.082590	4.409644	-83.709282	8.783591	0.108288	0.016732	0.993979	-0.227778	0.973677	0.008425	-0.967673	-0.227319	0.109249	0	0	0
57392	0	0	0	0	0	9.788124	0.074176	1.042016	-0.001277	-0.003774	0.000612	-0.736816	-0.157471	-0.512695	0.740120	0.079622	-0.662620	0.082575	4.413368	-83.712582	8.778109	0.108233	0.016713	0.993985	-0.227749	0.973683	0.008427	-0.967686	-0.227291	0.109191	0	0	0
57393	0	0	0	0	0	9.806174	0.087752	1.115759	-0.000461	0.002283	0.000694	-0.740723	-0.158447	-0.513428	0.740121	0.079612	-0.662621	0.082562	4.415010	-83.712561	8.774565	0.108235	0.016706	0.993985	-0.227716	0.973691	0.008431	-0.967693	-0.227259	0.109191	0	0	0
57394	0	0	0	0	0	9.768463	0.087341	1.036433	-0.000461	0.002283	0.000695	-0.742188	-0.167725	-0.516357	0.740123	0.079605	-0.662621	0.082553	4.416352	-83.712404	8.771950	0.108238	0.016702	0.993985	-0.227694	0.973696	0.008433	-0.967698	-0.227237	0.109194	0	0	0
57395	0	0	0	0	0	9.802051	0.101362	1.057985	0.001966	-0.000983	0.000329	-0.739990	-0.165283	-0.522461	0.740113	0.079610	-0.662632	0.082547	4.423349	-83.714239	8.764808	0.108209	0.016684	0.993988	-0.227691	0.973697	0.008444	-0.967702	-0.227236	0.109161	0	0	0
57396	0	0	0	0	0	9.767906	0.096147	1.059335	-0.000057	0.003979	0.002718	-0.738770	-0.162109	-0.509033	0.740119	0.079597	-0.662627	0.082547	4.413751	-83.713203	8.773434	0.108224	0.016703	0.993986	-0.227676	0.973701	0.008427	-0.967704	-0.227219	0.109181	0	0	0
57397	0	0	0	0	0	9.767336	0.104863	1.082368	0.001909	0.002996	0.003047	-0.742920	-0.162842	-0.520264	0.740121	0.079591	-0.662624	0.082552	4.405212	-83.712828	8.781912	0.108228	0.016720	0.993985	-0.227676	0.973701	0.008412	-0.967704	-0.227217	0.109188	0	0	0
57398	0	0	0	0	0	9.767859	0.095574	1.059825	0.003237	0.000126	0.003682	-0.736084	-0.159668	-0.523926	0.740113	0.079589	-0.662632	0.082566	4.394045	-83.714035	8.794013	0.108204	0.016739	0.993988	-0.227693	0.973697	0.008389	-0.967702	-0.227231	0.109169	0	0	0
57399	0	0	0	0	0	9.787477	0.082046	1.065828	0.006252	0.005390	0.001763	-0.735352	-0.166504	-0.519531	0.740123	0.079599	-0.662618	0.082579	4.393068	-83.712090	8.796867	0.108236	0.016750	0.993984	-0.227724	0.973689	0.008389	-0.967691	-0.227263	0.109203	0	0	0
57400	0	0	0	0	0	9.787424	0.081872	1.066327	0.002548	0.004883	0.002741	-0.742188	-0.159912	-0.521240	0.740131	0.079596	-0.662608	0.082588	4.384492	-83.710538	8.805965	0.108260	0.016771	0.993981	-0.227734	0.973687	0.008375	-0.967686	-0.227270	0.109231	0	0	0
57401	0	0	0	0	0	9.787381	0.081680	1.066734	0.005614	0.003503	0.002070	-0.743164	-0.157471	-0.519287	0.740135	0.079605	-0.662601	0.082601	4.382796	-83.709713	8.809459	0.108273	0.016780	0.993980	-0.227765	0.973680	0.008373	-0.967678	-0.227300	0.109245	0	0	0
57402	0	0	0	0	0	9.787345	0.081531	1.067078	0.001043	0.003583	0.001718	-0.740967	-0.173828	-0.517090	0.740140	0.079600	-0.662596	0.082602	4.379183	-83.708858	8.812697	0.108287	0.016788	0.993978	-0.227758	0.973682	0.008367	-0.967678	-0.227293	0.109261	0	0	0
57403	0	0	0	0	0	9.767687	0.094657	1.061495	0.004336	-0.000270	0.002682	-0.736084	-0.170654	-0.526855	0.740130	0.079606	-0.662605	0.082613	4.375555	-83.710321	8.817777	0.108260	0.016794	0.993981	-0.227784	0.973676	0.008358	-0.967675	-0.227318	0.109236	0	0	0
57404	0	0	0	0	0	9.801793	0.099606	1.060535	-0.001788	0.005153	0.000059	-0.732178	-0.160400	-0.518066	0.740143	0.079596	-0.662594	0.082598	4.378291	-83.708497	8.812994	0.108293	0.016790	0.993977	-0.227748	0.973684	0.008366	-0.967679	-0.227283	0.109267	0	0	0
57405	0	0	0	0	0	9.787254	0.081193	1.067932	0.000177	0.004169	0.000388	-0.735107	-0.160400	-0.516113	0.740152	0.079591	-0.662586	0.082588	4.382547	-83.707089	8.807521	0.108319	0.016783	0.993975	-0.227727	0.973689	0.008376	-0.967681	-0.227262	0.109291	0	0	0
57406	0	0	0	0	0	9.782090	0.112805	1.055374	0.002832	-0.001570	0.001659	-0.728760	-0.161621	-0.515137	0.740139	0.079595	-0.662599	0.082592	4.382311	-83.709175	8.808392	0.108283	0.016779	0.993979	-0.227738	0.973686	0.008373	-0.967683	-0.227274	0.109255	0	0	0
57407	0	0	0	0	0	9.782091	0.112642	1.055378	0.000405	0.001696	0.002024	-0.738525	-0.159424	-0.516846	0.740139	0.079585	-0.662601	0.082586	4.378329	-83.709390	8.811088	0.108278	0.016784	0.993979	-0.227717	0.973691	0.008365	-0.967688	-0.227251	0.109252	0	0	0
57408	0	0	0	0	0	9.752553	0.084678	1.092114	0.000405	0.001696	0.002024	-0.735840	-0.162354	-0.521729	0.740138	0.079578	-0.662603	0.082585	4.373513	-83.709627	8.815168	0.108273	0.016791	0.993979	-0.227705	0.973694	0.008355	-0.967692	-0.227239	0.109248	0	0	0
57409	0	0	0	0	0	9.787199	0.080747	1.068476	0.002378	0.003376	-0.001612	-0.742432	-0.160400	-0.506836	0.740144	0.079585	-0.662597	0.082572	4.388610	-83.708722	8.799678	0.108293	0.016764	0.993978	-0.227696	0.973696	0.008385	-0.967692	-0.227233	0.109262	0	0	0
57410	0	0	0	0	0	9.753041	0.075729	1.069896	0.001504	0.001299	0.001024	-0.735107	-0.156006	-0.517822	0.740141	0.079586	-0.662600	0.082570	4.389766	-83.709142	8.798384	0.108286	0.016760	0.993978	-0.227694	0.973697	0.008387	-0.967693	-0.227231	0.109254	0	0	0
57411	0	0	0	0	0	9.801639	0.099002	1.062022	-0.000057	0.003979	0.002718	-0.740234	-0.164307	-0.519531	0.740147	0.079569	-0.662596	0.082566	4.380223	-83.708281	8.806263	0.108299	0.016778	0.993977	-0.227667	0.973703	0.008370	-0.967698	-0.227202	0.109271	0	0	0
57412	0	0	0	0	0	9.768011	0.084689	1.040900	0.009084	0.003818	0.003424	-0.738281	-0.163574	-0.527832	0.740149	0.079588	-0.662587	0.082599	4.372286	-83.707367	8.818485	0.108311	0.016803	0.993975	-0.227740	0.973686	0.008356	-0.967679	-0.227273	0.109288	0	0	0
57413	0	0	0	0	0	9.767418	0.093572	1.064062	0.005387	0.005975	0.000435	-0.736328	-0.169189	-0.520752	0.740162	0.079601	-0.662571	0.082606	4.378054	-83.704991	8.814300	0.108353	0.016802	0.993971	-0.227766	0.973680	0.008370	-0.967668	-0.227300	0.109328	0	0	0
57414	0	0	0	0	0	9.767364	0.093562	1.064554	0.000178	0.004169	0.000388	-0.730713	-0.170654	-0.520996	0.740170	0.079597	-0.662563	0.082599	4.380600	-83.703743	8.810842	0.108375	0.016798	0.993968	-0.227750	0.973684	0.008377	-0.967670	-0.227284	0.109349	0	0	0
57415	0	0	0	0	0	9.801436	0.098737	1.063919	0.003655	0.007148	-0.002223	-0.741699	-0.161133	-0.526367	0.740188	0.079617	-0.662541	0.082594	4.400218	-83.700548	8.792483	0.108435	0.016772	0.993962	-0.227769	0.973679	0.008418	-0.967659	-0.227307	0.109401	0	0	0
57416	0	0	0	0	0	9.781734	0.112059	1.058750	0.002547	0.004881	0.002742	-0.747314	-0.158447	-0.511230	0.740197	0.079613	-0.662531	0.082604	4.391656	-83.698997	8.801566	0.108459	0.016793	0.993959	-0.227779	0.973677	0.008404	-0.967654	-0.227314	0.109429	0	0	0
57417	0	0	0	0	0	9.767748	0.084591	1.043373	0.003243	0.002789	-0.000282	-0.733154	-0.155518	-0.520508	0.740199	0.079619	-0.662528	0.082599	4.400076	-83.698629	8.793222	0.108468	0.016779	0.993958	-0.227779	0.973676	0.008421	-0.967653	-0.227316	0.109435	0	0	0
57418	0	0	0	0	0	9.782757	0.093989	1.014078	0.004748	0.004088	0.000742	-0.739990	-0.157227	-0.519531	0.740205	0.079631	-0.662519	0.082608	4.403436	-83.697444	8.791579	0.108489	0.016779	0.993956	-0.227808	0.973670	0.008429	-0.967643	-0.227345	0.109455	0	0	0
57419	0	0	0	0	0	9.767674	0.084527	1.044072	0.005613	0.003501	0.002072	-0.736816	-0.163574	-0.512207	0.740209	0.079635	-0.662513	0.082617	4.400212	-83.696616	8.795844	0.108502	0.016789	0.993954	-0.227825	0.973666	0.008424	-0.967638	-0.227362	0.109469	0	0	0
57420	0	0	0	0	0	9.816813	0.098991	1.013646	0.000412	0.004358	-0.001941	-0.741455	-0.165039	-0.518066	0.740218	0.079639	-0.662504	0.082602	4.414855	-83.695158	8.780352	0.108531	0.016763	0.993952	-0.227809	0.973669	0.008454	-0.967638	-0.227349	0.109492	0	0	0
57421	0	0	0	0	0	9.781546	0.111891	1.060503	0.008444	0.001930	0.003732	-0.739014	-0.156738	-0.524902	0.740214	0.079656	-0.662503	0.082631	4.407102	-83.695453	8.791915	0.108523	0.016785	0.993952	-0.227875	0.973654	0.008438	-0.967624	-0.227413	0.109488	0	0	0
57422	0	0	0	0	0	9.766998	0.093395	1.067921	0.001455	0.007940	-0.000224	-0.734131	-0.160889	-0.513428	0.740234	0.079658	-0.662481	0.082627	4.412029	-83.692025	8.786798	0.108583	0.016784	0.993946	-0.227871	0.973655	0.008452	-0.967618	-0.227409	0.109547	0	0	0
57423	0	0	0	0	0	9.782529	0.093739	1.016299	0.008856	0.006288	0.001791	-0.735840	-0.166016	-0.512695	0.740246	0.079675	-0.662463	0.082649	4.411583	-83.689613	8.790450	0.108623	0.016797	0.993941	-0.227925	0.973642	0.008455	-0.967601	-0.227462	0.109589	0	0	0
57424	0	0	0	0	0	9.781352	0.111729	1.062305	0.007991	0.006874	0.000461	-0.735107	-0.160400	-0.514160	0.740259	0.079699	-0.662442	0.082669	4.417135	-83.686823	8.788472	0.108672	0.016801	0.993936	-0.227985	0.973628	0.008469	-0.967581	-0.227522	0.109636	0	0	0
57425	0	0	0	0	0	9.781832	0.102766	1.040333	0.006025	0.007857	0.000131	-0.740479	-0.162842	-0.509033	0.740277	0.079716	-0.662419	0.082679	4.424111	-83.683559	8.783746	0.108729	0.016801	0.993929	-0.228022	0.973619	0.008487	-0.967566	-0.227560	0.109692	0	0	0
57426	0	0	0	0	0	9.800255	0.107542	1.092327	0.006664	0.009742	-0.000174	-0.741943	-0.153809	-0.515625	0.740301	0.079735	-0.662388	0.082694	4.431028	-83.679103	8.779628	0.108807	0.016805	0.993921	-0.228068	0.973608	0.008506	-0.967546	-0.227607	0.109768	0	0	0
57427	0	0	0	0	0	9.746950	0.106920	1.065913	0.009730	0.008361	-0.000843	-0.734375	-0.160645	-0.511475	0.740319	0.079765	-0.662363	0.082711	4.443669	-83.675637	8.770857	0.108869	0.016797	0.993914	-0.228132	0.973593	0.008535	-0.967524	-0.227672	0.109826	0	0	0
57428	0	0	0	0	0	9.780439	0.121101	1.088171	0.003421	0.006954	0.000107	-0.736572	-0.165039	-0.516113	0.740335	0.079773	-0.662344	0.082714	4.448378	-83.672785	8.767092	0.108919	0.016797	0.993909	-0.228147	0.973589	0.008548	-0.967515	-0.227688	0.109874	0	0	0
57429	0	0	0	0	0	9.761324	0.125275	1.060137	0.008443	0.001928	0.003735	-0.741455	-0.163330	-0.518066	0.740330	0.079789	-0.662343	0.082743	4.440423	-83.673059	8.778715	0.108911	0.016819	0.993909	-0.228210	0.973575	0.008532	-0.967501	-0.227749	0.109871	0	0	0
57430	0	0	0	0	0	9.780917	0.111832	1.066295	0.005386	0.005970	0.000438	-0.739014	-0.168945	-0.523682	0.740342	0.079804	-0.662327	0.082754	4.444947	-83.670785	8.776269	0.108950	0.016820	0.993905	-0.228245	0.973566	0.008544	-0.967489	-0.227784	0.109910	0	0	0
57431	0	0	0	0	0	9.752425	0.066074	1.057980	0.009317	0.004002	0.001100	-0.732910	-0.168213	-0.512451	0.740346	0.079831	-0.662316	0.082777	4.450727	-83.669661	8.774681	0.108970	0.016820	0.993903	-0.228315	0.973550	0.008556	-0.967470	-0.227855	0.109928	0	0	0
57432	0	0	0	0	0	9.799884	0.107426	1.095660	0.007116	0.004796	0.003099	-0.739258	-0.160156	-0.521973	0.740352	0.079844	-0.662305	0.082803	4.443010	-83.668176	8.785549	0.108992	0.016845	0.993900	-0.228369	0.973537	0.008544	-0.967455	-0.227907	0.109955	0	0	0
57433	0	0	0	0	0	9.799821	0.107280	1.096243	0.006890	0.007267	0.001463	-0.732666	-0.162109	-0.517334	0.740367	0.079860	-0.662284	0.082821	4.443931	-83.665227	8.787348	0.109042	0.016856	0.993894	-0.228415	0.973526	0.008549	-0.967438	-0.227952	0.110006	0	0	0
57434	0	0	0	0	0	9.776126	0.134158	1.033069	0.006890	0.007267	0.001463	-0.739746	-0.158447	-0.519043	0.740382	0.079876	-0.662262	0.082841	4.443523	-83.662258	8.790731	0.109092	0.016870	0.993888	-0.228465	0.973515	0.008553	-0.967421	-0.228002	0.110057	0	0	0
57435	0	0	0	0	0	9.780602	0.111491	1.069213	0.006025	0.007853	0.000133	-0.739990	-0.168213	-0.514893	0.740401	0.079889	-0.662239	0.082848	4.449660	-83.658903	8.786306	0.109151	0.016871	0.993882	-0.228493	0.973508	0.008569	-0.967407	-0.228030	0.110114	0	0	0
57436	0	0	0	0	0	9.794457	0.138924	1.085664	0.003421	0.006952	0.000107	-0.733887	-0.166016	-0.517090	0.740417	0.079897	-0.662220	0.082852	4.454358	-83.656053	8.782552	0.109201	0.016871	0.993876	-0.228508	0.973504	0.008582	-0.967398	-0.228046	0.110163	0	0	0
57437	0	0	0	0	0	9.814610	0.116352	1.069250	0.006240	0.002722	0.005736	-0.726807	-0.161621	-0.521729	0.740415	0.079900	-0.662218	0.082883	4.435397	-83.655935	8.804356	0.109197	0.016913	0.993876	-0.228558	0.973493	0.008545	-0.967387	-0.228092	0.110168	0	0	0
57438	0	0	0	0	0	9.780417	0.110958	1.070956	-0.000746	0.008731	0.001773	-0.730469	-0.158447	-0.520264	0.740438	0.079886	-0.662194	0.082880	4.428450	-83.652143	8.809918	0.109260	0.016934	0.993869	-0.228535	0.973498	0.008537	-0.967385	-0.228067	0.110234	0	0	0
57439	0	0	0	0	0	9.795428	0.120146	1.042030	0.001681	0.005464	0.001412	-0.732666	-0.164063	-0.517822	0.740451	0.079879	-0.662181	0.082875	4.426599	-83.650024	8.810847	0.109296	0.016941	0.993865	-0.228519	0.973502	0.008536	-0.967385	-0.228050	0.110271	0	0	0
57440	0	0	0	0	0	9.779718	0.119642	1.094787	-0.000059	0.003978	0.002717	-0.734131	-0.164551	-0.517090	0.740457	0.079867	-0.662175	0.082876	4.417098	-83.648989	8.819374	0.109311	0.016960	0.993863	-0.228503	0.973506	0.008520	-0.967387	-0.228032	0.110291	0	0	0
57441	0	0	0	0	0	9.780239	0.110372	1.072641	-0.001385	0.006846	0.002079	-0.739258	-0.162842	-0.518555	0.740474	0.079850	-0.662159	0.082868	4.410391	-83.646272	8.824072	0.109356	0.016976	0.993858	-0.228470	0.973514	0.008510	-0.967390	-0.227997	0.110339	0	0	0
57442	0	0	0	0	0	9.814292	0.115340	1.072274	-0.000510	0.008918	-0.000556	-0.736084	-0.162354	-0.516602	0.740499	0.079845	-0.662134	0.082857	4.415470	-83.642270	8.817668	0.109427	0.016975	0.993850	-0.228446	0.973519	0.008525	-0.967387	-0.227974	0.110407	0	0	0
57443	0	0	0	0	0	9.745330	0.114275	1.098209	-0.000971	0.011200	0.000137	-0.733154	-0.159424	-0.515381	0.740531	0.079833	-0.662101	0.082844	4.416734	-83.637053	8.814416	0.109517	0.016982	0.993840	-0.228411	0.973527	0.008535	-0.967385	-0.227939	0.110497	0	0	0
57444	0	0	0	0	0	9.778776	0.128571	1.120668	-0.005245	0.007495	-0.005268	-0.739746	-0.155029	-0.511475	0.740554	0.079826	-0.662081	0.082799	4.443776	-83.633655	8.783183	0.109585	0.016932	0.993833	-0.228337	0.973544	0.008591	-0.967395	-0.227870	0.110552	0	0	0
57445	0	0	0	0	0	9.745755	0.105541	1.076918	-0.000699	0.002093	0.003023	-0.731201	-0.164063	-0.516357	0.740554	0.079806	-0.662085	0.082792	4.432935	-83.633858	8.791834	0.109579	0.016948	0.993834	-0.228301	0.973553	0.008570	-0.967404	-0.227832	0.110550	0	0	0
57446	0	0	0	0	0	9.798898	0.106356	1.104552	-0.001954	0.003643	-0.004298	-0.735107	-0.157471	-0.519531	0.740563	0.079810	-0.662078	0.082760	4.458412	-83.632703	8.764074	0.109607	0.016898	0.993831	-0.228259	0.973562	0.008621	-0.967411	-0.227796	0.110566	0	0	0
57447	0	0	0	0	0	9.765290	0.092366	1.083518	-0.001386	0.006844	0.002080	-0.736572	-0.167969	-0.508301	0.740581	0.079790	-0.662062	0.082750	4.450951	-83.629983	8.769134	0.109652	0.016915	0.993826	-0.228219	0.973572	0.008610	-0.967415	-0.227754	0.110614	0	0	0
57448	0	0	0	0	0	9.765237	0.092064	1.084018	0.000804	0.003390	0.004048	-0.732910	-0.169189	-0.517334	0.740584	0.079777	-0.662059	0.082758	4.435388	-83.629342	8.784258	0.109658	0.016945	0.993825	-0.228213	0.973573	0.008581	-0.967416	-0.227744	0.110628	0	0	0
57449	0	0	0	0	0	9.764617	0.100541	1.107030	0.004036	0.003515	0.007736	-0.731689	-0.160889	-0.514160	0.740584	0.079767	-0.662055	0.082792	4.405175	-83.628912	8.816427	0.109656	0.017008	0.993824	-0.228249	0.973565	0.008523	-0.967408	-0.227774	0.110640	0	0	0
57450	0	0	0	0	0	9.794774	0.118712	1.048322	0.006652	0.007074	0.003797	-0.730713	-0.165771	-0.512939	0.740598	0.079775	-0.662036	0.082820	4.392808	-83.626155	8.831707	0.109699	0.017044	0.993819	-0.228300	0.973554	0.008503	-0.967391	-0.227821	0.110689	0	0	0
57451	0	0	0	0	0	9.779000	0.118061	1.101354	0.008156	0.008371	0.004823	-0.727783	-0.157227	-0.521729	0.740615	0.079784	-0.662012	0.082854	4.376892	-83.622753	8.851227	0.109752	0.017091	0.993812	-0.228362	0.973539	0.008477	-0.967370	-0.227879	0.110750	0	0	0
57452	0	0	0	0	0	9.818755	0.082224	1.090996	0.009955	0.005880	0.000802	-0.738281	-0.170166	-0.516357	0.740624	0.079814	-0.661994	0.082882	4.382213	-83.620547	8.850613	0.109790	0.017096	0.993808	-0.228441	0.973521	0.008490	-0.967347	-0.227959	0.110788	0	0	0
57453	0	0	0	0	0	9.797881	0.113423	1.131169	0.010120	0.007385	0.005157	-0.730469	-0.159912	-0.516846	0.740638	0.079828	-0.661972	0.082923	4.366069	-83.617623	8.871327	0.109833	0.017143	0.993802	-0.228520	0.973502	0.008463	-0.967324	-0.228033	0.110841	0	0	0
57454	0	0	0	0	0	9.764870	0.090111	1.087485	0.009316	0.003995	0.001108	-0.735107	-0.170410	-0.521484	0.740641	0.079856	-0.661962	0.082948	4.370199	-83.616506	8.871542	0.109853	0.017147	0.993800	-0.228593	0.973485	0.008472	-0.967304	-0.228107	0.110859	0	0	0
57455	0	0	0	0	0	9.759125	0.130610	1.097902	0.007516	0.006485	0.005130	-0.736816	-0.165771	-0.513916	0.740652	0.079862	-0.661944	0.082981	4.353376	-83.614089	8.891590	0.109888	0.017191	0.993795	-0.228650	0.973472	0.008443	-0.967287	-0.228159	0.110904	0	0	0
57456	0	0	0	0	0	9.793750	0.126377	1.075124	0.005741	0.014291	0.001218	-0.729980	-0.160400	-0.520020	0.740691	0.079872	-0.661897	0.082999	4.350907	-83.607095	8.896385	0.110006	0.017219	0.993782	-0.228688	0.973463	0.008447	-0.967264	-0.228196	0.111025	0	0	0
57457	0	0	0	0	0	9.813193	0.112862	1.082548	0.001112	0.018351	0.003574	-0.734131	-0.167969	-0.508057	0.740745	0.079854	-0.661838	0.083009	4.333338	-83.597900	8.913346	0.110159	0.017277	0.993764	-0.228679	0.973466	0.008425	-0.967249	-0.228181	0.111187	0	0	0
57458	0	0	0	0	0	9.793423	0.126101	1.078132	-0.003337	0.010484	-0.002221	-0.727051	-0.158691	-0.512451	0.740776	0.079843	-0.661808	0.082983	4.344667	-83.592931	8.899023	0.110248	0.017262	0.993754	-0.228626	0.973478	0.008454	-0.967252	-0.228130	0.111271	0	0	0
57459	0	0	0	0	0	9.739559	0.134496	1.074397	-0.002473	0.009898	-0.000889	-0.734863	-0.167725	-0.522217	0.740804	0.079832	-0.661781	0.082963	4.351258	-83.588492	8.889889	0.110327	0.017257	0.993746	-0.228581	0.973488	0.008472	-0.967253	-0.228086	0.111347	0	0	0
57460	0	0	0	0	0	9.753368	0.161946	1.091115	-0.007043	0.009982	-0.001251	-0.739502	-0.166016	-0.515869	0.740835	0.079804	-0.661754	0.082928	4.355696	-83.583852	8.880363	0.110409	0.017251	0.993736	-0.228494	0.973508	0.008487	-0.967264	-0.227999	0.111426	0	0	0
57461	0	0	0	0	0	9.758952	0.121394	1.082198	-0.006805	0.010170	-0.003580	-0.736572	-0.163086	-0.518066	0.740867	0.079786	-0.661726	0.082884	4.373813	-83.579036	8.857219	0.110499	0.017219	0.993727	-0.228405	0.973529	0.008529	-0.967275	-0.227915	0.111507	0	0	0
57462	0	0	0	0	0	9.773385	0.139776	1.076117	-0.005956	0.006926	0.001717	-0.733643	-0.159668	-0.516846	0.740886	0.079754	-0.661711	0.082863	4.364970	-83.576272	8.861685	0.110545	0.017235	0.993722	-0.228332	0.973546	0.008515	-0.967287	-0.227839	0.111556	0	0	0
57463	0	0	0	0	0	9.778397	0.107866	1.089561	-0.005956	0.006926	0.001717	-0.730469	-0.163574	-0.521973	0.740905	0.079719	-0.661697	0.082837	4.356816	-83.573556	8.864912	0.110591	0.017249	0.993716	-0.228248	0.973566	0.008503	-0.967302	-0.227755	0.111604	0	0	0
57464	0	0	0	0	0	9.758706	0.120909	1.084469	-0.004453	0.008222	0.002745	-0.730957	-0.161133	-0.519531	0.740927	0.079689	-0.661677	0.082825	4.343137	-83.570096	8.875111	0.110647	0.017278	0.993710	-0.228190	0.973580	0.008481	-0.967309	-0.227693	0.111666	0	0	0
57465	0	0	0	0	0	9.763092	0.098042	1.120624	-0.004854	0.006528	0.000720	-0.733398	-0.167480	-0.513428	0.740946	0.079661	-0.661663	0.082798	4.341158	-83.567417	8.872734	0.110693	0.017280	0.993704	-0.228116	0.973597	0.008480	-0.967321	-0.227619	0.111713	0	0	0
57466	0	0	0	0	0	9.783877	0.066520	1.081665	-0.005494	0.004645	0.001024	-0.733154	-0.156738	-0.523682	0.740957	0.079634	-0.661656	0.082775	4.336989	-83.565925	8.872764	0.110719	0.017284	0.993701	-0.228046	0.973613	0.008474	-0.967335	-0.227548	0.111739	0	0	0
57467	0	0	0	0	0	9.763599	0.088716	1.098952	-0.000925	0.004560	0.001387	-0.733643	-0.164307	-0.522949	0.740967	0.079621	-0.661648	0.082764	4.334551	-83.564499	8.873199	0.110743	0.017289	0.993699	-0.228012	0.973621	0.008471	-0.967340	-0.227513	0.111764	0	0	0
57468	0	0	0	0	0	9.783788	0.066148	1.082492	-0.002666	0.003075	0.002690	-0.733643	-0.171143	-0.514893	0.740972	0.079599	-0.661647	0.082755	4.324172	-83.563976	8.881108	0.110750	0.017306	0.993698	-0.227971	0.973631	0.008452	-0.967349	-0.227470	0.111775	0	0	0
57469	0	0	0	0	0	9.759052	0.111118	1.064354	0.001056	0.006234	-0.002244	-0.735352	-0.159912	-0.523682	0.740987	0.079608	-0.661630	0.082741	4.341815	-83.561428	8.863094	0.110799	0.017278	0.993693	-0.227962	0.973633	0.008490	-0.967345	-0.227465	0.111816	0	0	0
57470	0	0	0	0	0	9.758384	0.120233	1.087437	0.004107	0.002195	0.001057	-0.740723	-0.164063	-0.522217	0.740987	0.079618	-0.661629	0.082748	4.343924	-83.561337	8.862340	0.110801	0.017276	0.993692	-0.227985	0.973628	0.008494	-0.967340	-0.227488	0.111817	0	0	0
57471	0	0	0	0	0	9.802044	0.070914	1.134656	0.000000	0.000000	-0.000000	-0.737061	-0.156982	-0.517822	0.740982	0.079613	-0.661637	0.082733	4.350560	-83.562435	8.854021	0.110784	0.017257	0.993695	-0.227956	0.973634	0.008505	-0.967348	-0.227461	0.111797	0	0	0
57472	0	0	0	0	0	9.777974	0.106842	1.093446	0.001502	0.001296	0.001027	-0.738281	-0.156250	-0.517090	0.740979	0.079613	-0.661640	0.082731	4.351672	-83.562856	8.852769	0.110778	0.017254	0.993695	-0.227954	0.973635	0.008507	-0.967350	-0.227459	0.111790	0	0	0
57473	0	0	0	0	0	9.764058	0.079362	1.077761	0.003467	0.000313	0.001361	-0.732422	-0.156982	-0.516113	0.740973	0.079613	-0.661647	0.082730	4.352215	-83.563964	8.852200	0.110759	0.017250	0.993698	-0.227953	0.973635	0.008507	-0.967352	-0.227459	0.111771	0	0	0
57474	0	0	0	0	0	9.782410	0.084129	1.129039	0.001741	0.001485	-0.001302	-0.729736	-0.160645	-0.518555	0.740972	0.079622	-0.661648	0.082721	4.365189	-83.564177	8.839148	0.110759	0.017224	0.993698	-0.227951	0.973635	0.008532	-0.967353	-0.227459	0.111765	0	0	0
57475	0	0	0	0	0	9.778569	0.097717	1.071039	0.002365	0.000710	0.002359	-0.735107	-0.167969	-0.515137	0.740968	0.079617	-0.661654	0.082721	4.360574	-83.564992	8.843354	0.110744	0.017230	0.993700	-0.227944	0.973637	0.008521	-0.967356	-0.227452	0.111752	0	0	0
57476	0	0	0	0	0	9.757730	0.128804	1.110445	-0.000016	-0.002657	0.003965	-0.735352	-0.169434	-0.520508	0.740952	0.079603	-0.661673	0.082723	4.347457	-83.567800	8.855546	0.110692	0.017246	0.993705	-0.227930	0.973640	0.008492	-0.967365	-0.227436	0.111705	0	0	0
57477	0	0	0	0	0	9.777346	0.115371	1.116225	0.006310	0.001400	-0.000939	-0.731689	-0.167725	-0.523438	0.740948	0.079631	-0.661672	0.082731	4.363563	-83.568120	8.842273	0.110691	0.017219	0.993706	-0.227977	0.973629	0.008523	-0.967354	-0.227485	0.111697	0	0	0
57478	0	0	0	0	0	9.777966	0.106244	1.093578	0.000624	-0.000775	0.003661	-0.733643	-0.158203	-0.517822	0.740938	0.079620	-0.661684	0.082735	4.351624	-83.569840	8.853648	0.110658	0.017237	0.993709	-0.227969	0.973631	0.008498	-0.967360	-0.227475	0.111669	0	0	0
57479	0	0	0	0	0	9.816541	0.088441	1.128108	0.000177	0.004162	0.000389	-0.734619	-0.171387	-0.525146	0.740947	0.079614	-0.661677	0.082724	4.355199	-83.568538	8.848683	0.110681	0.017231	0.993707	-0.227945	0.973637	0.008506	-0.967363	-0.227452	0.111691	0	0	0
57480	0	0	0	0	0	9.777914	0.105948	1.094072	0.003005	0.002592	0.002055	-0.728027	-0.172607	-0.510498	0.740948	0.079615	-0.661675	0.082731	4.351467	-83.568264	8.853172	0.110685	0.017240	0.993706	-0.227958	0.973634	0.008499	-0.967359	-0.227464	0.111696	0	0	0
57481	0	0	0	0	0	9.816458	0.088140	1.128851	0.000578	0.005856	0.002414	-0.730225	-0.163818	-0.524658	0.740960	0.079611	-0.661661	0.082735	4.346366	-83.566117	8.858269	0.110720	0.017256	0.993702	-0.227958	0.973634	0.008492	-0.967355	-0.227463	0.111734	0	0	0
57482	0	0	0	0	0	9.763285	0.087199	1.101857	0.001040	0.003576	0.001721	-0.734131	-0.162109	-0.511963	0.740965	0.079606	-0.661656	0.082735	4.342824	-83.565267	8.861434	0.110734	0.017264	0.993700	-0.227952	0.973635	0.008486	-0.967355	-0.227456	0.111750	0	0	0
57483	0	0	0	0	0	9.762631	0.096004	1.124806	-0.000701	0.002091	0.003023	-0.729004	-0.161133	-0.523193	0.740966	0.079590	-0.661657	0.082731	4.333346	-83.565314	8.869178	0.110730	0.017279	0.993700	-0.227923	0.973642	0.008468	-0.967362	-0.227425	0.111750	0	0	0
57484	0	0	0	0	0	9.763225	0.086685	1.102430	-0.000062	0.003973	0.002719	-0.734131	-0.161377	-0.521973	0.740973	0.079577	-0.661652	0.082731	4.323969	-83.564279	8.877580	0.110746	0.017298	0.993698	-0.227908	0.973646	0.008451	-0.967364	-0.227407	0.111769	0	0	0
57485	0	0	0	0	0	9.816901	0.078293	1.107843	0.004061	0.008824	-0.000189	-0.732910	-0.170166	-0.527832	0.740996	0.079584	-0.661625	0.082731	4.330511	-83.560234	8.871601	0.110817	0.017297	0.993690	-0.227916	0.973644	0.008469	-0.967354	-0.227416	0.111838	0	0	0
57486	0	0	0	0	0	9.797226	0.091630	1.102626	0.000178	0.004162	0.000389	-0.739014	-0.158447	-0.517578	0.741004	0.079580	-0.661617	0.082724	4.332995	-83.558991	8.868204	0.110839	0.017294	0.993688	-0.227900	0.973648	0.008476	-0.967355	-0.227401	0.111860	0	0	0
57487	0	0	0	0	0	9.778197	0.095729	1.074611	-0.000524	0.006252	0.003412	-0.731934	-0.162109	-0.519043	0.741018	0.079561	-0.661603	0.082723	4.320194	-83.556641	8.879405	0.110876	0.017322	0.993683	-0.227874	0.973654	0.008454	-0.967357	-0.227372	0.111902	0	0	0
57488	0	0	0	0	0	9.797114	0.091253	1.103647	0.000178	0.004161	0.000389	-0.732666	-0.172119	-0.514404	0.741026	0.079557	-0.661596	0.082715	4.322678	-83.555398	8.876009	0.110898	0.017319	0.993681	-0.227858	0.973658	0.008460	-0.967358	-0.227356	0.111923	0	0	0
57489	0	0	0	0	0	9.761653	0.104275	1.150544	0.000817	0.006043	0.000085	-0.734375	-0.165771	-0.516846	0.741040	0.079558	-0.661581	0.082709	4.328326	-83.553103	8.869939	0.110939	0.017313	0.993676	-0.227850	0.973659	0.008474	-0.967356	-0.227349	0.111962	0	0	0
57490	0	0	0	0	0	9.782465	0.072803	1.111526	0.001040	0.003575	0.001722	-0.735352	-0.160645	-0.520020	0.741045	0.079553	-0.661576	0.082709	4.324792	-83.552253	8.873096	0.110953	0.017321	0.993675	-0.227844	0.973661	0.008468	-0.967355	-0.227342	0.111977	0	0	0
57491	0	0	0	0	0	9.762178	0.095084	1.128809	0.000817	0.006043	0.000086	-0.724365	-0.161621	-0.520508	0.741059	0.079551	-0.661561	0.082701	4.329489	-83.549966	8.867498	0.110994	0.017317	0.993670	-0.227828	0.973665	0.008481	-0.967355	-0.227327	0.112016	0	0	0
57492	0	0	0	0	0	9.811428	0.109434	1.098770	0.000817	0.006043	0.000086	-0.734131	-0.172363	-0.519775	0.741073	0.079549	-0.661547	0.082695	4.333149	-83.547635	8.863286	0.111035	0.017315	0.993666	-0.227817	0.973667	0.008491	-0.967352	-0.227317	0.112056	0	0	0
57493	0	0	0	0	0	9.747527	0.076690	1.136663	0.001502	0.001295	0.001028	-0.732178	-0.165283	-0.524170	0.741071	0.079551	-0.661549	0.082692	4.336219	-83.547969	8.860043	0.111030	0.017308	0.993666	-0.227814	0.973668	0.008496	-0.967354	-0.227315	0.112050	0	0	0
57494	0	0	0	0	0	9.767100	0.063076	1.142771	-0.000302	0.003784	0.005049	-0.744141	-0.167236	-0.520996	0.741076	0.079530	-0.661545	0.082700	4.315031	-83.547143	8.880193	0.111039	0.017349	0.993665	-0.227799	0.973672	0.008456	-0.967356	-0.227295	0.112067	0	0	0
57495	0	0	0	0	0	9.762622	0.085483	1.107853	0.003422	0.006940	0.000117	-0.739502	-0.163086	-0.514404	0.741093	0.079538	-0.661526	0.082701	4.321192	-83.544301	8.874816	0.111089	0.017346	0.993659	-0.227811	0.973669	0.008472	-0.967348	-0.227308	0.112115	0	0	0
57496	0	0	0	0	0	9.782171	0.071972	1.114170	0.002764	0.002402	0.004386	-0.739502	-0.160645	-0.517334	0.741092	0.079531	-0.661525	0.082717	4.305646	-83.544236	8.891056	0.111085	0.017378	0.993659	-0.227824	0.973666	0.008441	-0.967345	-0.227318	0.112119	0	0	0
57497	0	0	0	0	0	9.796679	0.090060	1.107597	0.003644	0.004472	0.001753	-0.734131	-0.161377	-0.516602	0.741098	0.079534	-0.661517	0.082723	4.303723	-83.543058	8.893720	0.111104	0.017386	0.993657	-0.227837	0.973663	0.008439	-0.967340	-0.227329	0.112139	0	0	0
57498	0	0	0	0	0	9.776409	0.112214	1.124716	0.003867	0.002004	0.003389	-0.733154	-0.161377	-0.521240	0.741096	0.079534	-0.661517	0.082738	4.293997	-83.543177	8.904738	0.111099	0.017407	0.993657	-0.227860	0.973657	0.008420	-0.967335	-0.227350	0.112139	0	0	0
57499	0	0	0	0	0	9.777014	0.102910	1.102378	0.002542	0.004869	0.002750	-0.733398	-0.165283	-0.524658	0.741105	0.079528	-0.661507	0.082743	4.286292	-83.541649	8.912391	0.111123	0.017426	0.993654	-0.227860	0.973658	0.008407	-0.967332	-0.227348	0.112166	0	0	0
57500	0	0	0	0	0	9.776342	0.111796	1.125340	0.006071	0.001208	0.001394	-0.733643	-0.168701	-0.518799	0.741100	0.079544	-0.661509	0.082758	4.288199	-83.542136	8.912973	0.111114	0.017426	0.993655	-0.227902	0.973648	0.008410	-0.967323	-0.227390	0.112158	0	0	0
57501	0	0	0	0	0	9.776325	0.111733	1.125501	0.004107	0.002192	0.001059	-0.738525	-0.173828	-0.522705	0.741101	0.079554	-0.661507	0.082764	4.292088	-83.541993	8.910369	0.111118	0.017421	0.993655	-0.227923	0.973643	0.008418	-0.967318	-0.227413	0.112160	0	0	0
57502	0	0	0	0	0	9.776306	0.111445	1.125692	0.003626	0.001815	0.005719	-0.731445	-0.159424	-0.511719	0.741097	0.079546	-0.661509	0.082786	4.270537	-83.542319	8.933149	0.111105	0.017464	0.993655	-0.227947	0.973638	0.008375	-0.967314	-0.227431	0.112157	0	0	0
57503	0	0	0	0	0	9.776266	0.111195	1.126067	0.005387	0.005955	0.000452	-0.729492	-0.155762	-0.516357	0.741108	0.079562	-0.661493	0.082796	4.276724	-83.540128	8.929099	0.111144	0.017463	0.993651	-0.227982	0.973629	0.008390	-0.967301	-0.227467	0.112194	0	0	0
57504	0	0	0	0	0	9.776856	0.102087	1.103855	0.005609	0.003487	0.002088	-0.734619	-0.168457	-0.520264	0.741111	0.079573	-0.661486	0.082813	4.274006	-83.539343	8.934069	0.111156	0.017474	0.993649	-0.228021	0.973620	0.008386	-0.967291	-0.227505	0.112208	0	0	0
57505	0	0	0	0	0	9.776180	0.110923	1.126835	0.001902	0.002988	0.003054	-0.734375	-0.158447	-0.522461	0.741114	0.079565	-0.661484	0.082817	4.265290	-83.538892	8.942455	0.111161	0.017492	0.993648	-0.228016	0.973621	0.008369	-0.967291	-0.227498	0.112217	0	0	0
57506	0	0	0	0	0	9.796377	0.088345	1.110404	0.003644	0.004471	0.001753	-0.740479	-0.162109	-0.515137	0.741121	0.079569	-0.661474	0.082826	4.262770	-83.537531	8.946094	0.111183	0.017502	0.993646	-0.228035	0.973617	0.008366	-0.967284	-0.227516	0.112241	0	0	0
57507	0	0	0	0	0	9.777384	0.092434	1.082267	0.004506	0.003884	0.003086	-0.726807	-0.159912	-0.521484	0.741125	0.079569	-0.661468	0.082839	4.254526	-83.536646	8.955318	0.111196	0.017523	0.993644	-0.228052	0.973613	0.008351	-0.967278	-0.227531	0.112258	0	0	0
57508	0	0	0	0	0	9.776047	0.110174	1.128064	0.000337	0.005664	0.004745	-0.732422	-0.162109	-0.520508	0.741136	0.079551	-0.661457	0.082849	4.234584	-83.534729	8.974583	0.111222	0.017565	0.993640	-0.228043	0.973616	0.008314	-0.967278	-0.227517	0.112294	0	0	0
57509	0	0	0	0	0	9.791846	0.110052	1.076245	0.001902	0.002987	0.003054	-0.736572	-0.161377	-0.515137	0.741140	0.079541	-0.661454	0.082851	4.225706	-83.534181	8.982912	0.111229	0.017583	0.993639	-0.228034	0.973618	0.008298	-0.967279	-0.227507	0.112304	0	0	0
57510	0	0	0	0	0	9.777242	0.091467	1.083627	0.003182	0.006749	0.002447	-0.737549	-0.161865	-0.518311	0.741154	0.079541	-0.661436	0.082862	4.218589	-83.531547	8.990911	0.111272	0.017606	0.993634	-0.228050	0.973614	0.008287	-0.967270	-0.227520	0.112351	0	0	0
57511	0	0	0	0	0	9.776529	0.100469	1.106896	0.001921	0.005642	-0.000912	-0.734131	-0.161865	-0.517090	0.741166	0.079545	-0.661423	0.082853	4.228712	-83.529531	8.980397	0.111310	0.017591	0.993630	-0.228042	0.973616	0.008310	-0.967268	-0.227514	0.112384	0	0	0
57512	0	0	0	0	0	9.771423	0.132203	1.094725	-0.001146	0.007025	-0.000250	-0.734863	-0.165771	-0.515381	0.741185	0.079537	-0.661405	0.082840	4.232599	-83.526625	8.974825	0.111361	0.017588	0.993624	-0.228012	0.973623	0.008321	-0.967269	-0.227485	0.112434	0	0	0
57513	0	0	0	0	0	9.791602	0.109812	1.078490	0.000178	0.004160	0.000389	-0.734131	-0.169922	-0.513916	0.741192	0.079533	-0.661398	0.082831	4.236251	-83.525479	8.970064	0.111382	0.017582	0.993622	-0.227993	0.973627	0.008330	-0.967271	-0.227466	0.112453	0	0	0
57514	0	0	0	0	0	9.777013	0.091469	1.085692	0.000640	0.001881	-0.000304	-0.731201	-0.165527	-0.522949	0.741193	0.079534	-0.661399	0.082822	4.243345	-83.525511	8.962295	0.111384	0.017566	0.993622	-0.227981	0.973630	0.008343	-0.967274	-0.227456	0.112452	0	0	0
57515	0	0	0	0	0	9.771945	0.123257	1.073205	0.000419	0.004348	-0.001940	-0.731689	-0.158447	-0.512451	0.741202	0.079541	-0.661390	0.082806	4.259613	-83.524075	8.945306	0.111414	0.017537	0.993619	-0.227966	0.973633	0.008377	-0.967274	-0.227445	0.112474	0	0	0
57516	0	0	0	0	0	9.775634	0.109634	1.131691	-0.002667	0.003075	0.002687	-0.732910	-0.163818	-0.522705	0.741206	0.079519	-0.661388	0.082797	4.249309	-83.523552	8.953139	0.111420	0.017554	0.993618	-0.227925	0.973643	0.008358	-0.967283	-0.227402	0.112485	0	0	0
57517	0	0	0	0	0	9.761694	0.082187	1.116244	0.002383	0.003363	-0.001604	-0.734375	-0.166504	-0.522217	0.741212	0.079527	-0.661383	0.082785	4.264018	-83.522716	8.938164	0.111439	0.017527	0.993617	-0.227919	0.973644	0.008388	-0.967282	-0.227399	0.112497	0	0	0
57518	0	0	0	0	0	9.790753	0.119081	1.102903	0.001059	0.006228	-0.002244	-0.729492	-0.159180	-0.516357	0.741227	0.079535	-0.661366	0.082772	4.279475	-83.520180	8.922219	0.111488	0.017503	0.993612	-0.227909	0.973646	0.008421	-0.967279	-0.227392	0.112539	0	0	0
57519	0	0	0	0	0	9.776149	0.100824	1.110216	0.004106	0.002191	0.001061	-0.730957	-0.167480	-0.520752	0.741227	0.079542	-0.661365	0.082776	4.282538	-83.520082	8.920080	0.111490	0.017499	0.993611	-0.227924	0.973642	0.008427	-0.967275	-0.227408	0.112540	0	0	0
57520	0	0	0	0	0	9.791995	0.101061	1.058172	0.005209	0.001792	0.000065	-0.737793	-0.163330	-0.520264	0.741226	0.079559	-0.661364	0.082783	4.290425	-83.520179	8.914147	0.111490	0.017487	0.993612	-0.227956	0.973635	0.008443	-0.967267	-0.227441	0.112537	0	0	0
57521	0	0	0	0	0	9.796346	0.078497	1.093851	0.003245	0.002777	-0.000271	-0.738281	-0.173828	-0.523193	0.741228	0.079569	-0.661360	0.082781	4.299916	-83.519698	8.905282	0.111501	0.017471	0.993611	-0.227966	0.973632	0.008462	-0.967264	-0.227453	0.112544	0	0	0
57522	0	0	0	0	0	9.771056	0.132587	1.097955	0.004568	-0.000088	0.000368	-0.736816	-0.169922	-0.508301	0.741220	0.079583	-0.661366	0.082786	4.306620	-83.520882	8.900170	0.111482	0.017458	0.993613	-0.227992	0.973626	0.008474	-0.967260	-0.227481	0.112522	0	0	0
57523	0	0	0	0	0	9.776729	0.091901	1.088216	0.003245	0.002776	-0.000271	-0.735352	-0.158203	-0.523926	0.741222	0.079599	-0.661363	0.082788	4.317400	-83.520550	8.890892	0.111491	0.017441	0.993612	-0.228017	0.973620	0.008495	-0.967253	-0.227507	0.112527	0	0	0
57524	0	0	0	0	0	9.771666	0.123578	1.075706	0.002142	0.003175	0.000725	-0.739258	-0.165771	-0.512695	0.741225	0.079602	-0.661358	0.082788	4.319682	-83.519886	8.888831	0.111503	0.017439	0.993611	-0.228020	0.973619	0.008501	-0.967251	-0.227511	0.112538	0	0	0
57525	0	0	0	0	0	9.791229	0.110306	1.081818	0.006311	0.001394	-0.000932	-0.733887	-0.158447	-0.521729	0.741222	0.079624	-0.661359	0.082791	4.333961	-83.520264	8.876616	0.111500	0.017414	0.993612	-0.228054	0.973611	0.008528	-0.967243	-0.227548	0.112529	0	0	0
57526	0	0	0	0	0	9.757069	0.105329	1.082957	0.001502	0.001294	0.001029	-0.737061	-0.157471	-0.526123	0.741220	0.079624	-0.661362	0.082790	4.335064	-83.520687	8.875373	0.111493	0.017410	0.993613	-0.228051	0.973612	0.008530	-0.967244	-0.227546	0.112522	0	0	0
57527	0	0	0	0	0	9.770954	0.132541	1.098870	0.003865	0.002002	0.003391	-0.733887	-0.169678	-0.518066	0.741219	0.079618	-0.661362	0.082798	4.325115	-83.520753	8.885478	0.111489	0.017430	0.993613	-0.228055	0.973611	0.008510	-0.967244	-0.227547	0.112522	0	0	0
57528	0	0	0	0	0	9.810771	0.096641	1.088158	0.001502	0.001294	0.001029	-0.729736	-0.162109	-0.518555	0.741217	0.079618	-0.661365	0.082796	4.326217	-83.521176	8.884236	0.111482	0.017426	0.993614	-0.228053	0.973612	0.008512	-0.967245	-0.227545	0.112514	0	0	0
57529	0	0	0	0	0	9.775946	0.100560	1.112019	0.003003	0.002588	0.002058	-0.734619	-0.166016	-0.520508	0.741218	0.079620	-0.661363	0.082802	4.324089	-83.520911	8.887030	0.111486	0.017432	0.993613	-0.228064	0.973609	0.008508	-0.967242	-0.227556	0.112519	0	0	0
57530	0	0	0	0	0	9.790478	0.118677	1.105381	0.001901	0.002986	0.003055	-0.736816	-0.162842	-0.525146	0.741220	0.079614	-0.661360	0.082809	4.314585	-83.520455	8.896692	0.111491	0.017452	0.993612	-0.228068	0.973608	0.008490	-0.967241	-0.227557	0.112529	0	0	0
57531	0	0	0	0	0	9.790463	0.118538	1.105526	0.000000	0.000000	0.000000	-0.743164	-0.159180	-0.520996	0.741215	0.079611	-0.661368	0.082795	4.321603	-83.521540	8.888241	0.111475	0.017433	0.993614	-0.228043	0.973614	0.008502	-0.967249	-0.227534	0.112509	0	0	0
57532	0	0	0	0	0	9.775886	0.100175	1.112588	0.002142	0.003174	0.000726	-0.728271	-0.155762	-0.520996	0.741219	0.079614	-0.661363	0.082795	4.323885	-83.520876	8.886181	0.111487	0.017431	0.993613	-0.228046	0.973613	0.008508	-0.967246	-0.227538	0.112520	0	0	0
57533	0	0	0	0	0	9.775849	0.100243	1.112905	0.002383	0.003362	-0.001604	-0.736084	-0.164063	-0.521973	0.741224	0.079619	-0.661358	0.082781	4.337645	-83.520023	8.871633	0.111506	0.017405	0.993611	-0.228031	0.973616	0.008536	-0.967248	-0.227526	0.112533	0	0	0
57534	0	0	0	0	0	9.791037	0.109474	1.083645	0.001901	0.002986	0.003055	-0.731201	-0.166992	-0.516357	0.741227	0.079613	-0.661355	0.082788	4.328141	-83.519567	8.881295	0.111511	0.017425	0.993610	-0.228035	0.973616	0.008518	-0.967246	-0.227528	0.112542	0	0	0
57535	0	0	0	0	0	9.775115	0.109325	1.136191	0.002625	0.003549	-0.003934	-0.733643	-0.162842	-0.515625	0.741234	0.079633	-0.661347	0.082771	4.355442	-83.518505	8.854196	0.111537	0.017375	0.993608	-0.228035	0.973615	0.008573	-0.967243	-0.227534	0.112556	0	0	0
57536	0	0	0	0	0	9.775743	0.100435	1.113814	-0.000462	0.002278	0.000693	-0.739990	-0.166992	-0.517090	0.741235	0.079626	-0.661347	0.082762	4.356736	-83.518351	8.851628	0.111541	0.017370	0.993608	-0.228013	0.973620	0.008575	-0.967248	-0.227512	0.112559	0	0	0
57537	0	0	0	0	0	9.756129	0.113703	1.108177	0.002142	0.003174	0.000726	-0.735840	-0.162109	-0.518066	0.741238	0.079629	-0.661344	0.082760	4.360275	-83.517821	8.848212	0.111551	0.017365	0.993607	-0.228015	0.973620	0.008583	-0.967246	-0.227515	0.112567	0	0	0
57538	0	0	0	0	0	9.755423	0.122676	1.131207	0.003643	0.004468	0.001755	-0.732422	-0.163574	-0.523926	0.741245	0.079634	-0.661334	0.082769	4.357740	-83.516462	8.851865	0.111573	0.017376	0.993604	-0.228034	0.973615	0.008580	-0.967239	-0.227533	0.112591	0	0	0
57539	0	0	0	0	0	9.790852	0.109429	1.085317	0.003643	0.004468	0.001755	-0.733643	-0.160400	-0.522949	0.741253	0.079636	-0.661325	0.082775	4.356051	-83.515090	8.854164	0.111596	0.017384	0.993602	-0.228044	0.973613	0.008578	-0.967234	-0.227542	0.112615	0	0	0
57540	0	0	0	0	0	9.775596	0.099932	1.115154	0.001260	0.001106	0.003359	-0.731201	-0.159912	-0.518555	0.741249	0.079627	-0.661329	0.082781	4.345377	-83.515722	8.864634	0.111582	0.017403	0.993603	-0.228042	0.973614	0.008557	-0.967236	-0.227538	0.112606	0	0	0
57541	0	0	0	0	0	9.775562	0.099892	1.115455	0.007592	0.005151	-0.001537	-0.730225	-0.169922	-0.523682	0.741259	0.079652	-0.661315	0.082786	4.361735	-83.513800	8.850759	0.111619	0.017381	0.993599	-0.228082	0.973604	0.008591	-0.967223	-0.227581	0.112637	0	0	0
57542	0	0	0	0	0	9.769821	0.140845	1.125750	0.004988	0.004256	-0.001570	-0.727295	-0.170654	-0.521729	0.741266	0.079673	-0.661304	0.082787	4.376762	-83.512418	8.837513	0.111646	0.017359	0.993596	-0.228111	0.973597	0.008623	-0.967213	-0.227612	0.112658	0	0	0
57543	0	0	0	0	0	9.789398	0.127483	1.131714	0.001082	-0.003052	0.002970	-0.740723	-0.161865	-0.511719	0.741250	0.079670	-0.661323	0.082789	4.372058	-83.515265	8.842090	0.111596	0.017360	0.993602	-0.228109	0.973597	0.008610	-0.967219	-0.227611	0.112610	0	0	0
57544	0	0	0	0	0	9.755924	0.113185	1.110030	0.003003	0.002587	0.002059	-0.737549	-0.167969	-0.517090	0.741250	0.079671	-0.661321	0.082797	4.368350	-83.514994	8.846553	0.111600	0.017369	0.993601	-0.228123	0.973594	0.008603	-0.967215	-0.227623	0.112615	0	0	0
57545	0	0	0	0	0	9.808973	0.113848	1.137724	0.000000	0.000000	-0.000000	-0.733643	-0.157715	-0.517578	0.741244	0.079671	-0.661330	0.082784	4.375463	-83.516330	8.838379	0.111579	0.017350	0.993604	-0.228104	0.973599	0.008615	-0.967222	-0.227606	0.112591	0	0	0
57546	0	0	0	0	0	9.790719	0.108999	1.086560	0.001501	0.001294	0.001030	-0.731689	-0.158691	-0.513672	0.741241	0.079671	-0.661333	0.082783	4.376568	-83.516753	8.837134	0.111572	0.017346	0.993605	-0.228101	0.973599	0.008617	-0.967224	-0.227604	0.112583	0	0	0
57547	0	0	0	0	0	9.756557	0.103853	1.087703	0.000399	0.001692	0.002026	-0.736816	-0.160889	-0.512695	0.741240	0.079658	-0.661336	0.082776	4.371840	-83.517086	8.840295	0.111566	0.017352	0.993606	-0.228075	0.973605	0.008607	-0.967230	-0.227577	0.112578	0	0	0
57548	0	0	0	0	0	9.771089	0.122188	1.081089	0.000420	0.004345	-0.001941	-0.734619	-0.165283	-0.518555	0.741250	0.079663	-0.661327	0.082761	4.386082	-83.515636	8.825203	0.111595	0.017326	0.993603	-0.228059	0.973609	0.008637	-0.967231	-0.227564	0.112601	0	0	0
57549	0	0	0	0	0	9.790628	0.109049	1.087376	0.002384	0.003361	-0.001604	-0.732666	-0.162842	-0.523682	0.741255	0.079673	-0.661322	0.082750	4.401046	-83.514897	8.810244	0.111612	0.017299	0.993601	-0.228057	0.973609	0.008667	-0.967229	-0.227566	0.112612	0	0	0
57550	0	0	0	0	0	9.776025	0.090556	1.094633	-0.000306	0.003783	0.005048	-0.735107	-0.164063	-0.519775	0.741260	0.079652	-0.661318	0.082759	4.379961	-83.514074	8.830289	0.111620	0.017340	0.993600	-0.228042	0.973613	0.008627	-0.967232	-0.227545	0.112629	0	0	0
57551	0	0	0	0	0	9.770969	0.122123	1.082188	0.001523	0.003946	-0.002937	-0.737793	-0.163330	-0.524414	0.741268	0.079662	-0.661309	0.082739	4.400949	-83.512772	8.808573	0.111649	0.017301	0.993597	-0.228027	0.973616	0.008670	-0.967232	-0.227535	0.112649	0	0	0
57552	0	0	0	0	0	9.775960	0.090612	1.095202	-0.000000	0.000000	0.000000	-0.729736	-0.159180	-0.522705	0.741263	0.079661	-0.661317	0.082728	4.406869	-83.513889	8.801616	0.111632	0.017285	0.993599	-0.228009	0.973620	0.008680	-0.967238	-0.227519	0.112628	0	0	0
57553	0	0	0	0	0	9.773951	0.117758	1.163145	0.000861	-0.000586	0.001333	-0.735107	-0.167480	-0.517334	0.741255	0.079654	-0.661327	0.082719	4.407294	-83.515324	8.799906	0.111608	0.017278	0.993602	-0.227987	0.973625	0.008679	-0.967246	-0.227497	0.112604	0	0	0
57554	0	0	0	0	0	9.775976	0.090370	1.095086	0.001722	-0.001172	0.002667	-0.731201	-0.166260	-0.512695	0.741244	0.079651	-0.661340	0.082724	4.401251	-83.517228	8.805981	0.111574	0.017284	0.993606	-0.227989	0.973625	0.008664	-0.967250	-0.227498	0.112572	0	0	0
57555	0	0	0	0	0	9.789856	0.117587	1.110994	0.003643	0.004466	0.001756	-0.736572	-0.164551	-0.513184	0.741250	0.079657	-0.661331	0.082732	4.400501	-83.515975	8.807992	0.111594	0.017292	0.993603	-0.228010	0.973620	0.008665	-0.967242	-0.227519	0.112593	0	0	0
57556	0	0	0	0	0	9.741141	0.093869	1.118923	0.001700	-0.003825	0.006634	-0.732666	-0.161133	-0.516846	0.741229	0.079641	-0.661355	0.082750	4.375518	-83.519568	8.833117	0.111525	0.017331	0.993610	-0.228016	0.973619	0.008611	-0.967249	-0.227519	0.112535	0	0	0
57557	0	0	0	0	0	9.776618	0.080096	1.072782	0.005301	0.007264	0.007141	-0.731689	-0.163330	-0.524170	0.741241	0.079632	-0.661337	0.082783	4.346677	-83.516978	8.863917	0.111560	0.017398	0.993605	-0.228052	0.973611	0.008557	-0.967237	-0.227548	0.112584	0	0	0
57558	0	0	0	0	0	9.810079	0.093550	1.094648	0.008872	-0.003022	0.007039	-0.726807	-0.166748	-0.519531	0.741219	0.079641	-0.661355	0.082827	4.323425	-83.520127	8.891434	0.111498	0.017443	0.993612	-0.228128	0.973594	0.008508	-0.967226	-0.227619	0.112533	0	0	0
57559	0	0	0	0	0	9.775273	0.097248	1.118212	0.009535	0.001510	0.002769	-0.731689	-0.163086	-0.517334	0.741215	0.079664	-0.661354	0.082855	4.321736	-83.520384	8.897314	0.111492	0.017454	0.993612	-0.228199	0.973577	0.008504	-0.967210	-0.227689	0.112529	0	0	0
57560	0	0	0	0	0	9.810087	0.092936	1.094626	0.012359	-0.000062	0.004440	-0.728516	-0.171875	-0.520996	0.741202	0.079694	-0.661359	0.082901	4.312416	-83.521729	8.912821	0.111464	0.017480	0.993615	-0.228305	0.973553	0.008484	-0.967188	-0.227793	0.112507	0	0	0
57561	0	0	0	0	0	9.774626	0.105936	1.140713	0.012422	-0.004033	0.001723	-0.731445	-0.167969	-0.517090	0.741178	0.079736	-0.661377	0.082935	4.320253	-83.525182	8.911142	0.111405	0.017468	0.993622	-0.228410	0.973528	0.008495	-0.967170	-0.227899	0.112446	0	0	0
57562	0	0	0	0	0	9.805131	0.124369	1.081376	0.008033	0.000216	0.001739	-0.732422	-0.156006	-0.520020	0.741169	0.079758	-0.661381	0.082957	4.321938	-83.526252	8.913079	0.111386	0.017469	0.993624	-0.228471	0.973514	0.008497	-0.967158	-0.227961	0.112427	0	0	0
57563	0	0	0	0	0	9.791207	0.096791	1.065837	0.004504	0.003879	0.003089	-0.735352	-0.159912	-0.526367	0.741174	0.079759	-0.661374	0.082969	4.314117	-83.525293	8.922005	0.111400	0.017489	0.993622	-0.228491	0.973509	0.008483	-0.967152	-0.227978	0.112445	0	0	0
57564	0	0	0	0	0	9.765241	0.159604	1.092875	0.002940	0.006557	0.004777	-0.733398	-0.161865	-0.528320	0.741187	0.079750	-0.661359	0.082988	4.295189	-83.522871	8.941751	0.111436	0.017534	0.993617	-0.228506	0.973506	0.008449	-0.967144	-0.227989	0.112490	0	0	0
57565	0	0	0	0	0	9.791769	0.087188	1.044228	-0.034158	0.004094	-0.004579	-0.734619	-0.163330	-0.517090	0.741212	0.079630	-0.661363	0.082843	4.303324	-83.521295	8.911886	0.111472	0.017480	0.993614	-0.228136	0.973592	0.008467	-0.967227	-0.227623	0.112516	0	0	0
57566	0	0	0	0	0	9.764453	0.168546	1.116587	0.005387	0.005945	0.000456	-0.729736	-0.163330	-0.512939	0.741224	0.079644	-0.661347	0.082853	4.307777	-83.519037	8.909512	0.111511	0.017481	0.993609	-0.228170	0.973584	0.008478	-0.967214	-0.227658	0.112554	0	0	0
57567	0	0	0	0	0	9.737251	0.104720	1.063066	-0.004609	0.006714	-0.001621	-0.722900	-0.164551	-0.526367	0.741242	0.079627	-0.661332	0.082821	4.317736	-83.516347	8.895599	0.111562	0.017461	0.993604	-0.228102	0.973600	0.008501	-0.967225	-0.227591	0.112599	0	0	0
57568	0	0	0	0	0	9.769970	0.127880	1.108131	-0.004211	0.008406	0.000405	-0.731201	-0.166992	-0.525635	0.741266	0.079605	-0.661310	0.082801	4.316007	-83.512680	8.893911	0.111625	0.017468	0.993597	-0.228043	0.973614	0.008503	-0.967231	-0.227532	0.112663	0	0	0
57569	0	0	0	0	0	9.775565	0.086977	1.099017	-0.003991	0.005940	0.002043	-0.732666	-0.161865	-0.517090	0.741283	0.079579	-0.661297	0.082783	4.308726	-83.510248	8.897539	0.111665	0.017481	0.993592	-0.227982	0.973628	0.008492	-0.967241	-0.227469	0.112706	0	0	0
57570	0	0	0	0	0	9.789393	0.114039	1.115433	-0.003593	0.007632	0.004069	-0.736084	-0.160645	-0.517578	0.741302	0.079547	-0.661280	0.082778	4.289254	-83.507181	8.914065	0.111713	0.017522	0.993586	-0.227933	0.973640	0.008457	-0.967247	-0.227416	0.112762	0	0	0
57571	0	0	0	0	0	9.805252	0.113887	1.063930	-0.001387	0.006834	0.002077	-0.735840	-0.159424	-0.512207	0.741319	0.079528	-0.661265	0.082769	4.281909	-83.504576	8.919134	0.111756	0.017539	0.993581	-0.227895	0.973649	0.008446	-0.967251	-0.227376	0.112808	0	0	0
57572	0	0	0	0	0	9.770382	0.117692	1.087962	-0.007877	0.001288	0.002615	-0.738525	-0.155762	-0.524414	0.741319	0.079488	-0.661272	0.082742	4.269679	-83.505070	8.925902	0.111745	0.017551	0.993582	-0.227804	0.973671	0.008422	-0.967274	-0.227283	0.112801	0	0	0
57573	0	0	0	0	0	9.774683	0.094766	1.123576	-0.003309	0.001197	0.002988	-0.726074	-0.157715	-0.518066	0.741318	0.079458	-0.661280	0.082726	4.257933	-83.505754	8.933876	0.111731	0.017564	0.993583	-0.227741	0.973686	0.008398	-0.967290	-0.227218	0.112791	0	0	0
57574	0	0	0	0	0	9.756461	0.089631	1.072456	-0.003309	0.001196	0.002988	-0.732666	-0.157959	-0.521484	0.741316	0.079434	-0.661286	0.082716	4.246480	-83.506316	8.942495	0.111719	0.017580	0.993584	-0.227694	0.973697	0.008374	-0.967303	-0.227169	0.112783	0	0	0
57575	0	0	0	0	0	9.780351	0.053498	1.113799	-0.007813	-0.002681	-0.000104	-0.731689	-0.162354	-0.518066	0.741306	0.079399	-0.661307	0.082671	4.249412	-83.508920	8.933048	0.111677	0.017554	0.993589	-0.227584	0.973723	0.008377	-0.967333	-0.227060	0.112738	0	0	0
57576	0	0	0	0	0	9.755155	0.107369	1.117341	-0.004129	-0.004839	0.002902	-0.739746	-0.160889	-0.519043	0.741285	0.079375	-0.661336	0.082655	4.240164	-83.512927	8.938975	0.111607	0.017555	0.993597	-0.227529	0.973736	0.008353	-0.967354	-0.227004	0.112670	0	0	0
57577	0	0	0	0	0	9.740619	0.088847	1.123872	-0.003245	-0.002773	0.000269	-0.730469	-0.164551	-0.515869	0.741271	0.079359	-0.661356	0.082630	4.244562	-83.515726	8.931199	0.111561	0.017532	0.993603	-0.227471	0.973749	0.008358	-0.967373	-0.226949	0.112621	0	0	0
57578	0	0	0	0	0	9.775478	0.084703	1.099972	-0.003246	-0.002773	0.000269	-0.730469	-0.165039	-0.520264	0.741257	0.079346	-0.661376	0.082608	4.248284	-83.518441	8.924582	0.111517	0.017512	0.993608	-0.227422	0.973760	0.008362	-0.967390	-0.226901	0.112573	0	0	0
57579	0	0	0	0	0	9.769871	0.125387	1.109288	-0.001461	-0.007915	0.000217	-0.735107	-0.157715	-0.513428	0.741226	0.079342	-0.661413	0.082587	4.256755	-83.524094	8.914086	0.111423	0.017476	0.993619	-0.227387	0.973768	0.008372	-0.967409	-0.226869	0.112474	0	0	0
57580	0	0	0	0	0	9.776267	0.075604	1.076296	0.000462	-0.002278	-0.000693	-0.733643	-0.159424	-0.521729	0.741213	0.079345	-0.661429	0.082574	4.267272	-83.526484	8.902768	0.111386	0.017448	0.993624	-0.227373	0.973772	0.008389	-0.967417	-0.226858	0.112431	0	0	0
57581	0	0	0	0	0	9.790878	0.093876	1.069121	-0.002385	-0.003360	0.001603	-0.729492	-0.161865	-0.516113	0.741197	0.079326	-0.661452	0.082555	4.265090	-83.529674	8.901802	0.111331	0.017438	0.993630	-0.227320	0.973784	0.008381	-0.967435	-0.226805	0.112377	0	0	0
57582	0	0	0	0	0	9.790262	0.103063	1.091247	-0.000976	-0.007540	-0.004442	-0.738037	-0.167969	-0.512695	0.741169	0.079339	-0.661487	0.082521	4.295685	-83.534910	8.869448	0.111251	0.017361	0.993641	-0.227288	0.973791	0.008434	-0.967452	-0.226781	0.112281	0	0	0
57583	0	0	0	0	0	9.789664	0.112226	1.113233	-0.001062	-0.006224	0.002244	-0.730469	-0.156006	-0.514648	0.741141	0.079330	-0.661520	0.082512	4.293577	-83.539818	8.869997	0.111167	0.017349	0.993650	-0.227262	0.973797	0.008423	-0.967468	-0.226756	0.112197	0	0	0
57584	0	0	0	0	0	9.770834	0.116269	1.084050	-0.001062	-0.006225	0.002244	-0.736572	-0.166016	-0.522217	0.741115	0.079320	-0.661552	0.082503	4.289933	-83.544589	8.872052	0.111085	0.017340	0.993660	-0.227236	0.973803	0.008410	-0.967483	-0.226730	0.112115	0	0	0
57585	0	0	0	0	0	9.722175	0.092726	1.091334	-0.001062	-0.006225	0.002244	-0.735596	-0.167725	-0.515869	0.741088	0.079307	-0.661585	0.082490	4.286924	-83.549396	8.872909	0.111002	0.017329	0.993669	-0.227201	0.973812	0.008398	-0.967501	-0.226695	0.112032	0	0	0
57586	0	0	0	0	0	9.741142	0.088124	1.119384	-0.000664	-0.004534	0.004271	-0.733887	-0.170410	-0.521973	0.741066	0.079290	-0.661611	0.082491	4.272612	-83.553287	8.885930	0.110932	0.017344	0.993677	-0.227181	0.973817	0.008365	-0.967514	-0.226672	0.111967	0	0	0
57587	0	0	0	0	0	9.775974	0.083794	1.095626	-0.000462	0.002278	0.000693	-0.730469	-0.160889	-0.512695	0.741068	0.079287	-0.661611	0.082482	4.276299	-83.553163	8.881283	0.110935	0.017335	0.993676	-0.227164	0.973820	0.008372	-0.967517	-0.226656	0.111969	0	0	0
57588	0	0	0	0	0	9.829000	0.084440	1.123475	0.002143	0.003172	0.000727	-0.726074	-0.164063	-0.521484	0.741071	0.079290	-0.661607	0.082482	4.278598	-83.552500	8.879205	0.110947	0.017333	0.993675	-0.227168	0.973820	0.008378	-0.967515	-0.226660	0.111980	0	0	0
57589	0	0	0	0	0	9.868126	0.057568	1.135465	0.003223	0.000119	0.003697	-0.734863	-0.162842	-0.517822	0.741064	0.079287	-0.661614	0.082492	4.268767	-83.553682	8.889584	0.110924	0.017350	0.993677	-0.227178	0.973817	0.008357	-0.967515	-0.226669	0.111961	0	0	0
57590	0	0	0	0	0	9.843590	0.102105	1.116539	0.006266	-0.003919	0.007006	-0.734863	-0.160400	-0.510742	0.741040	0.079287	-0.661637	0.082526	4.244338	-83.557339	8.916782	0.110853	0.017392	0.993685	-0.227228	0.973806	0.008305	-0.967512	-0.226714	0.111901	0	0	0
57591	0	0	0	0	0	9.751437	0.127816	1.076763	0.006993	-0.003356	0.000016	-0.734619	-0.167969	-0.517334	0.741020	0.079311	-0.661655	0.082534	4.256248	-83.560527	8.907501	0.110801	0.017366	0.993691	-0.227272	0.973796	0.008324	-0.967507	-0.226761	0.111844	0	0	0
57592	0	0	0	0	0	9.687503	0.095208	1.113841	0.004146	-0.004437	0.002312	-0.734619	-0.166260	-0.513916	0.740997	0.079319	-0.661679	0.082544	4.254537	-83.564279	8.910614	0.110736	0.017362	0.993698	-0.227297	0.973790	0.008316	-0.967509	-0.226785	0.111780	0	0	0
57593	0	0	0	0	0	9.706470	0.090630	1.141928	0.001299	-0.005519	0.004609	-0.734863	-0.162598	-0.517578	0.740970	0.079312	-0.661709	0.082552	4.241935	-83.568849	8.923273	0.110654	0.017374	0.993707	-0.227300	0.973790	0.008285	-0.967518	-0.226786	0.111702	0	0	0
57594	0	0	0	0	0	9.775458	0.091145	1.117114	-0.000704	0.002090	0.003023	-0.726807	-0.164063	-0.518311	0.740970	0.079297	-0.661710	0.082550	4.231380	-83.568902	8.932490	0.110650	0.017392	0.993707	-0.227278	0.973795	0.008264	-0.967523	-0.226762	0.111703	0	0	0
57595	0	0	0	0	0	9.809578	0.095836	1.116416	-0.000062	0.003970	0.002719	-0.735352	-0.156982	-0.519775	0.740977	0.079284	-0.661705	0.082548	4.223240	-83.567851	8.939334	0.110666	0.017408	0.993705	-0.227257	0.973800	0.008250	-0.967526	-0.226739	0.111722	0	0	0
57596	0	0	0	0	0	9.863942	0.078102	1.098874	0.007791	0.000026	0.004069	-0.734131	-0.165039	-0.518799	0.740967	0.079297	-0.661711	0.082578	4.213023	-83.569127	8.953110	0.110640	0.017431	0.993708	-0.227319	0.973786	0.008228	-0.967515	-0.226799	0.111702	0	0	0
57597	0	0	0	0	0	9.804576	0.127015	1.103785	0.008033	0.000214	0.001739	-0.733154	-0.163574	-0.523438	0.740958	0.079317	-0.661716	0.082595	4.215251	-83.570218	8.953899	0.110621	0.017429	0.993710	-0.227370	0.973774	0.008231	-0.967505	-0.226850	0.111683	0	0	0
57598	0	0	0	0	0	9.771106	0.113066	1.081928	0.004630	-0.004063	-0.002347	-0.731689	-0.163574	-0.513916	0.740938	0.079342	-0.661736	0.082589	4.237288	-83.573559	8.933392	0.110570	0.017381	0.993716	-0.227394	0.973768	0.008270	-0.967505	-0.226880	0.111622	0	0	0
57599	0	0	0	0	0	9.701526	0.121313	1.128818	-0.000422	-0.004345	0.001942	-0.726074	-0.168457	-0.524414	0.740918	0.079333	-0.661761	0.082580	4.236000	-83.577234	8.933138	0.110507	0.017370	0.993724	-0.227368	0.973774	0.008263	-0.967518	-0.226854	0.111558	0	0	0
57600	0	0	0	0	0	9.716816	0.130423	1.098857	-0.001283	-0.003759	0.000608	-0.736084	-0.166016	-0.519287	0.740900	0.079326	-0.661783	0.082565	4.239559	-83.580527	8.927818	0.110452	0.017351	0.993730	-0.227339	0.973781	0.008266	-0.967532	-0.226826	0.111501	0	0	0
57601	0	0	0	0	0	9.775534	0.090197	1.116524	-0.000703	0.002091	0.003022	-0.736572	-0.163330	-0.511475	0.740902	0.079312	-0.661784	0.082562	4.231020	-83.580462	8.934980	0.110451	0.017365	0.993730	-0.227316	0.973786	0.008249	-0.967537	-0.226802	0.111503	0	0	0
57602	0	0	0	0	0	9.848787	0.068251	1.127685	-0.000923	0.004557	0.001385	-0.728516	-0.166504	-0.521484	0.740911	0.079301	-0.661776	0.082555	4.227717	-83.579036	8.936773	0.110475	0.017373	0.993727	-0.227291	0.973792	0.008244	-0.967540	-0.226776	0.111528	0	0	0
57603	0	0	0	0	0	9.877916	0.104674	1.114231	0.001901	0.002984	0.003056	-0.732666	-0.164063	-0.516357	0.740913	0.079296	-0.661773	0.082561	4.219663	-83.578623	8.944902	0.110480	0.017389	0.993726	-0.227293	0.973792	0.008229	-0.967539	-0.226776	0.111537	0	0	0
57604	0	0	0	0	0	9.829834	0.072110	1.099546	0.007392	-0.001666	0.002043	-0.741699	-0.154541	-0.513184	0.740898	0.079316	-0.661785	0.082581	4.220115	-83.580780	8.947709	0.110442	0.017389	0.993730	-0.227348	0.973779	0.008227	-0.967531	-0.226832	0.111499	0	0	0
57605	0	0	0	0	0	9.750949	0.134306	1.098166	0.005867	-0.005613	0.004981	-0.734863	-0.157959	-0.520264	0.740869	0.079318	-0.661815	0.082602	4.206379	-83.585487	8.963293	0.110356	0.017406	0.993740	-0.227382	0.973771	0.008195	-0.967532	-0.226863	0.111420	0	0	0
57606	0	0	0	0	0	9.702283	0.110806	1.105461	0.001141	-0.007023	0.000254	-0.735596	-0.159912	-0.512451	0.740840	0.079323	-0.661848	0.082593	4.214345	-83.590631	8.954936	0.110271	0.017376	0.993750	-0.227375	0.973773	0.008204	-0.967544	-0.226859	0.111330	0	0	0
57607	0	0	0	0	0	9.713245	0.142392	1.040043	-0.000484	-0.000376	0.004661	-0.729736	-0.166016	-0.512451	0.740831	0.079300	-0.661861	0.082592	4.196586	-83.592253	8.970789	0.110238	0.017402	0.993753	-0.227345	0.973780	0.008167	-0.967555	-0.226825	0.111304	0	0	0
57608	0	0	0	0	0	9.770632	0.120062	1.103155	0.000157	0.001504	0.004356	-0.733887	-0.168213	-0.524658	0.740829	0.079284	-0.661865	0.082598	4.179923	-83.592697	8.986648	0.110226	0.017432	0.993754	-0.227333	0.973783	0.008134	-0.967559	-0.226810	0.111299	0	0	0
57609	0	0	0	0	0	9.859136	0.107272	1.084666	0.001041	0.003571	0.001722	-0.734619	-0.164795	-0.517090	0.740834	0.079281	-0.661859	0.082598	4.178472	-83.591815	8.987807	0.110241	0.017436	0.993752	-0.227328	0.973784	0.008132	-0.967558	-0.226804	0.111314	0	0	0
57610	0	0	0	0	0	9.859762	0.098028	1.062314	0.003004	0.002584	0.002060	-0.731445	-0.151367	-0.519043	0.740835	0.079283	-0.661857	0.082605	4.174727	-83.591544	8.992309	0.110244	0.017446	0.993751	-0.227341	0.973781	0.008125	-0.967555	-0.226817	0.111319	0	0	0
57611	0	0	0	0	0	9.804721	0.124210	1.102821	0.002981	-0.000070	0.006028	-0.734619	-0.171143	-0.521240	0.740826	0.079267	-0.661867	0.082620	4.151735	-83.592968	9.015256	0.110212	0.017486	0.993754	-0.227343	0.973781	0.008079	-0.967558	-0.226814	0.111298	0	0	0
57612	0	0	0	0	0	9.733451	0.118310	1.023666	0.000899	-0.007211	0.002585	-0.734131	-0.160889	-0.528809	0.740795	0.079263	-0.661902	0.082619	4.147726	-83.598317	9.018808	0.110120	0.017478	0.993765	-0.227337	0.973783	0.008064	-0.967570	-0.226807	0.111206	0	0	0
57613	0	0	0	0	0	9.702376	0.108704	1.104852	0.001540	-0.005332	0.002280	-0.732422	-0.166504	-0.526611	0.740771	0.079262	-0.661929	0.082617	4.146621	-83.602432	9.019548	0.110049	0.017469	0.993773	-0.227331	0.973784	0.008057	-0.967579	-0.226802	0.111135	0	0	0
57614	0	0	0	0	0	9.756782	0.091062	1.086831	-0.003707	-0.000493	0.000963	-0.739258	-0.167969	-0.528076	0.740765	0.079244	-0.661941	0.082597	4.145750	-83.603874	9.017288	0.110025	0.017460	0.993775	-0.227278	0.973797	0.008054	-0.967594	-0.226750	0.111110	0	0	0
57615	0	0	0	0	0	9.756136	0.099837	1.109450	-0.005052	-0.000282	0.004290	-0.732666	-0.163086	-0.513916	0.740760	0.079209	-0.661952	0.082582	4.128952	-83.605150	9.030072	0.109999	0.017481	0.993778	-0.227212	0.973812	0.008019	-0.967613	-0.226681	0.111091	0	0	0
57616	0	0	0	0	0	9.771359	0.108760	1.080090	-0.000922	0.004557	0.001384	-0.729004	-0.163086	-0.517334	0.740769	0.079198	-0.661944	0.082575	4.125668	-83.603724	9.031846	0.110023	0.017489	0.993775	-0.227187	0.973818	0.008015	-0.967616	-0.226654	0.111116	0	0	0
57617	0	0	0	0	0	9.825046	0.100248	1.085291	0.001502	0.001292	0.001030	-0.732422	-0.161621	-0.515381	0.740767	0.079197	-0.661947	0.082570	4.128023	-83.604180	9.029102	0.110016	0.017482	0.993776	-0.227180	0.973820	0.008019	-0.967619	-0.226648	0.111107	0	0	0
57618	0	0	0	0	0	9.785907	0.126871	1.073583	0.001502	0.001292	0.001030	-0.725830	-0.164795	-0.512207	0.740765	0.079197	-0.661950	0.082569	4.129137	-83.604605	9.027848	0.110009	0.017479	0.993777	-0.227177	0.973820	0.008021	-0.967620	-0.226646	0.111100	0	0	0
57619	0	0	0	0	0	9.771323	0.108439	1.080442	0.000219	-0.002467	0.001638	-0.731689	-0.157715	-0.514893	0.740750	0.079192	-0.661968	0.082561	4.129140	-83.607251	9.026806	0.109964	0.017469	0.993782	-0.227160	0.973824	0.008017	-0.967629	-0.226629	0.111054	0	0	0
57620	0	0	0	0	0	9.732873	0.126135	1.045740	-0.003865	-0.001996	-0.003394	-0.729248	-0.165283	-0.513428	0.740741	0.079188	-0.661983	0.082524	4.150961	-83.609372	9.001621	0.109936	0.017415	0.993786	-0.227101	0.973838	0.008057	-0.967646	-0.226575	0.111014	0	0	0
57621	0	0	0	0	0	9.736564	0.112571	1.103664	-0.004591	-0.002561	0.003598	-0.734375	-0.164795	-0.519287	0.740727	0.079157	-0.662005	0.082507	4.137815	-83.612167	9.010831	0.109885	0.017425	0.993792	-0.227036	0.973853	0.008028	-0.967667	-0.226508	0.110968	0	0	0
57622	0	0	0	0	0	9.751843	0.121513	1.073808	-0.002386	-0.003359	0.001605	-0.730225	-0.168457	-0.521240	0.740711	0.079143	-0.662027	0.082493	4.135485	-83.615273	9.010801	0.109832	0.017417	0.993798	-0.226996	0.973863	0.008019	-0.967683	-0.226469	0.110914	0	0	0
57623	0	0	0	0	0	9.806238	0.103817	1.055850	-0.002847	-0.001081	0.002297	-0.728271	-0.158691	-0.513672	0.740702	0.079125	-0.662040	0.082479	4.130475	-83.617040	9.013190	0.109801	0.017417	0.993801	-0.226953	0.973873	0.008008	-0.967696	-0.226425	0.110885	0	0	0
57624	0	0	0	0	0	9.791653	0.085379	1.062715	-0.000000	-0.000000	-0.000000	-0.737061	-0.160889	-0.513184	0.740696	0.079124	-0.662048	0.082468	4.136471	-83.618160	9.006158	0.109784	0.017400	0.993803	-0.226934	0.973877	0.008018	-0.967703	-0.226408	0.110864	0	0	0
57625	0	0	0	0	0	9.770811	0.116906	1.101909	-0.000181	-0.004158	-0.000388	-0.732666	-0.165527	-0.518311	0.740677	0.079122	-0.662072	0.082449	4.146364	-83.621759	8.994574	0.109725	0.017368	0.993810	-0.226905	0.973884	0.008032	-0.967716	-0.226382	0.110801	0	0	0
57626	0	0	0	0	0	9.776488	0.076180	1.091586	-0.000823	-0.006037	-0.000084	-0.734375	-0.159424	-0.520752	0.740652	0.079120	-0.662103	0.082433	4.154567	-83.626326	8.984847	0.109650	0.017337	0.993819	-0.226879	0.973890	0.008043	-0.967731	-0.226358	0.110721	0	0	0
57627	0	0	0	0	0	9.752661	0.112138	1.049644	0.001782	-0.005145	-0.000050	-0.735352	-0.166016	-0.522705	0.740629	0.079125	-0.662129	0.082422	4.164769	-83.630357	8.974158	0.109584	0.017306	0.993827	-0.226870	0.973892	0.008057	-0.967740	-0.226353	0.110649	0	0	0
57628	0	0	0	0	0	9.772280	0.098685	1.055048	-0.003028	-0.005239	0.001910	-0.732422	-0.166260	-0.520264	0.740606	0.079108	-0.662158	0.082406	4.161225	-83.634551	8.974980	0.109512	0.017296	0.993835	-0.226825	0.973902	0.008045	-0.967759	-0.226307	0.110577	0	0	0
57629	0	0	0	0	0	9.821029	0.121933	1.047084	-0.004145	0.004441	-0.002313	-0.739746	-0.163086	-0.510986	0.740619	0.079098	-0.662150	0.082372	4.176857	-83.632962	8.955751	0.109545	0.017264	0.993832	-0.226762	0.973917	0.008077	-0.967770	-0.226248	0.110603	0	0	0
57630	0	0	0	0	0	9.810749	0.081054	1.089627	0.002824	-0.001574	0.001671	-0.733643	-0.161133	-0.514404	0.740606	0.079102	-0.662163	0.082376	4.176526	-83.635051	8.956713	0.109509	0.017260	0.993836	-0.226773	0.973914	0.008074	-0.967772	-0.226259	0.110567	0	0	0
57631	0	0	0	0	0	9.805804	0.112563	1.076557	-0.002386	-0.003360	0.001605	-0.737061	-0.161377	-0.510498	0.740589	0.079087	-0.662186	0.082360	4.175116	-83.638354	8.955539	0.109453	0.017249	0.993842	-0.226730	0.973924	0.008067	-0.967788	-0.226216	0.110510	0	0	0
57632	0	0	0	0	0	9.772327	0.098309	1.054648	-0.000884	-0.002068	0.002635	-0.733643	-0.159912	-0.517334	0.740576	0.079074	-0.662203	0.082354	4.167902	-83.640766	8.961289	0.109410	0.017253	0.993847	-0.226706	0.973930	0.008050	-0.967799	-0.226192	0.110469	0	0	0
57633	0	0	0	0	0	9.776056	0.084712	1.112371	0.000279	-0.006437	-0.001080	-0.732178	-0.167969	-0.517578	0.740549	0.079078	-0.662235	0.082334	4.182651	-83.645660	8.945172	0.109331	0.017209	0.993856	-0.226682	0.973935	0.008072	-0.967813	-0.226172	0.110382	0	0	0
57634	0	0	0	0	0	9.772420	0.098205	1.053798	0.000219	-0.002467	0.001638	-0.733643	-0.156982	-0.517578	0.740534	0.079073	-0.662253	0.082329	4.181331	-83.648258	8.945627	0.109286	0.017203	0.993861	-0.226667	0.973939	0.008067	-0.967821	-0.226158	0.110337	0	0	0
57635	0	0	0	0	0	9.805967	0.112172	1.075114	-0.000181	-0.004159	-0.000388	-0.730713	-0.164795	-0.508789	0.740515	0.079072	-0.662276	0.082311	4.191883	-83.651738	8.933521	0.109230	0.017170	0.993868	-0.226640	0.973945	0.008082	-0.967834	-0.226133	0.110276	0	0	0
57636	0	0	0	0	0	9.801030	0.143785	1.061956	0.004787	-0.002562	0.002008	-0.739746	-0.155762	-0.516602	0.740498	0.079083	-0.662292	0.082322	4.191320	-83.654406	8.935848	0.109184	0.017168	0.993873	-0.226671	0.973938	0.008078	-0.967832	-0.226164	0.110230	0	0	0
57637	0	0	0	0	0	9.791451	0.093753	1.081373	-0.000182	-0.004159	-0.000388	-0.734131	-0.158691	-0.520508	0.740479	0.079081	-0.662317	0.082304	4.201385	-83.658047	8.924179	0.109125	0.017136	0.993880	-0.226643	0.973944	0.008093	-0.967845	-0.226139	0.110165	0	0	0
57638	0	0	0	0	0	9.757320	0.088873	1.082168	0.001102	-0.000399	-0.000997	-0.738037	-0.160889	-0.519531	0.740472	0.079087	-0.662325	0.082293	4.213348	-83.659353	8.911778	0.109106	0.017109	0.993883	-0.226634	0.973946	0.008114	-0.967850	-0.226133	0.110141	0	0	0
57639	0	0	0	0	0	9.771928	0.107213	1.075084	0.001321	-0.002867	0.000642	-0.724854	-0.157227	-0.513672	0.740456	0.079085	-0.662344	0.082282	4.218280	-83.662128	8.905803	0.109060	0.017090	0.993888	-0.226617	0.973950	0.008120	-0.967859	-0.226117	0.110092	0	0	0
57640	0	0	0	0	0	9.758006	0.079670	1.059111	-0.000883	-0.002068	0.002635	-0.735840	-0.160889	-0.518555	0.740443	0.079073	-0.662361	0.082277	4.211060	-83.664540	8.911559	0.109017	0.017094	0.993893	-0.226593	0.973956	0.008103	-0.967869	-0.226092	0.110052	0	0	0
57641	0	0	0	0	0	9.791533	0.093564	1.080645	-0.000000	0.000000	-0.000000	-0.729248	-0.163818	-0.522705	0.740438	0.079067	-0.662369	0.082261	4.217523	-83.665649	8.903323	0.109001	0.017076	0.993895	-0.226562	0.973963	0.008114	-0.967878	-0.226063	0.110031	0	0	0
57642	0	0	0	0	0	9.791514	0.093486	1.080820	0.001042	0.003571	0.001721	-0.728516	-0.166016	-0.512695	0.740443	0.079062	-0.662364	0.082261	4.213969	-83.664800	8.906500	0.109014	0.017084	0.993893	-0.226556	0.973964	0.008108	-0.967878	-0.226056	0.110047	0	0	0
57643	0	0	0	0	0	9.790855	0.102429	1.103669	-0.001102	0.000399	0.000997	-0.735840	-0.164551	-0.519531	0.740440	0.079054	-0.662371	0.082248	4.215903	-83.665650	8.902790	0.109001	0.017075	0.993895	-0.226526	0.973971	0.008111	-0.967887	-0.226027	0.110032	0	0	0
57644	0	0	0	0	0	9.791504	0.093116	1.080947	0.002582	-0.001763	0.004002	-0.734619	-0.161865	-0.517334	0.740426	0.079049	-0.662385	0.082260	4.203514	-83.667946	8.915745	0.108958	0.017093	0.993899	-0.226537	0.973969	0.008084	-0.967889	-0.226036	0.109994	0	0	0
57645	0	0	0	0	0	9.771938	0.106371	1.075076	-0.000219	0.002467	-0.001639	-0.734619	-0.162354	-0.524170	0.740429	0.079050	-0.662384	0.082240	4.218138	-83.667597	8.899584	0.108969	0.017063	0.993899	-0.226509	0.973975	0.008113	-0.967894	-0.226011	0.109998	0	0	0
57646	0	0	0	0	0	9.806088	0.111334	1.074099	0.002824	-0.001575	0.001671	-0.734619	-0.158691	-0.521729	0.740417	0.079054	-0.662397	0.082244	4.217817	-83.669687	8.900536	0.108932	0.017059	0.993903	-0.226520	0.973973	0.008109	-0.967896	-0.226022	0.109962	0	0	0
57647	0	0	0	0	0	9.757372	0.087803	1.081792	-0.002628	-0.003548	0.003937	-0.738525	-0.157959	-0.521973	0.740400	0.079027	-0.662420	0.082232	4.203965	-83.672891	8.911151	0.108874	0.017071	0.993909	-0.226467	0.973985	0.008079	-0.967915	-0.225967	0.109908	0	0	0
57648	0	0	0	0	0	9.772620	0.096724	1.052074	0.002364	0.000704	0.002363	-0.732666	-0.165527	-0.528320	0.740395	0.079026	-0.662426	0.082238	4.198944	-83.673707	8.916565	0.108859	0.017079	0.993910	-0.226474	0.973984	0.008068	-0.967915	-0.225974	0.109895	0	0	0
57649	0	0	0	0	0	9.791524	0.092260	1.080840	0.001043	0.003571	0.001721	-0.733887	-0.164551	-0.510498	0.740401	0.079017	-0.662420	0.082233	4.196151	-83.672711	8.918235	0.108875	0.017085	0.993909	-0.226456	0.973988	0.008064	-0.967917	-0.225954	0.109912	0	0	0
57650	0	0	0	0	0	9.790856	0.101278	1.103761	0.000642	0.001880	-0.000305	-0.739502	-0.162109	-0.513184	0.740402	0.079018	-0.662420	0.082223	4.203448	-83.672744	8.910263	0.108877	0.017070	0.993909	-0.226443	0.973991	0.008078	-0.967920	-0.225943	0.109911	0	0	0
57651	0	0	0	0	0	9.791474	0.092237	1.081290	0.000642	0.001880	-0.000305	-0.742188	-0.163574	-0.510986	0.740401	0.079020	-0.662422	0.082213	4.212023	-83.672980	8.900977	0.108876	0.017051	0.993909	-0.226430	0.973994	0.008094	-0.967923	-0.225932	0.109905	0	0	0
57652	0	0	0	0	0	9.776882	0.073767	1.088218	0.002582	-0.001763	0.004002	-0.729492	-0.165771	-0.516602	0.740387	0.079016	-0.662437	0.082224	4.199616	-83.675275	8.913948	0.108833	0.017070	0.993914	-0.226442	0.973991	0.008067	-0.967925	-0.225941	0.109867	0	0	0
57653	0	0	0	0	0	9.771891	0.105368	1.075604	0.001066	0.006227	-0.002248	-0.739258	-0.163574	-0.519775	0.740402	0.079024	-0.662421	0.082210	4.217109	-83.672876	8.896002	0.108879	0.017042	0.993909	-0.226432	0.973993	0.008104	-0.967923	-0.225935	0.109906	0	0	0
57654	0	0	0	0	0	9.791428	0.091934	1.081734	-0.001986	-0.001669	0.003632	-0.741943	-0.164551	-0.504395	0.740390	0.079004	-0.662438	0.082205	4.203958	-83.675102	8.907089	0.108838	0.017057	0.993913	-0.226398	0.974001	0.008076	-0.967935	-0.225899	0.109870	0	0	0
57655	0	0	0	0	0	9.757252	0.086856	1.082945	0.001926	0.005639	-0.000914	-0.736572	-0.166016	-0.517334	0.740401	0.079012	-0.662425	0.082199	4.215018	-83.673219	8.896127	0.108873	0.017042	0.993910	-0.226398	0.974001	0.008100	-0.967931	-0.225901	0.109901	0	0	0
57656	0	0	0	0	0	9.805953	0.110083	1.075455	0.001042	0.003571	0.001722	-0.737061	-0.163086	-0.514648	0.740406	0.079007	-0.662420	0.082199	4.211462	-83.672371	8.899306	0.108887	0.017050	0.993908	-0.226392	0.974003	0.008094	-0.967931	-0.225894	0.109916	0	0	0
57657	0	0	0	0	0	9.771757	0.105042	1.076847	0.000182	0.004158	0.000388	-0.736084	-0.167480	-0.510254	0.740414	0.079003	-0.662413	0.082190	4.215546	-83.671221	8.894239	0.108908	0.017043	0.993906	-0.226375	0.974007	0.008103	-0.967933	-0.225878	0.109935	0	0	0
57658	0	0	0	0	0	9.821110	0.119061	1.046656	-0.000060	0.003970	0.002718	-0.738525	-0.154297	-0.518311	0.740420	0.078991	-0.662407	0.082190	4.206074	-83.670187	8.902735	0.108923	0.017062	0.993904	-0.226359	0.974010	0.008086	-0.967934	-0.225860	0.109955	0	0	0
57659	0	0	0	0	0	9.771681	0.104619	1.077583	0.001903	0.002983	0.003056	-0.728516	-0.157227	-0.515137	0.740422	0.078983	-0.662406	0.082195	4.197001	-83.669878	8.911544	0.108926	0.017080	0.993903	-0.226356	0.974011	0.008069	-0.967935	-0.225855	0.109961	0	0	0
57660	0	0	0	0	0	9.757701	0.077059	1.062107	-0.000460	0.002279	0.000692	-0.735107	-0.165283	-0.520020	0.740424	0.078977	-0.662405	0.082186	4.198380	-83.669725	8.908892	0.108929	0.017075	0.993903	-0.226334	0.974016	0.008072	-0.967940	-0.225833	0.109964	0	0	0
57661	0	0	0	0	0	9.791182	0.091136	1.084026	0.002387	0.003359	-0.001606	-0.734619	-0.161133	-0.520264	0.740430	0.078986	-0.662399	0.082174	4.213672	-83.668825	8.893358	0.108949	0.017048	0.993901	-0.226328	0.974017	0.008103	-0.967939	-0.225830	0.109977	0	0	0
57662	0	0	0	0	0	9.756988	0.086376	1.085360	0.002387	0.003359	-0.001606	-0.730713	-0.159668	-0.514893	0.740435	0.078997	-0.662393	0.082166	4.228102	-83.667958	8.879216	0.108968	0.017024	0.993899	-0.226331	0.974016	0.008131	-0.967936	-0.225837	0.109990	0	0	0
57663	0	0	0	0	0	9.771528	0.104737	1.078952	0.006894	0.007233	0.001484	-0.727295	-0.157227	-0.515869	0.740450	0.079010	-0.662372	0.082182	4.228359	-83.664992	8.881314	0.109019	0.017035	0.993894	-0.226371	0.974007	0.008136	-0.967921	-0.225876	0.110041	0	0	0
57664	0	0	0	0	0	9.806250	0.100483	1.056057	0.008397	0.008524	0.002514	-0.736084	-0.161865	-0.517090	0.740469	0.079027	-0.662346	0.082211	4.223062	-83.661347	8.890485	0.109078	0.017063	0.993887	-0.226437	0.973992	0.008130	-0.967899	-0.225939	0.110105	0	0	0
57665	0	0	0	0	0	9.771358	0.104354	1.080529	0.008155	0.008335	0.004845	-0.736328	-0.155273	-0.519531	0.740486	0.079033	-0.662322	0.082244	4.206191	-83.657909	8.910482	0.109131	0.017110	0.993880	-0.226491	0.973979	0.008102	-0.967880	-0.225989	0.110167	0	0	0
