// General information: 
//  MT Manager version: 2022.2.0 
//  XDA version: 2022.2.0 build 7381 rev 124627 built on 2023-07-19
// Device information: 
//  DeviceId: 10B426F1
//  ProductCode: MTW2-3A7G6
//  Firmware Version: 4.14.0
//  Hardware Version: 3.0.0
// Device settings: 
//  Filter Profile: human(46.1)
//  Option Flags: Orientation Smoother Disabled, Position/Velocity Smoother Disabled, Continuous Zero Rotation Update Disabled, AHS Disabled, ICC Disabled
// Coordinate system: ENU
PacketCounter	SampleTimeFine	Year	Month	Day	Second	Acc_X	Acc_Y	Acc_Z	Gyr_X	Gyr_Y	Gyr_Z	Mag_X	Mag_Y	Mag_Z	Quat_q0	Quat_q1	Quat_q2	Quat_q3	Roll	Pitch	Yaw	Mat[1][1]	Mat[2][1]	Mat[3][1]	Mat[1][2]	Mat[2][2]	Mat[3][2]	Mat[1][3]	Mat[2][3]	Mat[3][3]	Vel_E	Vel_N	Vel_U
57202	0	0	0	0	0	9.667692	1.853595	0.093439	0.000000	0.000000	-0.000000	-0.510742	-0.593750	0.197021	0.409561	0.641852	-0.297370	0.576070	90.252196	-79.447041	29.482652	0.159428	0.090136	0.983086	-0.853606	-0.487663	0.183143	0.495922	-0.868367	-0.000806	0	0	0
57203	0	0	0	0	0	9.637427	1.802958	0.057399	-0.003576	-0.000828	0.002284	-0.514893	-0.595947	0.198730	0.409568	0.641836	-0.297407	0.576065	90.252832	-79.449560	29.478029	0.159398	0.090102	0.983094	-0.853647	-0.487607	0.183099	0.495862	-0.868401	-0.000808	0	0	0
57204	0	0	0	0	0	9.647764	1.796927	0.089723	0.005386	-0.001689	0.004246	-0.523682	-0.590576	0.202393	0.409532	0.641842	-0.297424	0.576074	90.264351	-79.453402	29.468434	0.159355	0.090043	0.983106	-0.853640	-0.487645	0.183033	0.495888	-0.868386	-0.000844	0	0	0
57205	0	0	0	0	0	9.668874	1.799094	0.101512	0.003957	-0.002990	-0.000771	-0.504150	-0.600342	0.203857	0.409515	0.641853	-0.297431	0.576070	90.275885	-79.454412	29.457879	0.159357	0.090005	0.983110	-0.853633	-0.487664	0.183016	0.495900	-0.868379	-0.000881	0	0	0
57206	0	0	0	0	0	9.631583	1.825442	0.062628	0.004023	-0.000481	0.000188	-0.514648	-0.599121	0.196289	0.409498	0.641859	-0.297437	0.576073	90.282854	-79.455932	29.452118	0.159343	0.089976	0.983114	-0.853626	-0.487686	0.182989	0.495916	-0.868370	-0.000903	0	0	0
57207	0	0	0	0	0	9.667829	1.852923	0.092550	0.001766	-0.002306	0.002215	-0.513428	-0.598389	0.195801	0.409486	0.641859	-0.297461	0.576070	90.291354	-79.458339	29.442586	0.159322	0.089929	0.983122	-0.853640	-0.487677	0.182948	0.495898	-0.868380	-0.000930	0	0	0
57208	0	0	0	0	0	9.646263	1.836690	0.132968	0.004873	-0.002889	0.000816	-0.506836	-0.598877	0.201660	0.409460	0.641872	-0.297471	0.576067	90.306237	-79.460211	29.429269	0.159315	0.089877	0.983128	-0.853630	-0.487707	0.182916	0.495918	-0.868369	-0.000978	0	0	0
57209	0	0	0	0	0	9.673824	1.829683	0.086012	0.004470	-0.001791	0.002660	-0.514648	-0.602295	0.210205	0.409439	0.641875	-0.297488	0.576071	90.314522	-79.462911	29.421488	0.159287	0.089832	0.983137	-0.853632	-0.487721	0.182869	0.495924	-0.868365	-0.001004	0	0	0
57210	0	0	0	0	0	9.646863	1.850051	0.079573	0.001766	-0.002306	0.002215	-0.510254	-0.599609	0.199707	0.409420	0.641878	-0.297510	0.576069	90.325864	-79.465586	29.409963	0.159265	0.089778	0.983145	-0.853639	-0.487725	0.182823	0.495918	-0.868369	-0.001040	0	0	0
57211	0	0	0	0	0	9.631766	1.824515	0.061491	0.000513	0.001199	0.003431	-0.508057	-0.593750	0.202881	0.409412	0.641865	-0.297533	0.576078	90.323349	-79.468733	29.411364	0.159216	0.089755	0.983155	-0.853658	-0.487713	0.182769	0.495902	-0.868378	-0.001031	0	0	0
57212	0	0	0	0	0	9.637748	1.801301	0.055381	-0.000089	-0.005229	0.002399	-0.515137	-0.595459	0.206787	0.409394	0.641872	-0.297567	0.576065	90.342650	-79.471503	29.390663	0.159207	0.089674	0.983164	-0.853675	-0.487701	0.182721	0.495876	-0.868393	-0.001093	0	0	0
57213	0	0	0	0	0	9.658849	1.803529	0.067164	0.001319	-0.000997	-0.000257	-0.509033	-0.589355	0.204834	0.409386	0.641874	-0.297576	0.576064	90.347388	-79.472621	29.385853	0.159198	0.089651	0.983168	-0.853678	-0.487703	0.182702	0.495874	-0.868394	-0.001108	0	0	0
57214	0	0	0	0	0	9.679882	1.806104	0.079274	0.003129	0.002137	-0.004757	-0.514160	-0.593018	0.206055	0.409389	0.641878	-0.297563	0.576064	90.345698	-79.471316	29.388378	0.159213	0.089669	0.983164	-0.853667	-0.487713	0.182724	0.495887	-0.868387	-0.001102	0	0	0
57215	0	0	0	0	0	9.647977	1.795886	0.087618	0.000916	0.000101	0.001587	-0.510010	-0.593750	0.198975	0.409376	0.641874	-0.297576	0.576071	90.346958	-79.473551	29.387313	0.159181	0.089648	0.983171	-0.853672	-0.487720	0.182686	0.495889	-0.868385	-0.001106	0	0	0
57216	0	0	0	0	0	9.637166	1.787927	0.107869	0.003510	-0.001681	-0.003243	-0.509521	-0.592773	0.204834	0.409368	0.641887	-0.297574	0.576063	90.357286	-79.473099	29.377835	0.159203	0.089625	0.983169	-0.853662	-0.487735	0.182694	0.495900	-0.868379	-0.001139	0	0	0
57217	0	0	0	0	0	9.684657	1.837577	0.064606	0.007600	0.000346	-0.002096	-0.511230	-0.599121	0.192139	0.409349	0.641900	-0.297558	0.576071	90.361146	-79.473158	29.377327	0.159203	0.089623	0.983169	-0.853633	-0.487786	0.182693	0.495949	-0.868351	-0.001152	0	0	0
57218	0	0	0	0	0	9.641938	1.819427	0.093082	0.003510	-0.001681	-0.003243	-0.519287	-0.595947	0.199951	0.409341	0.641913	-0.297557	0.576062	90.371474	-79.472706	29.367851	0.159224	0.089601	0.983168	-0.853623	-0.487800	0.182700	0.495960	-0.868345	-0.001185	0	0	0
57219	0	0	0	0	0	9.667838	1.852971	0.090669	0.004962	0.002340	-0.001583	-0.513916	-0.598877	0.199219	0.409338	0.641909	-0.297552	0.576071	90.366673	-79.473118	29.373405	0.159210	0.089613	0.983169	-0.853618	-0.487811	0.182693	0.495972	-0.868338	-0.001169	0	0	0
57220	0	0	0	0	0	9.675277	1.790239	0.040811	-0.004448	0.004510	-0.006018	-0.510742	-0.595703	0.202148	0.409373	0.641893	-0.297552	0.576065	90.353298	-79.471099	29.383399	0.159224	0.089657	0.983163	-0.853643	-0.487754	0.182728	0.495924	-0.868365	-0.001127	0	0	0
57221	0	0	0	0	0	9.647702	1.797351	0.087773	0.001385	0.001512	0.000702	-0.507568	-0.588135	0.209473	0.409370	0.641883	-0.297563	0.576072	90.349762	-79.472752	29.386203	0.159195	0.089651	0.983168	-0.853654	-0.487745	0.182700	0.495914	-0.868371	-0.001115	0	0	0
57222	0	0	0	0	0	9.647693	1.797391	0.088021	-0.000380	0.003818	-0.001514	-0.509277	-0.590088	0.201660	0.409378	0.641870	-0.297567	0.576078	90.340936	-79.473310	29.393940	0.159175	0.089668	0.983170	-0.853667	-0.487727	0.182690	0.495900	-0.868379	-0.001087	0	0	0
57223	0	0	0	0	0	9.667636	1.853961	0.091890	0.006304	0.004062	-0.005196	-0.512695	-0.597656	0.211914	0.409372	0.641876	-0.297533	0.576093	90.333112	-79.471643	29.405492	0.159181	0.089714	0.983165	-0.853631	-0.487778	0.182719	0.495959	-0.868346	-0.001062	0	0	0
57224	0	0	0	0	0	9.641629	1.820996	0.094400	0.006281	0.001343	-0.001839	-0.518555	-0.598877	0.208252	0.409355	0.641885	-0.297522	0.576101	90.335729	-79.472006	29.405473	0.159176	0.089711	0.983166	-0.853610	-0.487818	0.182713	0.495997	-0.868323	-0.001071	0	0	0
57225	0	0	0	0	0	9.652360	1.829378	0.074178	0.006304	0.004062	-0.005196	-0.510986	-0.593262	0.199219	0.409352	0.641890	-0.297490	0.576114	90.328061	-79.470322	29.416380	0.159184	0.089756	0.983160	-0.853579	-0.487862	0.182742	0.496048	-0.868294	-0.001046	0	0	0
57226	0	0	0	0	0	9.663067	1.837890	0.053963	0.007154	0.001654	-0.004567	-0.514160	-0.599609	0.204346	0.409341	0.641903	-0.297467	0.576119	90.330168	-79.469124	29.417388	0.159200	0.089769	0.983157	-0.853548	-0.487907	0.182762	0.496095	-0.868268	-0.001053	0	0	0
57227	0	0	0	0	0	9.619243	1.873768	0.074057	0.005366	0.001241	-0.003425	-0.510498	-0.600098	0.205078	0.409336	0.641909	-0.297453	0.576123	90.329780	-79.468429	29.419507	0.159208	0.089780	0.983154	-0.853532	-0.487931	0.182774	0.496121	-0.868253	-0.001052	0	0	0
57228	0	0	0	0	0	9.652168	1.830380	0.074491	0.007264	0.003953	0.000707	-0.508301	-0.588135	0.196777	0.409313	0.641908	-0.297442	0.576146	90.324957	-79.470260	29.427628	0.159167	0.089787	0.983160	-0.853510	-0.487982	0.182743	0.496172	-0.868223	-0.001036	0	0	0
57229	0	0	0	0	0	9.662924	1.838638	0.054201	0.005769	0.000141	-0.005268	-0.522461	-0.590576	0.200928	0.409310	0.641922	-0.297422	0.576144	90.328199	-79.468482	29.426435	0.159196	0.089799	0.983155	-0.853487	-0.488011	0.182773	0.496203	-0.868206	-0.001047	0	0	0
57230	0	0	0	0	0	9.652078	1.830854	0.074463	0.004024	-0.000481	0.000189	-0.524658	-0.589111	0.198486	0.409292	0.641928	-0.297428	0.576147	90.335180	-79.470001	29.420662	0.159182	0.089770	0.983159	-0.853480	-0.488033	0.182747	0.496219	-0.868197	-0.001069	0	0	0
57231	0	0	0	0	0	9.662337	1.825262	0.106939	0.002258	0.001824	-0.002027	-0.517334	-0.589600	0.201904	0.409291	0.641923	-0.297426	0.576155	90.330600	-79.470445	29.425659	0.159168	0.089780	0.983161	-0.853478	-0.488038	0.182740	0.496227	-0.868192	-0.001054	0	0	0
57232	0	0	0	0	0	9.647151	1.800239	0.089144	0.000023	0.002718	-0.003358	-0.517578	-0.604004	0.199463	0.409301	0.641917	-0.297425	0.576155	90.325362	-79.469943	29.429983	0.159168	0.089797	0.983159	-0.853485	-0.488023	0.182748	0.496214	-0.868200	-0.001038	0	0	0
57233	0	0	0	0	0	9.662219	1.825861	0.107340	0.001342	0.001721	-0.003614	-0.508789	-0.606934	0.197998	0.409311	0.641912	-0.297423	0.576154	90.320853	-79.469229	29.433751	0.159173	0.089813	0.983157	-0.853490	-0.488009	0.182761	0.496204	-0.868205	-0.001023	0	0	0
57234	0	0	0	0	0	9.662150	1.826224	0.107421	0.002661	0.000725	-0.003870	-0.509521	-0.601318	0.201904	0.409311	0.641918	-0.297417	0.576150	90.323263	-79.468427	29.431833	0.159188	0.089815	0.983154	-0.853483	-0.488016	0.182774	0.496211	-0.868201	-0.001031	0	0	0
57235	0	0	0	0	0	9.639931	1.878074	0.086755	0.003577	0.000827	-0.002283	-0.513428	-0.603760	0.204834	0.409314	0.641918	-0.297417	0.576148	90.322989	-79.468186	29.431757	0.159192	0.089816	0.983154	-0.853486	-0.488010	0.182779	0.496206	-0.868204	-0.001030	0	0	0
57236	0	0	0	0	0	9.650728	1.886115	0.066509	-0.001723	0.002096	0.002099	-0.515625	-0.592041	0.200439	0.409313	0.641902	-0.297440	0.576155	90.318763	-79.470808	29.434034	0.159149	0.089801	0.983162	-0.853510	-0.487984	0.182734	0.496177	-0.868221	-0.001017	0	0	0
57237	0	0	0	0	0	9.666919	1.857619	0.093520	-0.007556	0.005090	-0.004622	-0.511230	-0.593262	0.197998	0.409359	0.641872	-0.297452	0.576150	90.299115	-79.469449	29.448181	0.159147	0.089851	0.983158	-0.853556	-0.487895	0.182757	0.496099	-0.868265	-0.000954	0	0	0
57238	0	0	0	0	0	9.657713	1.809494	0.069999	-0.004897	0.000170	0.002539	-0.510742	-0.591797	0.203369	0.409364	0.641854	-0.297490	0.576146	90.299009	-79.472317	29.444417	0.159110	0.089817	0.983167	-0.853597	-0.487842	0.182708	0.496040	-0.868299	-0.000954	0	0	0
57239	0	0	0	0	0	9.684772	1.788672	0.076436	-0.003042	0.003092	0.002356	-0.512939	-0.597900	0.205078	0.409370	0.641830	-0.297513	0.576157	90.288191	-79.474971	29.452576	0.159058	0.089817	0.983175	-0.853629	-0.487804	0.182663	0.496003	-0.868320	-0.000919	0	0	0
57240	0	0	0	0	0	9.657764	1.809198	0.070589	-0.007578	0.002372	-0.001264	-0.516357	-0.600342	0.199219	0.409398	0.641806	-0.297542	0.576149	90.279696	-79.475666	29.455783	0.159043	0.089820	0.983177	-0.853677	-0.487724	0.182651	0.495925	-0.868365	-0.000892	0	0	0
57241	0	0	0	0	0	9.642093	1.770231	0.105785	-0.006662	0.002474	0.000323	-0.512695	-0.596924	0.202148	0.409424	0.641777	-0.297573	0.576146	90.268651	-79.477115	29.461540	0.159012	0.089824	0.983182	-0.853727	-0.487645	0.182626	0.495848	-0.868409	-0.000856	0	0	0
57242	0	0	0	0	0	9.673961	1.780642	0.097766	0.000469	0.001410	-0.000885	-0.514648	-0.604248	0.206543	0.409423	0.641772	-0.297582	0.576147	90.267737	-79.478025	29.461726	0.158998	0.089817	0.983185	-0.853736	-0.487635	0.182611	0.495837	-0.868415	-0.000853	0	0	0
57243	0	0	0	0	0	9.646919	1.801360	0.091632	0.006282	0.001343	-0.001837	-0.514404	-0.603271	0.203613	0.409411	0.641778	-0.297571	0.576156	90.267861	-79.478187	29.463791	0.158992	0.089821	0.983185	-0.853718	-0.487668	0.182608	0.495870	-0.868396	-0.000854	0	0	0
57244	0	0	0	0	0	9.645745	1.855721	0.082965	0.003469	-0.001472	-0.007556	-0.511963	-0.588867	0.199951	0.409416	0.641797	-0.297555	0.576139	90.277459	-79.475267	29.455033	0.159050	0.089821	0.983176	-0.853701	-0.487678	0.182658	0.495880	-0.868390	-0.000885	0	0	0
57245	0	0	0	0	0	9.645142	1.842385	0.135517	0.006663	-0.002474	-0.000323	-0.515137	-0.597168	0.206299	0.409392	0.641812	-0.297555	0.576140	90.289347	-79.476356	29.445531	0.159048	0.089786	0.983180	-0.853682	-0.487719	0.182639	0.495913	-0.868372	-0.000922	0	0	0
57246	0	0	0	0	0	9.672659	1.835714	0.088535	0.004831	-0.002679	-0.003497	-0.520264	-0.603760	0.206055	0.409379	0.641831	-0.297551	0.576129	90.303503	-79.475757	29.432931	0.159077	0.089756	0.983178	-0.853665	-0.487744	0.182649	0.495933	-0.868360	-0.000968	0	0	0
57247	0	0	0	0	0	9.646701	1.802576	0.090672	0.001319	-0.000997	-0.000256	-0.508545	-0.600586	0.201904	0.409374	0.641831	-0.297563	0.576127	90.308062	-79.476897	29.427807	0.159068	0.089732	0.983181	-0.853673	-0.487739	0.182629	0.495924	-0.868366	-0.000982	0	0	0
57248	0	0	0	0	0	9.672606	1.836014	0.088123	0.001723	-0.002096	-0.002099	-0.513916	-0.595215	0.201416	0.409367	0.641840	-0.297571	0.576117	90.318662	-79.477100	29.417012	0.159082	0.089700	0.983182	-0.853673	-0.487739	0.182626	0.495918	-0.868369	-0.001016	0	0	0
57249	0	0	0	0	0	9.657446	1.810913	0.070138	0.000939	0.002820	-0.001770	-0.511963	-0.595459	0.199707	0.409375	0.641830	-0.297573	0.576122	90.310937	-79.477310	29.423909	0.159068	0.089718	0.983183	-0.853682	-0.487725	0.182622	0.495907	-0.868375	-0.000991	0	0	0
57250	0	0	0	0	0	9.666611	1.859191	0.094030	0.000850	-0.002407	0.000629	-0.516357	-0.594482	0.195801	0.409363	0.641835	-0.297593	0.576115	90.322043	-79.479075	29.412089	0.159060	0.089670	0.983188	-0.853692	-0.487720	0.182592	0.495894	-0.868383	-0.001026	0	0	0
57251	0	0	0	0	0	9.633611	1.902862	0.093782	-0.006705	0.002683	-0.003992	-0.508545	-0.596191	0.200439	0.409402	0.641811	-0.297610	0.576104	90.309789	-79.478120	29.419000	0.159063	0.089697	0.983185	-0.853736	-0.487636	0.182608	0.495816	-0.868427	-0.000987	0	0	0
57252	0	0	0	0	0	9.639554	1.879945	0.088193	-0.010709	0.000236	0.003490	-0.510986	-0.604980	0.205078	0.409423	0.641780	-0.297668	0.576095	90.306165	-79.481533	29.415427	0.159018	0.089658	0.983196	-0.853807	-0.487533	0.182550	0.495708	-0.868489	-0.000975	0	0	0
57253	0	0	0	0	0	9.640648	1.826043	0.097065	-0.013902	0.001237	-0.003741	-0.509033	-0.601563	0.200684	0.409483	0.641747	-0.297709	0.576068	90.294965	-79.480536	29.417086	0.159030	0.089672	0.983193	-0.853887	-0.487386	0.182567	0.495566	-0.868570	-0.000940	0	0	0
57254	0	0	0	0	0	9.640650	1.826026	0.097177	-0.008539	-0.003168	0.003863	-0.517090	-0.586182	0.195068	0.409491	0.641729	-0.297768	0.576051	90.303094	-79.484152	29.402824	0.158999	0.089601	0.983204	-0.853948	-0.487303	0.182505	0.495471	-0.868624	-0.000965	0	0	0
57255	0	0	0	0	0	9.672030	1.822488	0.141793	-0.005343	0.001477	0.000068	-0.513184	-0.597412	0.197021	0.409511	0.641707	-0.297797	0.576047	90.295510	-79.485516	29.405962	0.158973	0.089599	0.983209	-0.853991	-0.487237	0.182482	0.495406	-0.868661	-0.000941	0	0	0
57256	0	0	0	0	0	9.655806	1.851119	0.115469	-0.008047	0.000961	-0.000378	-0.512695	-0.591553	0.205322	0.409535	0.641685	-0.297832	0.576036	90.291111	-79.486715	29.404729	0.158957	0.089585	0.983213	-0.854043	-0.487154	0.182461	0.495321	-0.868709	-0.000927	0	0	0
57257	0	0	0	0	0	9.631503	1.777638	0.073787	-0.005343	0.001477	0.000068	-0.520508	-0.594482	0.194336	0.409553	0.641664	-0.297859	0.576033	90.283921	-79.488059	29.407788	0.158932	0.089582	0.983217	-0.854083	-0.487092	0.182438	0.495261	-0.868744	-0.000904	0	0	0
57258	0	0	0	0	0	9.646639	1.802842	0.091972	-0.003108	0.000582	0.001398	-0.516602	-0.599854	0.208496	0.409557	0.641650	-0.297887	0.576031	90.283546	-79.490274	29.405340	0.158903	0.089557	0.983224	-0.854113	-0.487053	0.182400	0.495218	-0.868768	-0.000903	0	0	0
57259	0	0	0	0	0	9.646653	1.802760	0.092088	-0.001319	0.000996	0.000257	-0.519531	-0.593018	0.198975	0.409562	0.641637	-0.297905	0.576033	90.279948	-79.491787	29.406844	0.158878	0.089548	0.983229	-0.854136	-0.487024	0.182374	0.495187	-0.868786	-0.000891	0	0	0
57260	0	0	0	0	0	9.648243	1.762791	0.047996	-0.005385	0.001687	-0.004247	-0.516602	-0.602783	0.198242	0.409590	0.641624	-0.297919	0.576019	90.274772	-79.490771	29.407953	0.158892	0.089560	0.983226	-0.854168	-0.486960	0.182392	0.495127	-0.868820	-0.000875	0	0	0
57261	0	0	0	0	0	9.658456	1.757392	0.080660	0.002258	0.001825	-0.002026	-0.515625	-0.593262	0.199707	0.409594	0.641618	-0.297920	0.576023	90.270336	-79.490961	29.412020	0.158882	0.089570	0.983226	-0.854172	-0.486954	0.182389	0.495122	-0.868823	-0.000861	0	0	0
57262	0	0	0	0	0	9.657346	1.811365	0.072241	0.001385	0.001512	0.000702	-0.515137	-0.603516	0.195068	0.409586	0.641612	-0.297930	0.576030	90.269648	-79.492780	29.412509	0.158855	0.089556	0.983232	-0.854179	-0.486954	0.182357	0.495119	-0.868825	-0.000858	0	0	0
57263	0	0	0	0	0	9.646506	1.803514	0.092738	0.003131	0.002137	-0.004754	-0.519287	-0.597900	0.199219	0.409596	0.641611	-0.297920	0.576029	90.264682	-79.491351	29.417458	0.158868	0.089581	0.983227	-0.854176	-0.486950	0.182382	0.495120	-0.868824	-0.000843	0	0	0
57264	0	0	0	0	0	9.678299	1.814325	0.084689	-0.002681	0.002202	-0.003802	-0.513672	-0.597412	0.200684	0.409615	0.641602	-0.297926	0.576023	90.259469	-79.490592	29.420180	0.158875	0.089595	0.983225	-0.854196	-0.486910	0.182395	0.495084	-0.868845	-0.000826	0	0	0
57265	0	0	0	0	0	9.640411	1.827173	0.099231	-0.002615	0.004711	-0.002843	-0.516357	-0.598145	0.194336	0.409640	0.641580	-0.297931	0.576027	90.243561	-79.490292	29.433285	0.158859	0.089634	0.983224	-0.854221	-0.486864	0.182400	0.495045	-0.868867	-0.000775	0	0	0
57266	0	0	0	0	0	9.652250	1.781655	0.087798	-0.005385	0.001686	-0.004247	-0.522217	-0.596191	0.198486	0.409669	0.641567	-0.297946	0.576014	90.238389	-79.489276	29.434389	0.158873	0.089646	0.983221	-0.854254	-0.486800	0.182418	0.494985	-0.868901	-0.000759	0	0	0
57267	0	0	0	0	0	9.667303	1.807255	0.106011	-0.000446	0.001308	-0.002471	-0.517334	-0.595459	0.198975	0.409682	0.641557	-0.297954	0.576011	90.233757	-79.489244	29.436975	0.158869	0.089653	0.983221	-0.854272	-0.486768	0.182419	0.494955	-0.868918	-0.000744	0	0	0
57268	0	0	0	0	0	9.662394	1.776604	0.120541	-0.000042	0.000210	-0.004315	-0.510742	-0.602539	0.197510	0.409691	0.641559	-0.297956	0.576001	90.236202	-79.488186	29.433445	0.158890	0.089652	0.983217	-0.854277	-0.486751	0.182437	0.494938	-0.868928	-0.000752	0	0	0
57269	0	0	0	0	0	9.668795	1.767906	0.062140	0.004135	0.007466	-0.005563	-0.514893	-0.594727	0.205566	0.409708	0.641547	-0.297928	0.576018	90.215545	-79.486269	29.455032	0.158885	0.089728	0.983211	-0.854267	-0.486757	0.182470	0.494958	-0.868917	-0.000686	0	0	0
57270	0	0	0	0	0	9.629714	1.835073	0.068282	0.002240	0.004753	-0.009695	-0.513916	-0.589355	0.205811	0.409732	0.641549	-0.297896	0.576014	90.205215	-79.482138	29.465826	0.158930	0.089793	0.983198	-0.854253	-0.486755	0.182541	0.494967	-0.868911	-0.000654	0	0	0
57271	0	0	0	0	0	9.654969	1.855243	0.119229	0.000089	0.005227	-0.002397	-0.513916	-0.593750	0.201416	0.409741	0.641534	-0.297888	0.576029	90.190102	-79.482130	29.480955	0.158907	0.089835	0.983198	-0.854255	-0.486751	0.182541	0.494971	-0.868909	-0.000606	0	0	0
57272	0	0	0	0	0	9.638703	1.884068	0.093042	0.000939	0.002821	-0.001769	-0.512695	-0.596924	0.200195	0.409743	0.641527	-0.297889	0.576034	90.185080	-79.482536	29.485592	0.158893	0.089845	0.983199	-0.854260	-0.486745	0.182534	0.494967	-0.868912	-0.000590	0	0	0
57273	0	0	0	0	0	9.660868	1.832604	0.113830	-0.000000	0.000000	-0.000000	-0.513184	-0.591797	0.193604	0.409743	0.641521	-0.297903	0.576034	90.185521	-79.483827	29.483968	0.158876	0.089829	0.983203	-0.854274	-0.486729	0.182512	0.494949	-0.868922	-0.000591	0	0	0
57274	0	0	0	0	0	9.660847	1.832716	0.113837	0.003578	0.000829	-0.002282	-0.517334	-0.600830	0.199951	0.409736	0.641526	-0.297900	0.576036	90.188153	-79.483935	29.482357	0.158877	0.089824	0.983204	-0.854265	-0.486745	0.182510	0.494964	-0.868914	-0.000599	0	0	0
57275	0	0	0	0	0	9.634899	1.799583	0.116194	0.006282	0.001346	-0.001836	-0.520508	-0.604248	0.206543	0.409725	0.641530	-0.297890	0.576044	90.187489	-79.484203	29.484981	0.158869	0.089829	0.983205	-0.854249	-0.486775	0.182506	0.494993	-0.868897	-0.000597	0	0	0
57276	0	0	0	0	0	9.645669	1.807834	0.095607	0.007067	-0.003570	-0.002166	-0.513916	-0.591797	0.199219	0.409699	0.641554	-0.297886	0.576037	90.205696	-79.484369	29.469563	0.158891	0.089785	0.983205	-0.854224	-0.486821	0.182503	0.495031	-0.868875	-0.000655	0	0	0
57277	0	0	0	0	0	9.656407	1.816249	0.074966	0.005771	0.000144	-0.005265	-0.510498	-0.594971	0.204590	0.409696	0.641567	-0.297866	0.576035	90.209005	-79.482668	29.468332	0.158918	0.089796	0.983200	-0.854201	-0.486850	0.182532	0.495062	-0.868858	-0.000666	0	0	0
57278	0	0	0	0	0	9.656358	1.816523	0.074741	0.006663	-0.002471	-0.000323	-0.513916	-0.601563	0.202148	0.409668	0.641585	-0.297867	0.576035	90.223611	-79.483892	29.456341	0.158919	0.089752	0.983204	-0.854180	-0.486895	0.182511	0.495098	-0.868837	-0.000712	0	0	0
57279	0	0	0	0	0	9.667136	1.824713	0.054148	0.004897	-0.000168	-0.002538	-0.512939	-0.592041	0.202881	0.409659	0.641594	-0.297859	0.576036	90.227635	-79.483658	29.453893	0.158926	0.089747	0.983203	-0.854165	-0.486919	0.182515	0.495120	-0.868824	-0.000725	0	0	0
57280	0	0	0	0	0	9.650337	1.839766	0.080297	0.005813	-0.000065	-0.000951	-0.508545	-0.600342	0.202148	0.409639	0.641604	-0.297855	0.576040	90.234322	-79.484527	29.449460	0.158920	0.089728	0.983206	-0.854148	-0.486956	0.182500	0.495153	-0.868805	-0.000746	0	0	0
57281	0	0	0	0	0	9.645449	1.809061	0.094656	0.001278	-0.000787	-0.004570	-0.520264	-0.599121	0.205811	0.409646	0.641610	-0.297852	0.576030	90.238125	-79.483134	29.445236	0.158947	0.089728	0.983201	-0.854147	-0.486948	0.182523	0.495146	-0.868810	-0.000759	0	0	0
57282	0	0	0	0	0	9.645376	1.809444	0.094738	0.000023	0.002717	-0.003356	-0.515869	-0.595459	0.194092	0.409656	0.641604	-0.297851	0.576030	90.232877	-79.482631	29.449569	0.158948	0.089744	0.983200	-0.854154	-0.486933	0.182532	0.495133	-0.868817	-0.000742	0	0	0
57283	0	0	0	0	0	9.628552	1.824612	0.121073	0.004898	-0.000168	-0.002537	-0.514893	-0.592529	0.195068	0.409649	0.641611	-0.297845	0.576031	90.236295	-79.482526	29.447453	0.158953	0.089739	0.983199	-0.854142	-0.486953	0.182534	0.495152	-0.868806	-0.000753	0	0	0
57284	0	0	0	0	0	9.681415	1.837775	0.124771	-0.000106	-0.002301	-0.005272	-0.506348	-0.593262	0.206055	0.409657	0.641622	-0.297849	0.576011	90.246432	-79.480913	29.436062	0.158995	0.089721	0.983194	-0.854147	-0.486934	0.182561	0.495130	-0.868818	-0.000785	0	0	0
57285	0	0	0	0	0	9.639218	1.833390	0.100506	0.002258	0.001824	-0.002025	-0.510986	-0.597656	0.201904	0.409657	0.641619	-0.297845	0.576016	90.242578	-79.481035	29.440318	0.158987	0.089732	0.983195	-0.854144	-0.486939	0.182559	0.495137	-0.868814	-0.000773	0	0	0
57286	0	0	0	0	0	9.634880	1.816361	0.062153	0.004898	-0.000168	-0.002537	-0.511963	-0.593750	0.202881	0.409645	0.641630	-0.297839	0.576016	90.249035	-79.480995	29.435586	0.158995	0.089719	0.983194	-0.854128	-0.486967	0.182560	0.495162	-0.868800	-0.000793	0	0	0
57287	0	0	0	0	0	9.628361	1.825643	0.120706	0.003555	-0.001889	0.001075	-0.520996	-0.597412	0.199951	0.409626	0.641635	-0.297850	0.576018	90.257565	-79.482854	29.427908	0.158979	0.089682	0.983200	-0.854125	-0.486984	0.182528	0.495173	-0.868794	-0.000821	0	0	0
57288	0	0	0	0	0	9.655917	1.818899	0.073911	0.002194	-0.000685	-0.002983	-0.512939	-0.592773	0.202637	0.409623	0.641643	-0.297851	0.576011	90.264063	-79.482556	29.421558	0.158993	0.089667	0.983199	-0.854122	-0.486988	0.182533	0.495173	-0.868794	-0.000841	0	0	0
57289	0	0	0	0	0	9.649931	1.841922	0.079626	0.003555	-0.001889	0.001075	-0.524658	-0.604980	0.203613	0.409605	0.641648	-0.297862	0.576013	90.272270	-79.484526	29.414136	0.158975	0.089630	0.983206	-0.854120	-0.487005	0.182499	0.495183	-0.868788	-0.000867	0	0	0
57290	0	0	0	0	0	9.639125	1.833917	0.099809	0.000405	-0.001099	-0.001843	-0.518555	-0.590088	0.206299	0.409603	0.641651	-0.297873	0.576004	90.279038	-79.484880	29.406470	0.158982	0.089605	0.983207	-0.854127	-0.486994	0.182493	0.495168	-0.868797	-0.000889	0	0	0
57291	0	0	0	0	0	9.640770	1.793887	0.055376	-0.002769	-0.003026	-0.001404	-0.514648	-0.600342	0.203125	0.409610	0.641650	-0.297896	0.575988	90.287311	-79.485465	29.395435	0.158991	0.089570	0.983209	-0.854151	-0.486955	0.182483	0.495124	-0.868822	-0.000915	0	0	0
57292	0	0	0	0	0	9.672102	1.790605	0.099714	0.003555	-0.001889	0.001075	-0.520752	-0.603760	0.197266	0.409589	0.641658	-0.297909	0.575988	90.298371	-79.487488	29.385240	0.158976	0.089525	0.983215	-0.854148	-0.486974	0.182448	0.495134	-0.868816	-0.000950	0	0	0
57293	0	0	0	0	0	9.645054	1.811234	0.093321	0.004898	-0.000168	-0.002537	-0.516602	-0.597412	0.211670	0.409584	0.641664	-0.297905	0.575987	90.301761	-79.487299	29.382678	0.158983	0.089519	0.983214	-0.854140	-0.486987	0.182451	0.495146	-0.868809	-0.000961	0	0	0
57294	0	0	0	0	0	9.660093	1.836853	0.111093	0.002129	-0.003194	-0.003941	-0.504639	-0.598877	0.207520	0.409580	0.641680	-0.297909	0.575970	90.315954	-79.486444	29.368465	0.159018	0.089487	0.983212	-0.854136	-0.486989	0.182465	0.495142	-0.868812	-0.001006	0	0	0
57295	0	0	0	0	0	9.660053	1.837068	0.110983	0.003173	0.001927	-0.000439	-0.516357	-0.594727	0.203125	0.409570	0.641678	-0.297905	0.575981	90.313261	-79.487379	29.372490	0.158998	0.089490	0.983215	-0.854127	-0.487010	0.182449	0.495163	-0.868800	-0.000998	0	0	0
57296	0	0	0	0	0	9.655738	1.819898	0.072628	0.003109	-0.000582	-0.001396	-0.513672	-0.597656	0.197754	0.409560	0.641685	-0.297909	0.575979	90.319993	-79.487989	29.366437	0.158998	0.089468	0.983217	-0.854122	-0.487023	0.182439	0.495171	-0.868795	-0.001019	0	0	0
57297	0	0	0	0	0	9.670818	1.845297	0.090447	0.002640	-0.001992	-0.000512	-0.515137	-0.608154	0.199707	0.409550	0.641690	-0.297919	0.575975	90.327909	-79.488995	29.358549	0.158995	0.089438	0.983220	-0.854124	-0.487027	0.182421	0.495170	-0.868796	-0.001044	0	0	0
57298	0	0	0	0	0	9.661689	1.797089	0.066444	-0.000000	0.000000	0.000000	-0.520508	-0.593750	0.201172	0.409546	0.641687	-0.297934	0.575973	90.331088	-79.490407	29.354297	0.158981	0.089414	0.983224	-0.854136	-0.487014	0.182397	0.495153	-0.868805	-0.001054	0	0	0
57299	0	0	0	0	0	9.638943	1.834940	0.098589	0.004493	0.000931	-0.000694	-0.513428	-0.599854	0.196533	0.409538	0.641686	-0.297935	0.575979	90.330891	-79.491296	29.355272	0.158966	0.089409	0.983227	-0.854132	-0.487027	0.182382	0.495164	-0.868799	-0.001053	0	0	0
57300	0	0	0	0	0	9.661129	1.783557	0.119177	0.001725	-0.002095	-0.002098	-0.509033	-0.594971	0.198975	0.409532	0.641696	-0.297943	0.575969	90.341494	-79.491499	29.344474	0.158980	0.089378	0.983228	-0.854133	-0.487027	0.182378	0.495159	-0.868802	-0.001087	0	0	0
57301	0	0	0	0	0	9.655649	1.820390	0.072173	0.002258	0.001824	-0.002025	-0.522217	-0.599365	0.199219	0.409536	0.641690	-0.297943	0.575972	90.337211	-79.491567	29.348376	0.158973	0.089388	0.983228	-0.854137	-0.487020	0.182377	0.495154	-0.868805	-0.001073	0	0	0
57302	0	0	0	0	0	9.638888	1.835238	0.098427	0.003150	-0.000789	0.002917	-0.512695	-0.599365	0.200684	0.409513	0.641691	-0.297961	0.575978	90.344689	-79.494648	29.341587	0.158937	0.089343	0.983238	-0.854139	-0.487037	0.182324	0.495163	-0.868800	-0.001097	0	0	0
57303	0	0	0	0	0	9.628639	1.840793	0.065825	-0.001384	-0.001513	-0.000702	-0.505127	-0.605225	0.200684	0.409519	0.641686	-0.297983	0.575968	90.348660	-79.495543	29.335018	0.158934	0.089317	0.983241	-0.854163	-0.487001	0.182309	0.495122	-0.868823	-0.001109	0	0	0
57304	0	0	0	0	0	9.664788	1.868560	0.095743	-0.000064	-0.002509	-0.000957	-0.511230	-0.585693	0.206299	0.409515	0.641691	-0.298001	0.575956	90.359542	-79.496397	29.322894	0.158940	0.089277	0.983243	-0.854174	-0.486986	0.182294	0.495101	-0.868835	-0.001144	0	0	0
57305	0	0	0	0	0	9.671895	1.791799	0.098333	-0.002704	-0.000517	-0.000446	-0.515869	-0.593750	0.188477	0.409523	0.641683	-0.298021	0.575950	90.360452	-79.497326	29.319442	0.158932	0.089259	0.983246	-0.854198	-0.486950	0.182278	0.495062	-0.868857	-0.001147	0	0	0
57306	0	0	0	0	0	9.661600	1.797590	0.065801	-0.002299	-0.001617	-0.002288	-0.510742	-0.591309	0.208252	0.409531	0.641683	-0.298039	0.575934	90.367271	-79.497420	29.310148	0.158945	0.089233	0.983247	-0.854218	-0.486915	0.182276	0.495023	-0.868879	-0.001168	0	0	0
57307	0	0	0	0	0	9.661052	1.784023	0.118464	0.002640	-0.001992	-0.000511	-0.522949	-0.598389	0.205566	0.409520	0.641688	-0.298048	0.575931	90.375076	-79.498452	29.302535	0.158941	0.089203	0.983250	-0.854219	-0.486922	0.182258	0.495024	-0.868879	-0.001193	0	0	0
57308	0	0	0	0	0	9.629667	1.787564	0.073656	0.002599	-0.001785	-0.004825	-0.513916	-0.598633	0.200195	0.409519	0.641703	-0.298044	0.575918	90.385170	-79.497092	29.292765	0.158977	0.089187	0.983246	-0.854211	-0.486927	0.182281	0.495026	-0.868877	-0.001225	0	0	0
57309	0	0	0	0	0	9.640364	1.796135	0.053133	0.000363	-0.000893	-0.006156	-0.508789	-0.594971	0.195068	0.409534	0.641709	-0.298041	0.575902	90.388412	-79.494888	29.288348	0.159017	0.089193	0.983239	-0.854214	-0.486907	0.182319	0.495007	-0.868888	-0.001236	0	0	0
57310	0	0	0	0	0	9.659674	1.839163	0.109263	0.007538	-0.002160	-0.003048	-0.511230	-0.600098	0.204102	0.409512	0.641731	-0.298029	0.575899	90.402528	-79.494544	29.277365	0.159039	0.089166	0.983238	-0.854184	-0.486957	0.182325	0.495051	-0.868863	-0.001281	0	0	0
57311	0	0	0	0	0	9.654183	1.875986	0.062010	-0.000064	-0.002510	-0.000957	-0.513184	-0.594727	0.203613	0.409513	0.641733	-0.298047	0.575887	90.410575	-79.495184	29.267575	0.159045	0.089133	0.983240	-0.854200	-0.486934	0.182313	0.495023	-0.868879	-0.001306	0	0	0
57312	0	0	0	0	0	9.646190	1.774021	0.046743	-0.004471	0.001785	-0.002662	-0.514160	-0.604492	0.196777	0.409534	0.641719	-0.298063	0.575879	90.405628	-79.495077	29.268982	0.159044	0.089138	0.983239	-0.854230	-0.486879	0.182315	0.494970	-0.868909	-0.001291	0	0	0
57313	0	0	0	0	0	9.671523	1.793859	0.097336	0.001789	0.000414	-0.001141	-0.507080	-0.595215	0.196533	0.409535	0.641716	-0.298070	0.575878	90.405624	-79.495659	29.268335	0.159036	0.089131	0.983241	-0.854238	-0.486871	0.182305	0.494960	-0.868915	-0.001291	0	0	0
57314	0	0	0	0	0	9.650410	1.791718	0.085246	0.002663	0.000724	-0.003867	-0.512451	-0.599609	0.201904	0.409535	0.641722	-0.298065	0.575875	90.408014	-79.494857	29.266436	0.159051	0.089133	0.983239	-0.854231	-0.486877	0.182319	0.494967	-0.868911	-0.001298	0	0	0
57315	0	0	0	0	0	9.644359	1.815042	0.091152	-0.000041	0.000207	-0.004313	-0.518066	-0.596436	0.200195	0.409550	0.641720	-0.298066	0.575865	90.407589	-79.493590	29.265280	0.159072	0.089140	0.983235	-0.854241	-0.486852	0.182341	0.494943	-0.868924	-0.001297	0	0	0
57316	0	0	0	0	0	9.682097	1.803071	0.077032	0.003537	0.001034	-0.006594	-0.521484	-0.595947	0.198242	0.409555	0.641731	-0.298048	0.575858	90.409461	-79.491227	29.264418	0.159109	0.089158	0.983227	-0.854225	-0.486863	0.182381	0.494958	-0.868916	-0.001303	0	0	0
57317	0	0	0	0	0	9.623105	1.813650	0.078921	0.007539	-0.002160	-0.003047	-0.520020	-0.601807	0.204346	0.409537	0.641750	-0.298037	0.575856	90.420394	-79.490865	29.256251	0.159127	0.089138	0.983226	-0.854199	-0.486907	0.182387	0.494997	-0.868894	-0.001338	0	0	0
57318	0	0	0	0	0	9.669979	1.849784	0.088422	0.008477	0.000659	-0.004817	-0.511475	-0.603027	0.197998	0.409521	0.641769	-0.298012	0.575859	90.426292	-79.489518	29.254174	0.159150	0.089144	0.983222	-0.854162	-0.486963	0.182410	0.495054	-0.868861	-0.001357	0	0	0
57319	0	0	0	0	0	9.642865	1.870672	0.081974	0.003046	-0.003092	-0.002353	-0.511230	-0.601318	0.198242	0.409516	0.641780	-0.298019	0.575847	90.437826	-79.489389	29.242390	0.159170	0.089112	0.983221	-0.854162	-0.486962	0.182412	0.495047	-0.868865	-0.001394	0	0	0
57320	0	0	0	0	0	9.648799	1.848003	0.075864	0.002194	-0.000686	-0.002982	-0.507080	-0.601318	0.205566	0.409513	0.641788	-0.298020	0.575840	90.444319	-79.489088	29.236045	0.159185	0.089097	0.983220	-0.854159	-0.486966	0.182417	0.495047	-0.868865	-0.001415	0	0	0
57321	0	0	0	0	0	9.664981	1.819839	0.102420	0.001748	0.000620	-0.005453	-0.506348	-0.604004	0.194336	0.409527	0.641791	-0.298012	0.575831	90.443874	-79.487104	29.235875	0.159215	0.089113	0.983214	-0.854159	-0.486953	0.182451	0.495038	-0.868870	-0.001413	0	0	0
57322	0	0	0	0	0	9.670904	1.797232	0.096559	0.001789	0.000414	-0.001140	-0.512939	-0.597412	0.205322	0.409521	0.641792	-0.298018	0.575831	90.446781	-79.487863	29.232942	0.159208	0.089099	0.983216	-0.854161	-0.486955	0.182438	0.495037	-0.868871	-0.001423	0	0	0
57323	0	0	0	0	0	9.643836	1.817856	0.090342	0.004493	0.000932	-0.000694	-0.514893	-0.595947	0.197021	0.409513	0.641792	-0.298018	0.575837	90.446829	-79.488633	29.233741	0.159195	0.089094	0.983219	-0.854156	-0.486969	0.182425	0.495050	-0.868863	-0.001423	0	0	0
57324	0	0	0	0	0	9.643790	1.818099	0.090357	-0.000041	0.000206	-0.004313	-0.511719	-0.599609	0.195068	0.409522	0.641794	-0.298019	0.575826	90.449254	-79.487572	29.230232	0.159217	0.089093	0.983215	-0.854162	-0.486952	0.182443	0.495033	-0.868873	-0.001431	0	0	0
57325	0	0	0	0	0	9.670780	1.797901	0.096541	0.004899	-0.000169	-0.002536	-0.513184	-0.596680	0.200928	0.409517	0.641800	-0.298015	0.575826	90.452412	-79.487392	29.228032	0.159223	0.089089	0.983215	-0.854153	-0.486966	0.182446	0.495046	-0.868865	-0.001441	0	0	0
57326	0	0	0	0	0	9.633383	1.824425	0.057860	0.003132	0.002133	-0.004752	-0.518066	-0.597412	0.203369	0.409520	0.641804	-0.298002	0.575826	90.450692	-79.486089	29.230587	0.159238	0.089107	0.983211	-0.854142	-0.486976	0.182469	0.495060	-0.868858	-0.001435	0	0	0
57327	0	0	0	0	0	9.654399	1.827090	0.070042	0.004494	0.000932	-0.000694	-0.516602	-0.598389	0.198486	0.409508	0.641806	-0.297999	0.575834	90.450824	-79.487008	29.231888	0.159222	0.089103	0.983214	-0.854133	-0.486999	0.182453	0.495081	-0.868845	-0.001436	0	0	0
57328	0	0	0	0	0	9.627307	1.847819	0.063826	0.005368	0.001241	-0.003420	-0.514404	-0.597412	0.195557	0.409499	0.641815	-0.297986	0.575838	90.453171	-79.486464	29.231610	0.159231	0.089107	0.983212	-0.854113	-0.487030	0.182462	0.495112	-0.868828	-0.001443	0	0	0
57329	0	0	0	0	0	9.658597	1.844865	0.108424	0.003579	0.000827	-0.002280	-0.511719	-0.596191	0.197998	0.409498	0.641815	-0.297984	0.575839	90.452546	-79.486466	29.232584	0.159230	0.089109	0.983212	-0.854110	-0.487035	0.182462	0.495118	-0.868825	-0.001441	0	0	0
57330	0	0	0	0	0	9.643471	1.819791	0.090402	0.002195	-0.000687	-0.002981	-0.516113	-0.601563	0.194824	0.409495	0.641822	-0.297985	0.575833	90.459036	-79.486164	29.226243	0.159244	0.089094	0.983211	-0.854107	-0.487038	0.182467	0.495118	-0.868824	-0.001462	0	0	0
57331	0	0	0	0	0	9.648202	1.851120	0.075797	0.001280	-0.000791	-0.004568	-0.516357	-0.593506	0.204102	0.409506	0.641826	-0.297986	0.575821	90.462025	-79.484810	29.222069	0.159271	0.089094	0.983207	-0.854113	-0.487019	0.182490	0.495099	-0.868835	-0.001472	0	0	0
57332	0	0	0	0	0	9.686044	1.838648	0.061474	0.005387	-0.001679	0.004249	-0.521240	-0.593262	0.199707	0.409470	0.641832	-0.298003	0.575830	90.473587	-79.488646	29.212428	0.159228	0.089035	0.983219	-0.854106	-0.487057	0.182424	0.495126	-0.868820	-0.001508	0	0	0
57333	0	0	0	0	0	9.643410	1.820137	0.089936	-0.000510	-0.001205	-0.003427	-0.507813	-0.603760	0.210205	0.409477	0.641834	-0.298009	0.575820	90.477306	-79.488085	29.207502	0.159244	0.089026	0.983217	-0.854114	-0.487039	0.182434	0.495106	-0.868831	-0.001520	0	0	0
57334	0	0	0	0	0	9.655336	1.774565	0.078209	-0.000446	0.001305	-0.002471	-0.515625	-0.593018	0.201416	0.409484	0.641829	-0.298015	0.575817	90.476144	-79.488085	29.207403	0.159244	0.089026	0.983217	-0.854125	-0.487020	0.182434	0.495087	-0.868842	-0.001516	0	0	0
57335	0	0	0	0	0	9.643322	1.820596	0.090020	0.001789	0.000414	-0.001140	-0.513184	-0.599609	0.209717	0.409480	0.641829	-0.298018	0.575818	90.476804	-79.488654	29.206810	0.159237	0.089019	0.983219	-0.854126	-0.487022	0.182424	0.495088	-0.868841	-0.001518	0	0	0
57336	0	0	0	0	0	9.664358	1.823167	0.102069	-0.002299	-0.001619	-0.002287	-0.512451	-0.596924	0.195557	0.409488	0.641829	-0.298037	0.575803	90.483613	-79.488745	29.197525	0.159250	0.088993	0.983219	-0.854146	-0.486987	0.182422	0.495049	-0.868864	-0.001540	0	0	0
57337	0	0	0	0	0	9.664332	1.823309	0.101952	-0.001384	-0.001514	-0.000701	-0.517090	-0.593750	0.202881	0.409492	0.641825	-0.298056	0.575794	90.488057	-79.489581	29.190946	0.159248	0.088967	0.983222	-0.854166	-0.486957	0.182408	0.495016	-0.868883	-0.001554	0	0	0
57338	0	0	0	0	0	9.643226	1.821122	0.089735	-0.003214	-0.001723	-0.003874	-0.517334	-0.594727	0.199219	0.409508	0.641826	-0.298072	0.575774	90.494624	-79.488762	29.181375	0.159275	0.088948	0.983219	-0.854188	-0.486913	0.182422	0.494968	-0.868910	-0.001575	0	0	0
57339	0	0	0	0	0	9.643175	1.821396	0.089624	0.000406	-0.001100	-0.001841	-0.513916	-0.590576	0.200195	0.409508	0.641827	-0.298081	0.575768	90.498522	-79.489074	29.176612	0.159277	0.088932	0.983220	-0.854196	-0.486902	0.182416	0.494954	-0.868918	-0.001587	0	0	0
57340	0	0	0	0	0	9.685277	1.826369	0.113895	-0.006261	0.001369	-0.001522	-0.513916	-0.599609	0.207520	0.409531	0.641809	-0.298107	0.575759	90.493856	-79.489618	29.176689	0.159269	0.088927	0.983222	-0.854237	-0.486833	0.182407	0.494886	-0.868957	-0.001572	0	0	0
57341	0	0	0	0	0	9.643078	1.821897	0.089887	-0.002277	0.001096	-0.005643	-0.520264	-0.598877	0.208008	0.409554	0.641804	-0.298105	0.575748	90.489707	-79.487691	29.178726	0.159295	0.088949	0.983216	-0.854250	-0.486797	0.182440	0.494855	-0.868974	-0.001559	0	0	0
57342	0	0	0	0	0	9.643049	1.822050	0.089894	0.000447	-0.001305	0.002471	-0.511719	-0.598633	0.199219	0.409540	0.641802	-0.298130	0.575748	90.497247	-79.490510	29.170297	0.159266	0.088902	0.983225	-0.854265	-0.486790	0.182392	0.494839	-0.868983	-0.001583	0	0	0
57343	0	0	0	0	0	9.633970	1.773789	0.066045	-0.000447	0.001305	-0.002471	-0.516846	-0.603760	0.199951	0.409550	0.641795	-0.298135	0.575746	90.493457	-79.490387	29.172681	0.159264	0.088910	0.983224	-0.854277	-0.486768	0.182394	0.494819	-0.868995	-0.001571	0	0	0
57344	0	0	0	0	0	9.676061	1.778822	0.090385	0.002258	0.001823	-0.002025	-0.512695	-0.593506	0.198486	0.409548	0.641794	-0.298134	0.575749	90.492255	-79.490645	29.174201	0.159258	0.088912	0.983225	-0.854275	-0.486773	0.182389	0.494824	-0.868992	-0.001567	0	0	0
57345	0	0	0	0	0	9.644179	1.768532	0.098794	0.007666	0.002860	-0.001133	-0.521729	-0.593994	0.201172	0.409532	0.641796	-0.298119	0.575766	90.487954	-79.491285	29.181437	0.159237	0.088927	0.983227	-0.854253	-0.486817	0.182378	0.494870	-0.868966	-0.001553	0	0	0
57346	0	0	0	0	0	9.653733	1.830610	0.069865	0.006283	0.001346	-0.001834	-0.511230	-0.600830	0.206543	0.409516	0.641804	-0.298108	0.575774	90.490538	-79.491650	29.181451	0.159231	0.088924	0.983228	-0.854231	-0.486857	0.182372	0.494909	-0.868944	-0.001561	0	0	0
57347	0	0	0	0	0	9.648903	1.799851	0.084450	0.009456	0.003273	-0.002272	-0.511963	-0.599365	0.196045	0.409496	0.641812	-0.298080	0.575795	90.486365	-79.491676	29.190136	0.159217	0.088948	0.983228	-0.854193	-0.486923	0.182372	0.494978	-0.868904	-0.001548	0	0	0
57348	0	0	0	0	0	9.653621	1.831207	0.069785	0.002539	-0.004298	-0.005778	-0.514160	-0.593994	0.189941	0.409494	0.641834	-0.298079	0.575771	90.504128	-79.489753	29.172530	0.159274	0.088915	0.983222	-0.854184	-0.486927	0.182404	0.494976	-0.868905	-0.001605	0	0	0
57349	0	0	0	0	0	9.653583	1.831412	0.069615	0.006792	0.002551	0.001594	-0.514404	-0.598389	0.210205	0.409475	0.641830	-0.298078	0.575790	90.499810	-79.491962	29.178863	0.159231	0.088914	0.983229	-0.854174	-0.486959	0.182367	0.495008	-0.868887	-0.001591	0	0	0
57350	0	0	0	0	0	9.657855	1.848771	0.107966	0.004900	-0.000169	-0.002534	-0.517578	-0.597412	0.198486	0.409463	0.641840	-0.298071	0.575790	90.506260	-79.491918	29.174139	0.159239	0.088901	0.983229	-0.854158	-0.486987	0.182367	0.495032	-0.868873	-0.001611	0	0	0
57351	0	0	0	0	0	9.674587	1.834142	0.081804	0.002727	0.003232	-0.002910	-0.514893	-0.596680	0.196777	0.409466	0.641835	-0.298061	0.575799	90.498401	-79.491561	29.182651	0.159231	0.088928	0.983228	-0.854153	-0.486994	0.182373	0.495044	-0.868866	-0.001586	0	0	0
57352	0	0	0	0	0	9.651754	1.872226	0.113923	0.008926	-0.000647	-0.002342	-0.512939	-0.597656	0.199219	0.409440	0.641856	-0.298045	0.575803	90.508637	-79.491625	29.176421	0.159239	0.088910	0.983228	-0.854117	-0.487056	0.182372	0.495102	-0.868833	-0.001619	0	0	0
57353	0	0	0	0	0	9.620379	1.875595	0.069228	0.001790	0.000413	-0.001140	-0.509033	-0.591064	0.198975	0.409440	0.641852	-0.298051	0.575804	90.508438	-79.492254	29.176071	0.159231	0.088904	0.983230	-0.854124	-0.487049	0.182361	0.495094	-0.868838	-0.001618	0	0	0
57354	0	0	0	0	0	9.652237	1.886013	0.060830	-0.000937	-0.002819	0.001770	-0.511230	-0.597656	0.198486	0.409430	0.641853	-0.298081	0.575795	90.519847	-79.494663	29.162901	0.159215	0.088847	0.983238	-0.854144	-0.487029	0.182320	0.495064	-0.868855	-0.001654	0	0	0
57355	0	0	0	0	0	9.647470	1.854954	0.075216	-0.007199	-0.001450	0.000247	-0.518066	-0.596680	0.201660	0.409450	0.641835	-0.298120	0.575780	90.520516	-79.496050	29.156751	0.159204	0.088818	0.983242	-0.854194	-0.486950	0.182296	0.494981	-0.868902	-0.001656	0	0	0
57356	0	0	0	0	0	9.675755	1.780510	0.089980	0.000853	-0.002405	0.000630	-0.516113	-0.598389	0.194824	0.409438	0.641840	-0.298140	0.575773	90.531648	-79.497807	29.144906	0.159196	0.088771	0.983248	-0.854204	-0.486945	0.182265	0.494967	-0.868910	-0.001691	0	0	0
57357	0	0	0	0	0	9.653002	1.818179	0.122011	-0.004900	0.000169	0.002534	-0.519287	-0.596680	0.199219	0.409449	0.641818	-0.298179	0.575770	90.528408	-79.500583	29.143744	0.159156	0.088744	0.983257	-0.854249	-0.486883	0.182218	0.494902	-0.868947	-0.001681	0	0	0
57358	0	0	0	0	0	9.642769	1.823557	0.089398	0.005793	-0.002778	0.002408	-0.514160	-0.598633	0.202881	0.409415	0.641830	-0.298191	0.575773	90.543581	-79.503356	29.130669	0.159135	0.088685	0.983266	-0.854237	-0.486922	0.182170	0.494930	-0.868931	-0.001728	0	0	0
57359	0	0	0	0	0	9.642797	1.823410	0.089272	0.001384	0.001514	0.000701	-0.508545	-0.593262	0.199951	0.409411	0.641821	-0.298201	0.575781	90.540022	-79.505075	29.133745	0.159104	0.088679	0.983271	-0.854246	-0.486917	0.182140	0.494923	-0.868935	-0.001717	0	0	0
57360	0	0	0	0	0	9.638527	1.806033	0.050867	0.000852	-0.002405	0.000631	-0.512207	-0.596191	0.201172	0.409400	0.641825	-0.298221	0.575774	90.551166	-79.506831	29.121888	0.159096	0.088631	0.983277	-0.854256	-0.486912	0.182110	0.494910	-0.868943	-0.001752	0	0	0
57361	0	0	0	0	0	9.686670	1.787863	0.069020	-0.000468	-0.001409	0.000885	-0.505859	-0.593994	0.200684	0.409396	0.641821	-0.298242	0.575771	90.555775	-79.508576	29.115792	0.159079	0.088600	0.983282	-0.854273	-0.486893	0.182080	0.494886	-0.868956	-0.001766	0	0	0
57362	0	0	0	0	0	9.666800	1.731623	0.065635	-0.001768	0.002300	-0.002217	-0.510010	-0.595459	0.198730	0.409408	0.641811	-0.298251	0.575769	90.550778	-79.508726	29.118824	0.159072	0.088607	0.983283	-0.854290	-0.486863	0.182077	0.494857	-0.868972	-0.001750	0	0	0
57363	0	0	0	0	0	9.649960	1.746835	0.092011	-0.000041	0.000203	-0.004312	-0.509766	-0.591553	0.199951	0.409420	0.641811	-0.298251	0.575760	90.550481	-79.507466	29.117884	0.159093	0.088615	0.983279	-0.854298	-0.486843	0.182099	0.494839	-0.868983	-0.001750	0	0	0
57364	0	0	0	0	0	9.649844	1.747474	0.092049	0.007117	0.001857	-0.008871	-0.520020	-0.594238	0.204834	0.409422	0.641830	-0.298214	0.575757	90.551748	-79.503802	29.119722	0.159145	0.088651	0.983267	-0.854261	-0.486884	0.182162	0.494885	-0.868957	-0.001754	0	0	0
57365	0	0	0	0	0	9.648531	1.801897	0.083369	0.007605	0.000349	-0.002087	-0.510010	-0.596680	0.207275	0.409402	0.641842	-0.298197	0.575767	90.555503	-79.503952	29.119526	0.159143	0.088649	0.983267	-0.854230	-0.486938	0.182159	0.494938	-0.868926	-0.001766	0	0	0
57366	0	0	0	0	0	9.674266	1.835870	0.081108	-0.000465	0.004220	-0.010139	-0.518066	-0.596680	0.205566	0.409435	0.641841	-0.298173	0.575757	90.545082	-79.499574	29.128833	0.159194	0.088711	0.983254	-0.854229	-0.486912	0.182235	0.494924	-0.868935	-0.001734	0	0	0
57367	0	0	0	0	0	9.653027	1.834350	0.069418	0.000450	0.004325	-0.008553	-0.503662	-0.594727	0.204834	0.409462	0.641838	-0.298147	0.575755	90.532642	-79.495970	29.140967	0.159229	0.088775	0.983242	-0.854224	-0.486898	0.182297	0.494922	-0.868935	-0.001695	0	0	0
57368	0	0	0	0	0	9.663671	1.843110	0.049383	-0.001808	0.002502	-0.006528	-0.513428	-0.592529	0.198730	0.409487	0.641833	-0.298142	0.575745	90.526878	-79.493652	29.144756	0.159258	0.088805	0.983235	-0.854235	-0.486864	0.182337	0.494894	-0.868952	-0.001677	0	0	0
57369	0	0	0	0	0	9.658770	1.812790	0.064301	0.000044	0.005426	-0.006712	-0.506592	-0.596191	0.204834	0.409512	0.641822	-0.298122	0.575749	90.510608	-79.491069	29.160387	0.159273	0.088870	0.983226	-0.854235	-0.486846	0.182382	0.494888	-0.868955	-0.001625	0	0	0
57370	0	0	0	0	0	9.656916	1.853608	0.109019	0.000959	0.005531	-0.005126	-0.506836	-0.599121	0.203613	0.409529	0.641813	-0.298107	0.575756	90.497119	-79.489569	29.173644	0.159275	0.088919	0.983222	-0.854235	-0.486837	0.182408	0.494888	-0.868955	-0.001583	0	0	0
57371	0	0	0	0	0	9.646523	1.859798	0.076996	0.001366	0.004430	-0.006966	-0.516357	-0.604004	0.202637	0.409550	0.641808	-0.298085	0.575757	90.484951	-79.486748	29.185756	0.159298	0.088977	0.983213	-0.854229	-0.486829	0.182456	0.494890	-0.868954	-0.001544	0	0	0
57372	0	0	0	0	0	9.641662	1.829270	0.091966	0.002788	0.005742	-0.001953	-0.511475	-0.595215	0.194092	0.409552	0.641797	-0.298074	0.575774	90.471950	-79.487065	29.199585	0.159272	0.089012	0.983214	-0.854225	-0.486838	0.182451	0.494906	-0.868945	-0.001503	0	0	0
57373	0	0	0	0	0	9.635558	1.852648	0.098274	-0.001338	0.003911	-0.007412	-0.514160	-0.596191	0.206787	0.409586	0.641786	-0.298063	0.575768	90.458996	-79.484087	29.210193	0.159300	0.089067	0.983204	-0.854238	-0.486795	0.182503	0.494874	-0.868963	-0.001462	0	0	0
57374	0	0	0	0	0	9.662546	1.832590	0.104796	0.004963	0.002342	-0.001577	-0.513916	-0.591797	0.208984	0.409575	0.641788	-0.298055	0.575777	90.457747	-79.484604	29.213335	0.159287	0.089071	0.983206	-0.854224	-0.486824	0.182494	0.494903	-0.868947	-0.001458	0	0	0
57375	0	0	0	0	0	9.646211	1.861357	0.078365	0.000022	0.002712	-0.003356	-0.511475	-0.601563	0.200928	0.409583	0.641782	-0.298049	0.575782	90.450377	-79.484008	29.220466	0.159285	0.089096	0.983204	-0.854225	-0.486817	0.182504	0.494901	-0.868948	-0.001435	0	0	0
57376	0	0	0	0	0	9.641381	1.830688	0.093206	0.001405	0.004227	-0.002654	-0.515869	-0.604736	0.199707	0.409589	0.641773	-0.298043	0.575790	90.441244	-79.483915	29.229554	0.159272	0.089122	0.983204	-0.854227	-0.486814	0.182506	0.494903	-0.868947	-0.001406	0	0	0
57377	0	0	0	0	0	9.656378	1.856262	0.111490	0.000937	0.002818	-0.001769	-0.505615	-0.594727	0.205078	0.409599	0.641762	-0.298046	0.575794	90.433271	-79.484109	29.236301	0.159259	0.089139	0.983204	-0.854239	-0.486794	0.182503	0.494886	-0.868957	-0.001380	0	0	0
57378	0	0	0	0	0	9.657589	1.802549	0.120410	0.000937	0.002818	-0.001769	-0.512451	-0.603027	0.203125	0.409602	0.641755	-0.298048	0.575799	90.428239	-79.484517	29.240945	0.159246	0.089149	0.983206	-0.854244	-0.486788	0.182496	0.494882	-0.868959	-0.001364	0	0	0
57379	0	0	0	0	0	9.653314	1.785357	0.082144	0.005816	-0.000063	-0.000946	-0.514893	-0.599609	0.205322	0.409585	0.641763	-0.298042	0.575805	90.432541	-79.485146	29.238798	0.159240	0.089138	0.983208	-0.854227	-0.486822	0.182485	0.494913	-0.868941	-0.001378	0	0	0
57380	0	0	0	0	0	9.668291	1.811041	0.100192	0.003603	0.003539	-0.005633	-0.513184	-0.590332	0.195801	0.409592	0.641765	-0.298022	0.575808	90.426721	-79.483344	29.245796	0.159256	0.089172	0.983202	-0.854213	-0.486835	0.182516	0.494933	-0.868930	-0.001359	0	0	0
57381	0	0	0	0	0	9.647166	1.808955	0.088285	0.004963	0.002342	-0.001576	-0.520020	-0.597168	0.207520	0.409583	0.641765	-0.298012	0.575820	90.422602	-79.483766	29.251711	0.159240	0.089185	0.983203	-0.854199	-0.486862	0.182509	0.494961	-0.868914	-0.001346	0	0	0
57382	0	0	0	0	0	9.683697	1.850821	0.065770	-0.001337	0.003909	-0.007412	-0.518555	-0.602783	0.197510	0.409611	0.641758	-0.298000	0.575814	90.412773	-79.480945	29.259909	0.159270	0.089231	0.983194	-0.854206	-0.486830	0.182558	0.494939	-0.868927	-0.001315	0	0	0
57383	0	0	0	0	0	9.662006	1.835315	0.106849	-0.005386	0.001673	-0.004250	-0.510254	-0.598877	0.200439	0.409643	0.641742	-0.298014	0.575802	90.404714	-79.479846	29.263545	0.159280	0.089251	0.983191	-0.854242	-0.486761	0.182577	0.494874	-0.868964	-0.001290	0	0	0
57384	0	0	0	0	0	9.625830	1.807970	0.077032	-0.003596	0.002086	-0.005389	-0.518555	-0.596680	0.204834	0.409670	0.641733	-0.298018	0.575790	90.399264	-79.478177	29.265973	0.159302	0.089272	0.983185	-0.854264	-0.486712	0.182606	0.494829	-0.868989	-0.001273	0	0	0
57385	0	0	0	0	0	9.640756	1.833877	0.095145	-0.000952	0.000096	-0.005897	-0.509766	-0.596191	0.203125	0.409689	0.641734	-0.298016	0.575777	90.398774	-79.476078	29.264716	0.159335	0.089286	0.983179	-0.854273	-0.486682	0.182642	0.494803	-0.869004	-0.001271	0	0	0
57386	0	0	0	0	0	9.644897	1.851716	0.133508	-0.002742	-0.000318	-0.004758	-0.514404	-0.592285	0.204590	0.409708	0.641733	-0.298025	0.575760	90.401243	-79.474761	29.259587	0.159363	0.089282	0.983175	-0.854292	-0.486641	0.182664	0.494762	-0.869028	-0.001279	0	0	0
57387	0	0	0	0	0	9.661652	1.837156	0.107296	-0.003618	-0.000626	-0.002033	-0.514404	-0.591064	0.196045	0.409721	0.641725	-0.298042	0.575750	90.401762	-79.474881	29.256189	0.159366	0.089272	0.983175	-0.854316	-0.486599	0.182662	0.494718	-0.869053	-0.001281	0	0	0
57388	0	0	0	0	0	9.630244	1.840765	0.062714	-0.001866	-0.000011	-0.007482	-0.515381	-0.600830	0.199951	0.409746	0.641729	-0.298039	0.575730	90.403723	-79.472004	29.252087	0.159416	0.089285	0.983166	-0.854326	-0.486563	0.182711	0.494685	-0.869071	-0.001287	0	0	0
57389	0	0	0	0	0	9.672275	1.846067	0.086900	-0.004087	-0.002035	-0.001149	-0.512939	-0.601074	0.206299	0.409760	0.641721	-0.298067	0.575714	90.407627	-79.472658	29.244245	0.159418	0.089257	0.983168	-0.854361	-0.486506	0.182700	0.494624	-0.869106	-0.001300	0	0	0
57390	0	0	0	0	0	9.646429	1.812833	0.089308	-0.000446	0.001303	-0.002470	-0.513672	-0.595947	0.203369	0.409767	0.641717	-0.298073	0.575711	90.406460	-79.472658	29.244152	0.159418	0.089257	0.983168	-0.854372	-0.486487	0.182700	0.494606	-0.869117	-0.001296	0	0	0
57391	0	0	0	0	0	9.646388	1.813053	0.089258	0.001729	-0.002096	-0.002094	-0.514648	-0.596191	0.203369	0.409763	0.641724	-0.298079	0.575703	90.414602	-79.472697	29.235844	0.159431	0.089234	0.983168	-0.854372	-0.486487	0.182699	0.494601	-0.869119	-0.001322	0	0	0
57392	0	0	0	0	0	9.661394	1.838528	0.106991	0.005348	-0.001470	-0.000061	-0.511230	-0.593262	0.204834	0.409740	0.641736	-0.298082	0.575704	90.425359	-79.474065	29.226999	0.159424	0.089198	0.983172	-0.854358	-0.486520	0.182676	0.494627	-0.869104	-0.001356	0	0	0
57393	0	0	0	0	0	9.678183	1.823810	0.080531	0.003519	-0.001683	-0.003233	-0.514160	-0.594238	0.203857	0.409733	0.641748	-0.298077	0.575698	90.433184	-79.473501	29.220310	0.159443	0.089184	0.983171	-0.854346	-0.486538	0.182685	0.494642	-0.869095	-0.001381	0	0	0
57394	0	0	0	0	0	9.667354	1.816010	0.100674	0.004434	-0.001576	-0.001647	-0.516602	-0.602783	0.202393	0.409717	0.641761	-0.298078	0.575695	90.443710	-79.473960	29.211168	0.159450	0.089154	0.983172	-0.854334	-0.486562	0.182677	0.494661	-0.869085	-0.001415	0	0	0
57395	0	0	0	0	0	9.657081	1.821632	0.067947	0.003558	-0.001884	0.001078	-0.515381	-0.601318	0.197266	0.409700	0.641766	-0.298090	0.575696	90.452052	-79.475853	29.203529	0.159434	0.089117	0.983178	-0.854332	-0.486578	0.182644	0.494669	-0.869080	-0.001441	0	0	0
57396	0	0	0	0	0	9.667368	1.815961	0.100186	0.000854	-0.002404	0.000631	-0.517090	-0.597656	0.209229	0.409688	0.641770	-0.298110	0.575689	90.463139	-79.477613	29.191730	0.159426	0.089070	0.983184	-0.854341	-0.486573	0.182614	0.494656	-0.869088	-0.001476	0	0	0
57397	0	0	0	0	0	9.640236	1.836676	0.093875	-0.002274	0.001090	-0.005642	-0.519287	-0.596436	0.201172	0.409713	0.641764	-0.298111	0.575677	90.458771	-79.475670	29.193538	0.159452	0.089091	0.983177	-0.854358	-0.486530	0.182647	0.494618	-0.869109	-0.001462	0	0	0
57398	0	0	0	0	0	9.672044	1.847342	0.085499	0.003090	-0.003293	0.001962	-0.511963	-0.592285	0.196289	0.409689	0.641774	-0.298131	0.575673	90.473915	-79.478187	29.178916	0.159437	0.089029	0.983185	-0.854359	-0.486546	0.182604	0.494622	-0.869107	-0.001510	0	0	0
57399	0	0	0	0	0	9.640216	1.836791	0.093698	-0.000854	0.002404	-0.000631	-0.509766	-0.600342	0.197998	0.409697	0.641759	-0.298141	0.575679	90.466026	-79.479190	29.185134	0.159412	0.089038	0.983189	-0.854377	-0.486521	0.182587	0.494599	-0.869120	-0.001485	0	0	0
57400	0	0	0	0	0	9.640187	1.836943	0.093705	-0.000975	-0.002617	-0.002541	-0.516113	-0.593750	0.198242	0.409700	0.641765	-0.298157	0.575662	90.476644	-79.479131	29.172746	0.159432	0.089004	0.983188	-0.854390	-0.486497	0.182587	0.494569	-0.869137	-0.001519	0	0	0
57401	0	0	0	0	0	9.646179	1.814239	0.087738	-0.003618	-0.000627	-0.002033	-0.517090	-0.591553	0.199463	0.409718	0.641755	-0.298178	0.575649	90.476489	-79.479231	29.169190	0.159436	0.088994	0.983189	-0.854422	-0.486442	0.182586	0.494513	-0.869169	-0.001518	0	0	0
57402	0	0	0	0	0	9.662970	1.799501	0.061394	-0.000060	-0.002510	-0.000955	-0.516846	-0.607422	0.202637	0.409714	0.641760	-0.298196	0.575637	90.487344	-79.480080	29.157094	0.159442	0.088953	0.983191	-0.854433	-0.486427	0.182571	0.494491	-0.869181	-0.001553	0	0	0
57403	0	0	0	0	0	9.662962	1.799551	0.061154	0.005348	-0.001470	-0.000061	-0.509277	-0.603271	0.192383	0.409696	0.641768	-0.298199	0.575639	90.495136	-79.481336	29.150760	0.159433	0.088925	0.983195	-0.854423	-0.486453	0.182549	0.494511	-0.869170	-0.001578	0	0	0
57404	0	0	0	0	0	9.631140	1.788969	0.069297	0.003618	0.000627	0.002033	-0.508057	-0.592529	0.201172	0.409676	0.641767	-0.298210	0.575649	90.498502	-79.483912	29.148424	0.159398	0.088897	0.983204	-0.854421	-0.486473	0.182505	0.494526	-0.869161	-0.001588	0	0	0
57405	0	0	0	0	0	9.671980	1.847720	0.084540	0.006609	-0.004976	-0.001270	-0.511963	-0.593506	0.204590	0.409654	0.641789	-0.298214	0.575638	90.517652	-79.484343	29.130989	0.159419	0.088844	0.983205	-0.854405	-0.486504	0.182497	0.494547	-0.869149	-0.001649	0	0	0
57406	0	0	0	0	0	9.661114	1.840131	0.104695	0.001306	0.001917	-0.007919	-0.503662	-0.595947	0.201416	0.409672	0.641794	-0.298196	0.575628	90.515438	-79.481224	29.132981	0.159463	0.088876	0.983195	-0.854399	-0.486496	0.182550	0.494544	-0.869151	-0.001642	0	0	0
57407	0	0	0	0	0	9.640002	1.837964	0.092663	0.003618	0.000627	0.002033	-0.513428	-0.595459	0.202148	0.409654	0.641792	-0.298203	0.575640	90.516389	-79.483597	29.133234	0.159427	0.088857	0.983203	-0.854395	-0.486517	0.182510	0.494562	-0.869141	-0.001645	0	0	0
57408	0	0	0	0	0	9.661064	1.840390	0.104713	0.003112	-0.000582	-0.001392	-0.512695	-0.598877	0.197021	0.409643	0.641799	-0.298207	0.575638	90.523102	-79.484204	29.127198	0.159427	0.088835	0.983205	-0.854390	-0.486530	0.182499	0.494571	-0.869136	-0.001666	0	0	0
57409	0	0	0	0	0	9.667083	1.817568	0.098569	0.007992	-0.003461	-0.000568	-0.519775	-0.594727	0.210693	0.409615	0.641819	-0.298204	0.575637	90.538526	-79.485127	29.114693	0.159433	0.088793	0.983208	-0.854366	-0.486579	0.182483	0.494611	-0.869113	-0.001715	0	0	0
57410	0	0	0	0	0	9.656785	1.823281	0.065726	0.001730	-0.002097	-0.002093	-0.510498	-0.590820	0.199463	0.409609	0.641828	-0.298213	0.575627	90.549107	-79.485324	29.103919	0.159446	0.088761	0.983208	-0.854366	-0.486579	0.182479	0.494606	-0.869116	-0.001749	0	0	0
57411	0	0	0	0	0	9.662788	1.800539	0.059582	-0.001443	-0.004026	-0.001656	-0.517090	-0.598389	0.200195	0.409608	0.641835	-0.298231	0.575610	90.561393	-79.485710	29.090060	0.159462	0.088719	0.983209	-0.854379	-0.486560	0.182472	0.494579	-0.869131	-0.001788	0	0	0
57412	0	0	0	0	0	9.641176	1.784762	0.100048	0.005310	-0.001270	-0.004370	-0.512695	-0.597656	0.191650	0.409598	0.641853	-0.298220	0.575604	90.571402	-79.484606	29.081953	0.159491	0.088706	0.983206	-0.854359	-0.486589	0.182491	0.494605	-0.869116	-0.001820	0	0	0
57413	0	0	0	0	0	9.678988	1.772669	0.085771	0.004902	-0.000168	-0.002531	-0.511230	-0.603760	0.199951	0.409593	0.641858	-0.298216	0.575603	90.574350	-79.484447	29.079853	0.159497	0.088701	0.983205	-0.854350	-0.486602	0.182493	0.494617	-0.869109	-0.001829	0	0	0
57414	0	0	0	0	0	9.660834	1.841687	0.103198	0.004902	-0.000168	-0.002531	-0.507080	-0.604736	0.198730	0.409581	0.641869	-0.298210	0.575603	90.580780	-79.484403	29.075149	0.159505	0.088689	0.983205	-0.854335	-0.486629	0.182494	0.494642	-0.869095	-0.001850	0	0	0
57415	0	0	0	0	0	9.654743	1.864905	0.108813	0.004842	-0.002679	-0.003485	-0.516113	-0.594238	0.191895	0.409577	0.641884	-0.298208	0.575590	90.591920	-79.483485	29.064474	0.159535	0.088667	0.983202	-0.854327	-0.486638	0.182509	0.494646	-0.869093	-0.001886	0	0	0
57416	0	0	0	0	0	9.645689	1.816977	0.084859	-0.000038	0.000200	-0.004310	-0.524170	-0.591064	0.209473	0.409586	0.641886	-0.298210	0.575580	90.594325	-79.482424	29.060984	0.159556	0.088666	0.983199	-0.854333	-0.486620	0.182527	0.494629	-0.869102	-0.001893	0	0	0
57417	0	0	0	0	0	9.666710	1.819639	0.096915	0.004027	-0.000475	0.000193	-0.508301	-0.591064	0.202637	0.409569	0.641889	-0.298213	0.575587	90.598185	-79.483990	29.058450	0.159537	0.088646	0.983204	-0.854325	-0.486644	0.182500	0.494648	-0.869091	-0.001905	0	0	0
57418	0	0	0	0	0	9.666687	1.819769	0.096743	0.006225	-0.001164	-0.002784	-0.513916	-0.590820	0.199707	0.409552	0.641906	-0.298205	0.575585	90.608435	-79.483794	29.050631	0.159552	0.088625	0.983203	-0.854303	-0.486682	0.182503	0.494682	-0.869072	-0.001938	0	0	0
57419	0	0	0	0	0	9.672665	1.797188	0.090556	0.003460	-0.004195	-0.004185	-0.513916	-0.600586	0.203857	0.409544	0.641926	-0.298202	0.575570	90.623687	-79.482689	29.036380	0.159590	0.088595	0.983200	-0.854289	-0.486699	0.182522	0.494693	-0.869065	-0.001987	0	0	0
57420	0	0	0	0	0	9.651540	1.795094	0.078229	0.005370	0.001240	-0.003415	-0.518311	-0.598633	0.204590	0.409535	0.641935	-0.298188	0.575573	90.626007	-79.482146	29.036130	0.159599	0.088599	0.983198	-0.854269	-0.486730	0.182531	0.494724	-0.869048	-0.001994	0	0	0
57421	0	0	0	0	0	9.656214	1.826384	0.063523	0.004843	-0.002680	-0.003484	-0.515869	-0.590332	0.195313	0.409525	0.641952	-0.298183	0.575564	90.637453	-79.481408	29.026042	0.159626	0.088577	0.983196	-0.854254	-0.486752	0.182543	0.494742	-0.869038	-0.002031	0	0	0
57422	0	0	0	0	0	9.630332	1.793459	0.065506	0.008363	-0.004364	-0.006715	-0.510010	-0.594971	0.207275	0.409507	0.641988	-0.298162	0.575547	90.658662	-79.478939	29.008324	0.159690	0.088548	0.983188	-0.854215	-0.486806	0.182585	0.494789	-0.869011	-0.002099	0	0	0
57423	0	0	0	0	0	9.666357	1.821611	0.095079	0.004882	-0.002879	0.000826	-0.510742	-0.599365	0.207031	0.409483	0.642000	-0.298170	0.575548	90.670743	-79.480719	28.997943	0.159679	0.088504	0.983194	-0.854204	-0.486837	0.182554	0.494812	-0.868998	-0.002137	0	0	0
57424	0	0	0	0	0	9.672360	1.798912	0.088896	0.011128	-0.001333	-0.005313	-0.511230	-0.594482	0.204102	0.409457	0.642031	-0.298139	0.575547	90.684228	-79.479071	28.989692	0.159717	0.088495	0.983188	-0.854153	-0.486916	0.182582	0.494888	-0.868954	-0.002180	0	0	0
57425	0	0	0	0	0	9.645151	1.819949	0.082359	0.008891	-0.000446	-0.006645	-0.518311	-0.598389	0.209229	0.409445	0.642055	-0.298106	0.575546	90.691292	-79.476483	28.986778	0.159760	0.088508	0.983180	-0.854109	-0.486976	0.182626	0.494949	-0.868919	-0.002204	0	0	0
57426	0	0	0	0	0	9.645053	1.820478	0.082088	0.009338	-0.001747	-0.004174	-0.516357	-0.587402	0.203369	0.409421	0.642082	-0.298085	0.575544	90.705064	-79.475485	28.977192	0.159790	0.088490	0.983177	-0.854069	-0.487040	0.182642	0.495009	-0.868885	-0.002248	0	0	0
57427	0	0	0	0	0	9.661785	1.806038	0.055658	0.005779	0.000136	-0.005253	-0.511963	-0.594727	0.207275	0.409413	0.642097	-0.298062	0.575545	90.708472	-79.473867	28.976589	0.159815	0.088502	0.983172	-0.854040	-0.487080	0.182670	0.495050	-0.868861	-0.002259	0	0	0
57428	0	0	0	0	0	9.638830	1.844353	0.087542	0.002607	-0.001793	-0.004815	-0.509033	-0.598633	0.201416	0.409412	0.642111	-0.298058	0.575531	90.718500	-79.472501	28.966888	0.159851	0.088486	0.983167	-0.854032	-0.487086	0.182693	0.495052	-0.868860	-0.002291	0	0	0
57429	0	0	0	0	0	9.628431	1.850468	0.055023	0.006715	0.002953	-0.007023	-0.514404	-0.595459	0.202637	0.409414	0.642122	-0.298023	0.575536	90.713660	-79.469717	28.974666	0.159880	0.088531	0.983158	-0.854000	-0.487124	0.182741	0.495098	-0.868834	-0.002276	0	0	0
57430	0	0	0	0	0	9.676020	1.819459	0.126185	0.004844	-0.002681	-0.003482	-0.517334	-0.603516	0.196045	0.409401	0.642141	-0.298020	0.575526	90.727753	-79.469108	28.962134	0.159909	0.088501	0.983157	-0.853983	-0.487150	0.182751	0.495118	-0.868823	-0.002321	0	0	0
57431	0	0	0	0	0	9.644590	1.822960	0.081375	0.003075	-0.000385	-0.005700	-0.509521	-0.600342	0.206055	0.409410	0.642149	-0.298011	0.575516	90.730406	-79.467122	28.959394	0.159943	0.088510	0.983150	-0.853978	-0.487146	0.182785	0.495116	-0.868824	-0.002330	0	0	0
57432	0	0	0	0	0	9.676334	1.833911	0.073049	0.005371	0.001239	-0.003414	-0.516602	-0.593262	0.198242	0.409401	0.642158	-0.297997	0.575519	90.732722	-79.466580	28.959148	0.159952	0.088514	0.983148	-0.853958	-0.487177	0.182794	0.495147	-0.868806	-0.002338	0	0	0
57433	0	0	0	0	0	9.644425	1.823838	0.081244	0.007103	-0.000860	-0.005505	-0.510010	-0.594238	0.204346	0.409393	0.642176	-0.297975	0.575515	90.739573	-79.464688	28.955021	0.159986	0.088518	0.983142	-0.853929	-0.487216	0.182826	0.495186	-0.868784	-0.002360	0	0	0
57434	0	0	0	0	0	9.676168	1.834795	0.072797	0.006694	0.000243	-0.003667	-0.515137	-0.588623	0.200684	0.409379	0.642192	-0.297960	0.575516	90.745703	-79.463994	28.951667	0.160002	0.088514	0.983140	-0.853903	-0.487258	0.182838	0.495227	-0.868760	-0.002380	0	0	0
57435	0	0	0	0	0	9.665306	1.827276	0.093155	0.003543	0.001022	-0.006585	-0.516846	-0.601807	0.206299	0.409385	0.642200	-0.297938	0.575513	90.744769	-79.461565	28.953889	0.160035	0.088541	0.983132	-0.853885	-0.487273	0.182880	0.495246	-0.868749	-0.002377	0	0	0
57436	0	0	0	0	0	9.633857	1.830842	0.048472	0.005313	-0.001273	-0.004366	-0.511230	-0.600098	0.202637	0.409375	0.642218	-0.297927	0.575506	90.754747	-79.460459	28.945816	0.160064	0.088527	0.983129	-0.853864	-0.487303	0.182898	0.495273	-0.868734	-0.002409	0	0	0
57437	0	0	0	0	0	9.659537	1.864745	0.045838	0.005780	0.000135	-0.005252	-0.504639	-0.595947	0.197510	0.409373	0.642231	-0.297909	0.575503	90.757936	-79.458672	28.944494	0.160093	0.088538	0.983123	-0.853843	-0.487328	0.182929	0.495300	-0.868719	-0.002420	0	0	0
57438	0	0	0	0	0	9.631869	1.872034	0.092336	0.002199	-0.000691	-0.002976	-0.507813	-0.591553	0.199463	0.409370	0.642238	-0.297910	0.575496	90.764391	-79.458367	28.938190	0.160107	0.088523	0.983122	-0.853840	-0.487332	0.182934	0.495301	-0.868718	-0.002441	0	0	0
57439	0	0	0	0	0	9.654680	1.834588	0.060210	-0.001420	-0.001321	-0.005008	-0.511963	-0.596191	0.202881	0.409388	0.642240	-0.297915	0.575479	90.767631	-79.456687	28.932651	0.160141	0.088522	0.983117	-0.853854	-0.487296	0.182962	0.495265	-0.868738	-0.002451	0	0	0
57440	0	0	0	0	0	9.658821	1.852474	0.098415	-0.001420	-0.001321	-0.005008	-0.511230	-0.598145	0.199951	0.409401	0.642245	-0.297922	0.575460	90.773864	-79.455211	28.924463	0.160176	0.088511	0.983112	-0.853866	-0.487266	0.182987	0.495234	-0.868756	-0.002472	0	0	0
57441	0	0	0	0	0	9.643753	1.827424	0.080457	0.000876	0.000304	-0.002723	-0.513184	-0.598145	0.202637	0.409408	0.642243	-0.297925	0.575456	90.773608	-79.454895	28.923815	0.160182	0.088512	0.983111	-0.853873	-0.487252	0.182993	0.495220	-0.868764	-0.002471	0	0	0
57442	0	0	0	0	0	9.670808	1.807340	0.086757	-0.000038	0.000196	-0.004308	-0.513428	-0.597168	0.202637	0.409417	0.642245	-0.297927	0.575446	90.775992	-79.453832	28.920347	0.160203	0.088511	0.983108	-0.853879	-0.487235	0.183011	0.495203	-0.868774	-0.002479	0	0	0
57443	0	0	0	0	0	9.616504	1.848526	0.074207	0.000876	0.000304	-0.002723	-0.508545	-0.593750	0.204834	0.409423	0.642244	-0.297929	0.575442	90.775803	-79.453538	28.919715	0.160208	0.088512	0.983107	-0.853885	-0.487222	0.183016	0.495191	-0.868781	-0.002478	0	0	0
57444	0	0	0	0	0	9.681445	1.816036	0.066518	-0.005389	0.001665	-0.004251	-0.514648	-0.590088	0.207275	0.409451	0.642231	-0.297944	0.575429	90.770603	-79.452520	28.920843	0.160222	0.088523	0.983104	-0.853918	-0.487159	0.183034	0.495130	-0.868815	-0.002462	0	0	0
57445	0	0	0	0	0	9.666407	1.790850	0.048671	-0.001381	-0.001517	-0.000700	-0.506348	-0.598633	0.203369	0.409451	0.642230	-0.297959	0.575423	90.775286	-79.453418	28.914804	0.160218	0.088499	0.983106	-0.853931	-0.487141	0.183018	0.495108	-0.868828	-0.002477	0	0	0
57446	0	0	0	0	0	9.649554	1.805883	0.074886	0.002258	0.001821	-0.002023	-0.509766	-0.588623	0.198486	0.409449	0.642229	-0.297958	0.575426	90.774078	-79.453677	28.916327	0.160211	0.088501	0.983107	-0.853929	-0.487146	0.183014	0.495113	-0.868825	-0.002473	0	0	0
57447	0	0	0	0	0	9.649484	1.806252	0.075027	-0.002275	0.001082	-0.005641	-0.512939	-0.603760	0.209473	0.409473	0.642223	-0.297958	0.575415	90.769597	-79.451686	28.918401	0.160238	0.088523	0.983101	-0.853945	-0.487106	0.183048	0.495078	-0.868845	-0.002459	0	0	0
57448	0	0	0	0	0	9.643332	1.829615	0.081105	-0.004007	0.003181	-0.003550	-0.510742	-0.603760	0.202393	0.409498	0.642208	-0.297967	0.575410	90.760553	-79.451081	28.924245	0.160238	0.088545	0.983099	-0.853971	-0.487055	0.183059	0.495032	-0.868871	-0.002430	0	0	0
57449	0	0	0	0	0	9.638538	1.799179	0.095886	0.000839	0.000500	-0.007031	-0.509277	-0.593994	0.204590	0.409518	0.642212	-0.297956	0.575396	90.759900	-79.448202	28.923868	0.160282	0.088568	0.983090	-0.853972	-0.487035	0.183108	0.495016	-0.868880	-0.002429	0	0	0
57450	0	0	0	0	0	9.653401	1.825263	0.113837	0.003544	0.001022	-0.006583	-0.508057	-0.600830	0.206055	0.409523	0.642223	-0.297939	0.575390	90.761700	-79.445843	28.923081	0.160319	0.088585	0.983082	-0.853957	-0.487047	0.183149	0.495031	-0.868872	-0.002435	0	0	0
57451	0	0	0	0	0	9.653765	1.839368	0.060984	0.004458	0.001131	-0.004998	-0.506104	-0.592041	0.201660	0.409524	0.642231	-0.297920	0.575390	90.761359	-79.444175	28.925002	0.160341	0.088604	0.983077	-0.853939	-0.487067	0.183177	0.495055	-0.868858	-0.002434	0	0	0
57452	0	0	0	0	0	9.651831	1.880124	0.105128	0.002667	0.000717	-0.003860	-0.511475	-0.600342	0.202148	0.409524	0.642237	-0.297914	0.575386	90.763704	-79.443373	28.923150	0.160356	0.088606	0.983074	-0.853932	-0.487074	0.183191	0.495062	-0.868854	-0.002442	0	0	0
57453	0	0	0	0	0	9.642832	1.832237	0.081363	0.003077	-0.000387	-0.005698	-0.505371	-0.592529	0.202393	0.409530	0.642246	-0.297902	0.575377	90.766834	-79.441320	28.920484	0.160391	0.088615	0.983068	-0.853922	-0.487079	0.183226	0.495068	-0.868851	-0.002452	0	0	0
57454	0	0	0	0	0	9.642744	1.832697	0.081510	0.003192	0.004637	-0.003793	-0.513428	-0.603027	0.199219	0.409534	0.642242	-0.297887	0.575387	90.757434	-79.440587	28.930886	0.160386	0.088650	0.983065	-0.853913	-0.487090	0.183239	0.495086	-0.868841	-0.002423	0	0	0
57455	0	0	0	0	0	9.652967	1.827537	0.114208	0.005372	0.001239	-0.003412	-0.514160	-0.596436	0.205811	0.409530	0.642247	-0.297874	0.575391	90.756817	-79.439847	28.933116	0.160393	0.088663	0.983063	-0.853897	-0.487113	0.183252	0.495110	-0.868827	-0.002421	0	0	0
57456	0	0	0	0	0	9.626233	1.861866	0.055056	0.007163	0.001652	-0.004549	-0.505859	-0.593994	0.198486	0.409519	0.642261	-0.297851	0.575396	90.758836	-79.438657	28.934216	0.160409	0.088676	0.983059	-0.853867	-0.487158	0.183272	0.495157	-0.868800	-0.002427	0	0	0
57457	0	0	0	0	0	9.598562	1.869096	0.101669	0.000877	0.000304	-0.002722	-0.506592	-0.599121	0.210938	0.409524	0.642260	-0.297853	0.575392	90.758690	-79.438352	28.933712	0.160415	0.088677	0.983058	-0.853871	-0.487148	0.183277	0.495147	-0.868806	-0.002427	0	0	0
57458	0	0	0	0	0	9.657933	1.873007	0.046858	-0.000447	0.001299	-0.002470	-0.503906	-0.592285	0.205322	0.409531	0.642255	-0.297859	0.575389	90.757519	-79.438351	28.933622	0.160415	0.088677	0.983058	-0.853882	-0.487129	0.183277	0.495128	-0.868816	-0.002423	0	0	0
57459	0	0	0	0	0	9.647145	1.865112	0.067377	-0.004028	0.000473	-0.000196	-0.509766	-0.601807	0.199463	0.409542	0.642242	-0.297879	0.575385	90.754942	-79.439393	28.933310	0.160400	0.088667	0.983062	-0.853910	-0.487087	0.183260	0.495085	-0.868841	-0.002415	0	0	0
57460	0	0	0	0	0	9.684572	1.839171	0.106220	-0.004495	-0.000935	0.000690	-0.517334	-0.598633	0.203857	0.409550	0.642231	-0.297912	0.575375	90.758445	-79.441185	28.926105	0.160384	0.088632	0.983067	-0.853946	-0.487035	0.183229	0.495028	-0.868873	-0.002426	0	0	0
57461	0	0	0	0	0	9.659303	1.819264	0.055748	-0.004086	-0.002039	-0.001148	-0.511963	-0.596924	0.201660	0.409565	0.642223	-0.297941	0.575358	90.762481	-79.441756	28.917948	0.160388	0.088604	0.983069	-0.853982	-0.486976	0.183219	0.494965	-0.868910	-0.002438	0	0	0
57462	0	0	0	0	0	9.648536	1.811255	0.076258	-0.003971	0.002985	0.000757	-0.511475	-0.592773	0.203857	0.409577	0.642202	-0.297964	0.575362	90.754240	-79.443616	28.922996	0.160352	0.088603	0.983075	-0.854016	-0.486929	0.183187	0.494919	-0.868936	-0.002412	0	0	0
57463	0	0	0	0	0	9.638200	1.817000	0.044018	-0.002274	0.001081	-0.005640	-0.507324	-0.597168	0.198730	0.409600	0.642197	-0.297964	0.575351	90.749784	-79.441681	28.925132	0.160378	0.088625	0.983069	-0.854031	-0.486890	0.183221	0.494884	-0.868955	-0.002398	0	0	0
57464	0	0	0	0	0	9.638124	1.817399	0.044216	-0.004475	0.001771	-0.002665	-0.509033	-0.595459	0.200684	0.409622	0.642183	-0.297980	0.575343	90.744845	-79.441571	28.926528	0.160377	0.088630	0.983069	-0.854061	-0.486836	0.183223	0.494832	-0.868985	-0.002382	0	0	0
57465	0	0	0	0	0	9.653063	1.842999	0.062443	-0.004884	0.002875	-0.000828	-0.510254	-0.601563	0.206787	0.409645	0.642159	-0.298001	0.575342	90.733356	-79.442328	28.933862	0.160355	0.088644	0.983071	-0.854100	-0.486772	0.183210	0.494772	-0.869020	-0.002345	0	0	0
57466	0	0	0	0	0	9.643649	1.781357	0.091844	-0.004065	0.000667	-0.004502	-0.510010	-0.589844	0.197510	0.409669	0.642152	-0.298013	0.575327	90.731972	-79.441158	28.931880	0.160375	0.088648	0.983067	-0.854126	-0.486720	0.183230	0.494721	-0.869049	-0.002341	0	0	0
57467	0	0	0	0	0	9.681494	1.769268	0.077756	0.003114	-0.000581	-0.001390	-0.508057	-0.594971	0.194580	0.409662	0.642156	-0.298014	0.575327	90.735881	-79.441608	28.928533	0.160374	0.088635	0.983069	-0.854122	-0.486730	0.183222	0.494729	-0.869044	-0.002353	0	0	0
57468	0	0	0	0	0	9.664585	1.784499	0.104044	0.003602	0.003534	-0.005629	-0.507568	-0.602783	0.204102	0.409668	0.642158	-0.297994	0.575330	90.730035	-79.439813	28.935558	0.160390	0.088670	0.983063	-0.854107	-0.486743	0.183253	0.494748	-0.869033	-0.002335	0	0	0
57469	0	0	0	0	0	9.658842	1.821659	0.057322	0.007651	0.005768	-0.008788	-0.512695	-0.595703	0.198975	0.409680	0.642163	-0.297949	0.575340	90.716484	-79.435988	28.952044	0.160422	0.088748	0.983051	-0.854074	-0.486777	0.183320	0.494796	-0.869006	-0.002293	0	0	0
57470	0	0	0	0	0	9.669004	1.816808	0.090100	0.003135	0.002125	-0.004744	-0.519043	-0.597656	0.196045	0.409684	0.642167	-0.297936	0.575340	90.714736	-79.434690	28.954628	0.160437	0.088766	0.983047	-0.854063	-0.486787	0.183342	0.494809	-0.868999	-0.002287	0	0	0
57471	0	0	0	0	0	9.652512	1.845846	0.063571	0.001308	0.001906	-0.007914	-0.513428	-0.592285	0.200928	0.409707	0.642167	-0.297920	0.575330	90.709001	-79.431522	28.959469	0.160477	0.088806	0.983036	-0.854063	-0.486768	0.183397	0.494797	-0.869006	-0.002270	0	0	0
57472	0	0	0	0	0	9.668754	1.818119	0.090472	-0.001806	0.002487	-0.006524	-0.514160	-0.589355	0.203613	0.409732	0.642163	-0.297915	0.575321	90.703244	-79.429206	28.963251	0.160506	0.088836	0.983029	-0.854074	-0.486733	0.183436	0.494768	-0.869022	-0.002252	0	0	0
57473	0	0	0	0	0	9.652261	1.847138	0.064121	-0.000426	0.004005	-0.005824	-0.509277	-0.590576	0.204102	0.409753	0.642154	-0.297901	0.575323	90.690820	-79.427291	28.974933	0.160517	0.088884	0.983023	-0.854076	-0.486716	0.183470	0.494760	-0.869027	-0.002212	0	0	0
57474	0	0	0	0	0	9.647472	1.816798	0.078972	-0.000482	0.001493	-0.006776	-0.504150	-0.595703	0.201660	0.409772	0.642155	-0.297893	0.575311	90.688870	-79.424824	28.975614	0.160553	0.088907	0.983015	-0.854081	-0.486693	0.183512	0.494741	-0.869037	-0.002206	0	0	0
57475	0	0	0	0	0	9.658084	1.825625	0.058868	0.002243	0.004722	-0.009682	-0.511475	-0.602783	0.206055	0.409798	0.642155	-0.297858	0.575311	90.675935	-79.420539	28.989230	0.160596	0.088980	0.983001	-0.854065	-0.486693	0.183586	0.494755	-0.869030	-0.002166	0	0	0
57476	0	0	0	0	0	9.651357	1.835786	0.117907	-0.001806	0.002486	-0.006524	-0.514648	-0.602051	0.196777	0.409823	0.642151	-0.297853	0.575301	90.670192	-79.418223	28.992999	0.160625	0.089010	0.982994	-0.854076	-0.486658	0.183626	0.494727	-0.869046	-0.002148	0	0	0
57477	0	0	0	0	0	9.657349	1.813415	0.112307	0.003136	0.002125	-0.004743	-0.506592	-0.599365	0.199219	0.409833	0.642150	-0.297841	0.575300	90.665440	-79.416732	28.997815	0.160640	0.089036	0.982989	-0.854072	-0.486656	0.183652	0.494729	-0.869045	-0.002133	0	0	0
57478	0	0	0	0	0	9.634804	1.865076	0.091570	0.002258	0.001821	-0.002021	-0.507568	-0.587891	0.202393	0.409830	0.642149	-0.297840	0.575304	90.664226	-79.416991	28.999344	0.160634	0.089038	0.982990	-0.854070	-0.486660	0.183648	0.494734	-0.869042	-0.002129	0	0	0
57479	0	0	0	0	0	9.651559	1.850752	0.065523	0.000396	0.001795	-0.009497	-0.510986	-0.602051	0.194092	0.409858	0.642153	-0.297818	0.575291	90.658979	-79.412798	29.003818	0.160690	0.089086	0.982976	-0.854065	-0.486641	0.183720	0.494723	-0.869048	-0.002113	0	0	0
57480	0	0	0	0	0	9.655580	1.868982	0.104113	-0.001338	0.003894	-0.007408	-0.504395	-0.604248	0.207275	0.409886	0.642147	-0.297806	0.575284	90.649166	-79.409985	29.011999	0.160719	0.089132	0.982967	-0.854073	-0.486610	0.183768	0.494701	-0.869061	-0.002082	0	0	0
57481	0	0	0	0	0	9.661095	1.833071	0.151520	-0.002683	0.002182	-0.003802	-0.506592	-0.599854	0.195557	0.409913	0.642133	-0.297814	0.575276	90.641043	-79.408928	29.016728	0.160727	0.089154	0.982964	-0.854100	-0.486555	0.183787	0.494652	-0.869089	-0.002056	0	0	0
57482	0	0	0	0	0	9.640459	1.844440	0.086663	0.002669	0.000717	-0.003858	-0.511475	-0.594238	0.204834	0.409914	0.642139	-0.297809	0.575273	90.643384	-79.408128	29.014880	0.160742	0.089156	0.982961	-0.854093	-0.486562	0.183800	0.494658	-0.869085	-0.002064	0	0	0
57483	0	0	0	0	0	9.646476	1.821998	0.080877	-0.000948	0.000083	-0.005890	-0.506836	-0.593262	0.196045	0.409935	0.642138	-0.297807	0.575259	90.642573	-79.405981	29.013704	0.160776	0.089170	0.982955	-0.854104	-0.486529	0.183837	0.494628	-0.869102	-0.002062	0	0	0
57484	0	0	0	0	0	9.640258	1.845492	0.086715	0.006251	0.001545	-0.006130	-0.511475	-0.595947	0.197266	0.409931	0.642152	-0.297782	0.575259	90.644353	-79.403884	29.014515	0.160807	0.089190	0.982948	-0.854076	-0.486565	0.183873	0.494667	-0.869080	-0.002068	0	0	0
57485	0	0	0	0	0	9.650936	1.853976	0.066172	0.007555	-0.002155	-0.003028	-0.511475	-0.600342	0.191895	0.409914	0.642171	-0.297771	0.575256	90.654993	-79.403410	29.006504	0.160826	0.089171	0.982946	-0.854051	-0.486606	0.183881	0.494704	-0.869059	-0.002102	0	0	0
57486	0	0	0	0	0	9.671938	1.856740	0.078297	-0.000390	0.003810	-0.001517	-0.516357	-0.592041	0.201660	0.409922	0.642158	-0.297775	0.575263	90.646191	-79.403970	29.014210	0.160806	0.089188	0.982948	-0.854063	-0.486588	0.183872	0.494690	-0.869067	-0.002074	0	0	0
57487	0	0	0	0	0	9.635418	1.815516	0.101415	0.003136	0.002125	-0.004742	-0.504395	-0.595215	0.200928	0.409931	0.642157	-0.297763	0.575263	90.640968	-79.402604	29.019622	0.160818	0.089215	0.982944	-0.854058	-0.486587	0.183895	0.494694	-0.869065	-0.002057	0	0	0
57488	0	0	0	0	0	9.677904	1.834570	0.072837	-0.000035	0.000193	-0.004305	-0.513184	-0.603271	0.205322	0.409940	0.642159	-0.297765	0.575253	90.643348	-79.401544	29.016160	0.160839	0.089214	0.982940	-0.854064	-0.486570	0.183913	0.494677	-0.869074	-0.002065	0	0	0
57489	0	0	0	0	0	9.639912	1.847284	0.086996	0.001345	0.001711	-0.003605	-0.510254	-0.594971	0.202881	0.409949	0.642156	-0.297760	0.575253	90.639269	-79.400675	29.019763	0.160847	0.089231	0.982938	-0.854066	-0.486561	0.183928	0.494671	-0.869078	-0.002052	0	0	0
57490	0	0	0	0	0	9.633733	1.870536	0.092816	-0.000501	-0.001215	-0.003421	-0.511963	-0.591309	0.199463	0.409955	0.642161	-0.297769	0.575239	90.645720	-79.400113	29.011886	0.160867	0.089214	0.982936	-0.854076	-0.486540	0.183938	0.494648	-0.869091	-0.002073	0	0	0
57491	0	0	0	0	0	9.660825	1.850504	0.099261	-0.004007	0.003175	-0.003550	-0.501221	-0.595215	0.200684	0.409981	0.642143	-0.297776	0.575237	90.633853	-79.399424	29.020661	0.160864	0.089244	0.982934	-0.854102	-0.486490	0.183950	0.494604	-0.869116	-0.002035	0	0	0
57492	0	0	0	0	0	9.656124	1.819820	0.114035	-0.003617	-0.000635	-0.002033	-0.510010	-0.606934	0.200928	0.409994	0.642137	-0.297796	0.575224	90.636790	-79.399661	29.014543	0.160870	0.089225	0.982934	-0.854129	-0.486444	0.183946	0.494555	-0.869144	-0.002044	0	0	0
57493	0	0	0	0	0	9.635036	1.817513	0.101870	0.002203	-0.000690	-0.002973	-0.510986	-0.598877	0.197998	0.409998	0.642141	-0.297798	0.575216	90.640408	-79.399059	29.010412	0.160885	0.089218	0.982932	-0.854131	-0.486436	0.183956	0.494546	-0.869149	-0.002056	0	0	0
57494	0	0	0	0	0	9.656019	1.820396	0.113756	0.002147	-0.003203	-0.003924	-0.524170	-0.599854	0.199707	0.409994	0.642157	-0.297802	0.575199	90.654442	-79.398194	28.996364	0.160920	0.089186	0.982930	-0.854127	-0.486438	0.183970	0.494542	-0.869151	-0.002101	0	0	0
57495	0	0	0	0	0	9.677509	1.836656	0.072749	0.004028	-0.000469	0.000196	-0.515137	-0.592529	0.205322	0.409982	0.642157	-0.297809	0.575203	90.657912	-79.399661	28.993395	0.160903	0.089166	0.982934	-0.854126	-0.486449	0.183945	0.494549	-0.869147	-0.002112	0	0	0
57496	0	0	0	0	0	9.656455	1.834167	0.060520	0.003116	-0.000580	-0.001388	-0.515381	-0.593750	0.203857	0.409972	0.642164	-0.297812	0.575201	90.664561	-79.400267	28.987425	0.160903	0.089144	0.982936	-0.854121	-0.486462	0.183934	0.494557	-0.869142	-0.002134	0	0	0
57497	0	0	0	0	0	9.655933	1.820877	0.113362	0.005374	0.001241	-0.003408	-0.511963	-0.595215	0.204102	0.409962	0.642172	-0.297795	0.575209	90.664223	-79.399718	28.990308	0.160907	0.089157	0.982934	-0.854098	-0.486499	0.183944	0.494596	-0.869120	-0.002133	0	0	0
57498	0	0	0	0	0	9.650253	1.857526	0.066230	0.005820	-0.000056	-0.000939	-0.509033	-0.593018	0.196533	0.409943	0.642182	-0.297791	0.575213	90.670832	-79.400584	28.985955	0.160901	0.089137	0.982937	-0.854081	-0.486535	0.183929	0.494629	-0.869102	-0.002154	0	0	0
57499	0	0	0	0	0	9.639468	1.849616	0.086629	0.004962	0.002346	-0.001572	-0.509766	-0.601807	0.194336	0.409934	0.642181	-0.297781	0.575225	90.666615	-79.400998	28.991985	0.160885	0.089151	0.982939	-0.854067	-0.486562	0.183922	0.494657	-0.869085	-0.002140	0	0	0
57500	0	0	0	0	0	9.666592	1.829462	0.092771	0.004385	-0.004086	-0.002591	-0.510010	-0.599854	0.199463	0.409918	0.642202	-0.297784	0.575212	90.684684	-79.400890	28.975137	0.160913	0.089104	0.982938	-0.854054	-0.486585	0.183923	0.494671	-0.869078	-0.002198	0	0	0
57501	0	0	0	0	0	9.607589	1.839432	0.094685	-0.000391	0.003809	-0.001517	-0.513428	-0.603271	0.196533	0.409934	0.642184	-0.297791	0.575217	90.672492	-79.401238	28.985167	0.160892	0.089129	0.982939	-0.854075	-0.486550	0.183917	0.494641	-0.869094	-0.002159	0	0	0
57502	0	0	0	0	0	9.660385	1.852838	0.098534	0.002148	-0.003203	-0.003924	-0.510010	-0.591553	0.205566	0.409930	0.642200	-0.297794	0.575200	90.686526	-79.400373	28.971120	0.160927	0.089097	0.982937	-0.854070	-0.486552	0.183932	0.494638	-0.869097	-0.002204	0	0	0
57503	0	0	0	0	0	9.660363	1.852965	0.098296	0.002237	-0.000883	0.001333	-0.506836	-0.586914	0.204834	0.409918	0.642198	-0.297809	0.575203	90.690747	-79.402401	28.966753	0.160903	0.089068	0.982943	-0.854077	-0.486554	0.183897	0.494634	-0.869098	-0.002217	0	0	0
57504	0	0	0	0	0	9.634649	1.819634	0.100602	0.002615	-0.001796	-0.004808	-0.510498	-0.601563	0.199463	0.409918	0.642212	-0.297805	0.575189	90.700705	-79.401038	28.957124	0.160939	0.089052	0.982939	-0.854069	-0.486559	0.183920	0.494637	-0.869097	-0.002249	0	0	0
57505	0	0	0	0	0	9.645335	1.828070	0.079928	0.004852	-0.002679	-0.003475	-0.509277	-0.590088	0.197266	0.409906	0.642230	-0.297798	0.575182	90.711998	-79.400288	28.947501	0.160965	0.089032	0.982936	-0.854051	-0.486586	0.183932	0.494659	-0.869084	-0.002286	0	0	0
57506	0	0	0	0	0	9.655572	1.822872	0.112019	0.007090	-0.003562	-0.002142	-0.517822	-0.595215	0.205566	0.409881	0.642254	-0.297794	0.575175	90.730025	-79.400439	28.932271	0.160986	0.088987	0.982937	-0.854025	-0.486633	0.183929	0.494697	-0.869063	-0.002344	0	0	0
57507	0	0	0	0	0	9.649878	1.859532	0.064571	0.006232	-0.001161	-0.002775	-0.503662	-0.591553	0.199707	0.409865	0.642269	-0.297782	0.575176	90.737233	-79.400216	28.927657	0.160997	0.088976	0.982936	-0.854001	-0.486673	0.183932	0.494734	-0.869041	-0.002367	0	0	0
57508	0	0	0	0	0	9.632981	1.874524	0.090399	0.006212	-0.003865	0.000579	-0.508301	-0.593750	0.202637	0.409834	0.642288	-0.297790	0.575172	90.755794	-79.401922	28.911373	0.160996	0.088916	0.982942	-0.853984	-0.486715	0.183902	0.494764	-0.869024	-0.002426	0	0	0
57509	0	0	0	0	0	9.660120	1.854338	0.096295	0.002148	-0.003204	-0.003923	-0.512695	-0.594482	0.207031	0.409832	0.642302	-0.297790	0.575158	90.767098	-79.400884	28.900171	0.161029	0.088894	0.982938	-0.853979	-0.486717	0.183920	0.494762	-0.869025	-0.002463	0	0	0
57510	0	0	0	0	0	9.651262	1.806259	0.072494	-0.000446	0.001296	-0.002469	-0.516113	-0.595459	0.201172	0.409839	0.642298	-0.297796	0.575154	90.765920	-79.400883	28.900087	0.161029	0.088893	0.982938	-0.853990	-0.486698	0.183920	0.494744	-0.869036	-0.002459	0	0	0
57511	0	0	0	0	0	9.651225	1.806454	0.072564	-0.000913	-0.000111	-0.001584	-0.507080	-0.592529	0.202881	0.409844	0.642293	-0.297807	0.575151	90.766089	-79.401322	28.898494	0.161025	0.088885	0.982940	-0.854003	-0.486678	0.183912	0.494722	-0.869048	-0.002459	0	0	0
57512	0	0	0	0	0	9.666107	1.832138	0.090474	0.000878	0.000302	-0.002720	-0.510742	-0.595459	0.205322	0.409846	0.642295	-0.297811	0.575146	90.768702	-79.401169	28.895325	0.161033	0.088878	0.982939	-0.854007	-0.486670	0.183915	0.494713	-0.869053	-0.002468	0	0	0
57513	0	0	0	0	0	9.655299	1.824381	0.111005	0.002724	0.003228	-0.002905	-0.509033	-0.600586	0.205078	0.409848	0.642290	-0.297799	0.575155	90.760873	-79.400791	28.904078	0.161025	0.088905	0.982938	-0.853999	-0.486681	0.183922	0.494729	-0.869044	-0.002443	0	0	0
57514	0	0	0	0	0	9.682885	1.817782	0.064565	0.003583	0.000827	-0.002272	-0.508057	-0.595215	0.198730	0.409841	0.642295	-0.297795	0.575157	90.763448	-79.400899	28.902525	0.161025	0.088900	0.982938	-0.853990	-0.486697	0.183920	0.494744	-0.869035	-0.002451	0	0	0
57515	0	0	0	0	0	9.632681	1.876066	0.090354	-0.000858	0.002401	-0.000633	-0.508057	-0.594238	0.205566	0.409850	0.642281	-0.297806	0.575161	90.755912	-79.401755	28.908294	0.161004	0.088909	0.982941	-0.854009	-0.486670	0.183905	0.494719	-0.869050	-0.002426	0	0	0
57516	0	0	0	0	0	9.638785	1.853259	0.084690	-0.000913	-0.000111	-0.001584	-0.509766	-0.595947	0.197021	0.409854	0.642278	-0.297819	0.575154	90.758811	-79.402249	28.903790	0.161003	0.088892	0.982943	-0.854023	-0.486648	0.183897	0.494694	-0.869064	-0.002436	0	0	0
57517	0	0	0	0	0	9.672030	1.810256	0.085534	-0.002163	0.006099	-0.003736	-0.508301	-0.598145	0.197266	0.409880	0.642256	-0.297815	0.575163	90.739027	-79.401406	28.921452	0.160988	0.088949	0.982940	-0.854042	-0.486610	0.183912	0.494667	-0.869079	-0.002372	0	0	0
57518	0	0	0	0	0	9.661664	1.816134	0.053301	0.008491	0.000660	-0.004794	-0.508301	-0.592773	0.201416	0.409864	0.642275	-0.297789	0.575166	90.744823	-79.400067	28.919483	0.161012	0.088955	0.982936	-0.854005	-0.486666	0.183935	0.494723	-0.869047	-0.002391	0	0	0
57519	0	0	0	0	0	9.633979	1.823226	0.099711	0.005354	-0.001463	-0.000054	-0.506104	-0.597900	0.197510	0.409846	0.642283	-0.297792	0.575168	90.752451	-79.401264	28.913403	0.161003	0.088928	0.982939	-0.853994	-0.486693	0.183914	0.494745	-0.869035	-0.002415	0	0	0
57520	0	0	0	0	0	9.661100	1.803164	0.105867	0.003082	-0.000390	-0.005691	-0.511230	-0.597412	0.198730	0.409848	0.642296	-0.297781	0.575158	90.758325	-79.399404	28.908202	0.161039	0.088928	0.982933	-0.853982	-0.486702	0.183945	0.494753	-0.869030	-0.002435	0	0	0
57521	0	0	0	0	0	9.665673	1.834400	0.091034	0.006679	-0.002457	-0.000304	-0.514648	-0.608643	0.199951	0.409827	0.642309	-0.297782	0.575158	90.769568	-79.400426	28.898883	0.161038	0.088894	0.982937	-0.853967	-0.486735	0.183927	0.494780	-0.869015	-0.002471	0	0	0
57522	0	0	0	0	0	9.650714	1.809168	0.072914	0.008491	0.000659	-0.004794	-0.512207	-0.602051	0.209229	0.409811	0.642328	-0.297757	0.575161	90.775361	-79.399088	28.896916	0.161061	0.088899	0.982932	-0.853930	-0.486791	0.183950	0.494836	-0.868983	-0.002489	0	0	0
57523	0	0	0	0	0	9.644520	1.832429	0.078476	0.003062	-0.003094	-0.002337	-0.513672	-0.590332	0.196289	0.409806	0.642339	-0.297764	0.575148	90.786859	-79.398902	28.885188	0.161082	0.088868	0.982932	-0.853930	-0.486791	0.183953	0.494830	-0.868986	-0.002526	0	0	0
57524	0	0	0	0	0	9.676256	1.843356	0.069900	0.005320	-0.001273	-0.004357	-0.516846	-0.597412	0.207031	0.409797	0.642357	-0.297753	0.575141	90.796766	-79.397798	28.877188	0.161111	0.088855	0.982928	-0.853909	-0.486820	0.183971	0.494856	-0.868971	-0.002559	0	0	0
57525	0	0	0	0	0	9.650530	1.810173	0.072363	-0.000446	0.001295	-0.002469	-0.510254	-0.589600	0.199463	0.409805	0.642350	-0.297757	0.575141	90.792533	-79.397783	28.880178	0.161107	0.088863	0.982928	-0.853920	-0.486800	0.183972	0.494838	-0.868981	-0.002545	0	0	0
57526	0	0	0	0	0	9.659716	1.872328	0.043516	0.000541	0.006623	-0.003288	-0.514404	-0.589600	0.193604	0.409819	0.642333	-0.297747	0.575155	90.775580	-79.397354	28.896719	0.161088	0.088913	0.982927	-0.853925	-0.486789	0.183980	0.494836	-0.868983	-0.002491	0	0	0
57527	0	0	0	0	0	9.648887	1.864677	0.064296	-0.004063	0.000658	-0.004502	-0.508789	-0.603516	0.202393	0.409846	0.642322	-0.297757	0.575143	90.770725	-79.396187	28.898093	0.161103	0.088927	0.982923	-0.853952	-0.486734	0.184000	0.494785	-0.869012	-0.002475	0	0	0
57528	0	0	0	0	0	9.665240	1.836671	0.091154	-0.003151	0.000770	-0.002918	-0.507568	-0.595215	0.204590	0.409862	0.642315	-0.297771	0.575133	90.769583	-79.395925	28.896395	0.161110	0.088924	0.982922	-0.853975	-0.486691	0.184005	0.494742	-0.869036	-0.002472	0	0	0
57529	0	0	0	0	0	9.675935	1.845001	0.070956	0.000020	0.002703	-0.003354	-0.510986	-0.597656	0.200195	0.409876	0.642306	-0.297769	0.575133	90.761693	-79.395194	28.903073	0.161110	0.088949	0.982920	-0.853985	-0.486670	0.184018	0.494726	-0.869046	-0.002446	0	0	0
57530	0	0	0	0	0	9.644101	1.834591	0.079375	0.004496	0.000939	-0.000687	-0.512207	-0.593994	0.196045	0.409862	0.642310	-0.297768	0.575140	90.764508	-79.396210	28.901807	0.161097	0.088937	0.982923	-0.853974	-0.486695	0.184000	0.494748	-0.869033	-0.002455	0	0	0
57531	0	0	0	0	0	9.654367	1.829243	0.112012	0.003637	0.003340	-0.001320	-0.520508	-0.590820	0.203613	0.409860	0.642302	-0.297762	0.575152	90.756140	-79.396776	28.910842	0.161074	0.088958	0.982925	-0.853971	-0.486704	0.183991	0.494761	-0.869026	-0.002428	0	0	0
57532	0	0	0	0	0	9.643995	1.835145	0.079410	0.006146	-0.003484	-0.008026	-0.507568	-0.588379	0.199707	0.409855	0.642333	-0.297742	0.575132	90.773134	-79.393554	28.896113	0.161146	0.088943	0.982915	-0.853941	-0.486737	0.184045	0.494791	-0.869009	-0.002484	0	0	0
57533	0	0	0	0	0	9.671101	1.815223	0.085336	0.006680	-0.002456	-0.000303	-0.511475	-0.597656	0.198730	0.409827	0.642349	-0.297738	0.575136	90.784659	-79.394790	28.887637	0.161140	0.088909	0.982919	-0.853916	-0.486787	0.184023	0.494834	-0.868984	-0.002520	0	0	0
57534	0	0	0	0	0	9.648467	1.866847	0.064287	0.006721	0.002948	-0.007010	-0.508057	-0.600586	0.203857	0.409826	0.642361	-0.297706	0.575140	90.782338	-79.392199	28.892895	0.161171	0.088945	0.982910	-0.853885	-0.486827	0.184068	0.494879	-0.868958	-0.002513	0	0	0
57535	0	0	0	0	0	9.658655	1.861926	0.096759	0.000825	-0.002212	-0.003670	-0.509277	-0.594482	0.202393	0.409833	0.642367	-0.297712	0.575125	90.789619	-79.391284	28.884378	0.161198	0.088929	0.982907	-0.853891	-0.486809	0.184083	0.494858	-0.868970	-0.002537	0	0	0
57536	0	0	0	0	0	9.664735	1.839349	0.090754	0.003530	-0.001687	-0.003221	-0.514160	-0.599609	0.205566	0.409825	0.642381	-0.297711	0.575116	90.799803	-79.390828	28.875051	0.161219	0.088906	0.982906	-0.853881	-0.486823	0.184091	0.494868	-0.868964	-0.002570	0	0	0
57537	0	0	0	0	0	9.664681	1.839638	0.090646	0.000879	0.000301	-0.002719	-0.513184	-0.592773	0.203125	0.409829	0.642380	-0.297713	0.575113	90.799711	-79.390540	28.874544	0.161224	0.088907	0.982905	-0.853886	-0.486814	0.184096	0.494859	-0.868969	-0.002570	0	0	0
57538	0	0	0	0	0	9.664627	1.839911	0.090783	0.002724	0.003227	-0.002905	-0.508301	-0.596680	0.196777	0.409830	0.642377	-0.297705	0.575120	90.794417	-79.390304	28.880495	0.161219	0.088926	0.982904	-0.853880	-0.486822	0.184100	0.494871	-0.868963	-0.002553	0	0	0
57539	0	0	0	0	0	9.649674	1.814704	0.073035	-0.001825	-0.000225	-0.003168	-0.507324	-0.594971	0.202148	0.409845	0.642372	-0.297715	0.575110	90.793967	-79.389780	28.878563	0.161230	0.088925	0.982903	-0.853899	-0.486786	0.184109	0.494835	-0.868983	-0.002551	0	0	0
57540	0	0	0	0	0	9.632700	1.829995	0.099351	0.006308	0.004054	-0.005175	-0.509766	-0.592529	0.200195	0.409843	0.642377	-0.297687	0.575120	90.788104	-79.388250	28.887182	0.161239	0.088962	0.982898	-0.853872	-0.486823	0.184136	0.494878	-0.868959	-0.002533	0	0	0
57541	0	0	0	0	0	9.654174	1.846202	0.058507	0.003097	-0.003282	0.001968	-0.507568	-0.600586	0.197021	0.409821	0.642384	-0.297705	0.575118	90.800266	-79.390616	28.875513	0.161222	0.088909	0.982905	-0.853873	-0.486837	0.184094	0.494882	-0.868956	-0.002571	0	0	0
57542	0	0	0	0	0	9.660294	1.823422	0.052740	-0.002218	0.003583	-0.004687	-0.504150	-0.602783	0.198242	0.409844	0.642373	-0.297704	0.575115	90.790977	-79.389362	28.882649	0.161230	0.088940	0.982901	-0.853889	-0.486801	0.184116	0.494852	-0.868974	-0.002542	0	0	0
57543	0	0	0	0	0	9.653610	1.833257	0.111683	0.004050	0.002233	-0.003155	-0.517090	-0.593262	0.209473	0.409849	0.642371	-0.297697	0.575118	90.786218	-79.388673	28.887633	0.161232	0.088960	0.982899	-0.853886	-0.486802	0.184128	0.494857	-0.868971	-0.002527	0	0	0
57544	0	0	0	0	0	9.658140	1.864578	0.097202	0.003138	0.002121	-0.004739	-0.512451	-0.599121	0.200195	0.409852	0.642375	-0.297684	0.575118	90.784467	-79.387377	28.890221	0.161248	0.088978	0.982895	-0.853875	-0.486812	0.184151	0.494870	-0.868963	-0.002521	0	0	0
57545	0	0	0	0	0	9.651920	1.887851	0.103053	0.000879	0.000301	-0.002719	-0.508057	-0.591797	0.205078	0.409855	0.642374	-0.297685	0.575116	90.784367	-79.387162	28.889897	0.161251	0.088978	0.982894	-0.853878	-0.486805	0.184154	0.494863	-0.868967	-0.002521	0	0	0
57546	0	0	0	0	0	9.637455	1.876004	0.032273	-0.000912	-0.000113	-0.001584	-0.509521	-0.590820	0.209473	0.409859	0.642371	-0.297698	0.575109	90.787257	-79.387656	28.885403	0.161251	0.088962	0.982896	-0.853893	-0.486783	0.184146	0.494838	-0.868981	-0.002530	0	0	0
57547	0	0	0	0	0	9.653837	1.847949	0.059023	-0.000033	0.000188	-0.004303	-0.512695	-0.594482	0.206787	0.409866	0.642374	-0.297693	0.575104	90.787442	-79.386488	28.884980	0.161269	0.088970	0.982892	-0.853892	-0.486777	0.184166	0.494835	-0.868983	-0.002531	0	0	0
57548	0	0	0	0	0	9.636884	1.863098	0.085205	0.001792	0.000413	-0.001135	-0.511963	-0.598389	0.204590	0.409861	0.642375	-0.297699	0.575104	90.790292	-79.387244	28.882103	0.161262	0.088956	0.982894	-0.853894	-0.486779	0.184153	0.494834	-0.868984	-0.002540	0	0	0
57549	0	0	0	0	0	9.647627	1.871165	0.064871	-0.001326	0.000994	0.000250	-0.506592	-0.595947	0.195313	0.409864	0.642364	-0.297714	0.575106	90.787095	-79.388681	28.883694	0.161238	0.088948	0.982899	-0.853912	-0.486756	0.184128	0.494810	-0.868997	-0.002530	0	0	0
57550	0	0	0	0	0	9.659513	1.811633	0.106102	0.004922	-0.003056	0.005136	-0.512939	-0.598633	0.198975	0.409825	0.642371	-0.297739	0.575112	90.802617	-79.393002	28.869748	0.161195	0.088873	0.982913	-0.853908	-0.486790	0.184053	0.494830	-0.868986	-0.002578	0	0	0
57551	0	0	0	0	0	9.643128	1.839705	0.079172	0.002704	0.000526	0.000449	-0.512939	-0.597900	0.198730	0.409819	0.642366	-0.297748	0.575117	90.802285	-79.394503	28.869771	0.161172	0.088861	0.982918	-0.853915	-0.486788	0.184028	0.494826	-0.868989	-0.002577	0	0	0
57552	0	0	0	0	0	9.643129	1.839710	0.079052	0.002651	-0.001987	-0.000500	-0.505127	-0.588867	0.197021	0.409806	0.642375	-0.297759	0.575112	90.813003	-79.395602	28.859390	0.161172	0.088823	0.982921	-0.853914	-0.486798	0.184008	0.494828	-0.868987	-0.002611	0	0	0
57553	0	0	0	0	0	9.664162	1.842345	0.090982	0.001326	-0.000994	-0.000250	-0.510254	-0.597900	0.201416	0.409802	0.642373	-0.297772	0.575110	90.816654	-79.396733	28.855005	0.161162	0.088801	0.982925	-0.853923	-0.486789	0.183989	0.494816	-0.868994	-0.002623	0	0	0
57554	0	0	0	0	0	9.632357	1.831807	0.099154	0.003118	-0.000581	-0.001385	-0.506104	-0.598389	0.208984	0.409791	0.642380	-0.297775	0.575108	90.823297	-79.397337	28.849041	0.161162	0.088779	0.982927	-0.853918	-0.486802	0.183978	0.494824	-0.868989	-0.002644	0	0	0
57555	0	0	0	0	0	9.612840	1.775497	0.095978	0.003637	0.003339	-0.001320	-0.513428	-0.596191	0.208984	0.409788	0.642374	-0.297767	0.575121	90.815771	-79.397787	28.857713	0.161142	0.088800	0.982928	-0.853910	-0.486818	0.183971	0.494844	-0.868978	-0.002620	0	0	0
57556	0	0	0	0	0	9.659977	1.825105	0.052663	0.000859	-0.002401	0.000635	-0.508545	-0.594238	0.201172	0.409776	0.642379	-0.297787	0.575114	90.826780	-79.399533	28.845991	0.161134	0.088752	0.982934	-0.853920	-0.486813	0.183940	0.494830	-0.868986	-0.002654	0	0	0
57557	0	0	0	0	0	9.653348	1.834668	0.111162	0.004910	-0.000168	-0.002520	-0.508057	-0.597412	0.197998	0.409765	0.642388	-0.297777	0.575117	90.830571	-79.399367	28.844142	0.161139	0.088749	0.982933	-0.853902	-0.486843	0.183943	0.494859	-0.868969	-0.002667	0	0	0
57558	0	0	0	0	0	9.653743	1.848458	0.058393	-0.002218	0.003582	-0.004688	-0.508301	-0.599365	0.201904	0.409788	0.642376	-0.297777	0.575114	90.821271	-79.398112	28.851287	0.161147	0.088779	0.982929	-0.853918	-0.486806	0.183965	0.494828	-0.868987	-0.002637	0	0	0
57559	0	0	0	0	0	9.670118	1.820450	0.085397	0.002258	0.001820	-0.002020	-0.507568	-0.596191	0.201416	0.409792	0.642371	-0.297776	0.575117	90.816957	-79.398156	28.855283	0.161140	0.088790	0.982929	-0.853922	-0.486800	0.183964	0.494825	-0.868989	-0.002623	0	0	0
57560	0	0	0	0	0	9.649027	1.818122	0.073424	0.001346	0.001707	-0.003604	-0.503906	-0.605469	0.199951	0.409797	0.642371	-0.297773	0.575115	90.815486	-79.397508	28.856542	0.161148	0.088799	0.982927	-0.853922	-0.486796	0.183975	0.494822	-0.868991	-0.002619	0	0	0
57561	0	0	0	0	0	9.659265	1.812956	0.106073	0.004963	0.002346	-0.001570	-0.508545	-0.601807	0.202637	0.409792	0.642369	-0.297766	0.575124	90.811280	-79.397730	28.861866	0.161136	0.088812	0.982928	-0.853914	-0.486812	0.183972	0.494840	-0.868980	-0.002605	0	0	0
57562	0	0	0	0	0	9.669970	1.821221	0.085753	0.005376	0.001239	-0.003404	-0.507324	-0.588623	0.198975	0.409783	0.642378	-0.297752	0.575127	90.813558	-79.397191	28.861658	0.161145	0.088816	0.982926	-0.853894	-0.486842	0.183981	0.494871	-0.868963	-0.002613	0	0	0
57563	0	0	0	0	0	9.642738	1.841743	0.079359	0.005822	-0.000055	-0.000935	-0.511230	-0.592529	0.196777	0.409768	0.642385	-0.297747	0.575133	90.817208	-79.397889	28.860038	0.161137	0.088806	0.982929	-0.853879	-0.486875	0.183969	0.494900	-0.868946	-0.002624	0	0	0
57564	0	0	0	0	0	9.630417	1.887630	0.090828	0.007201	0.001465	-0.000236	-0.511230	-0.594482	0.193848	0.409744	0.642393	-0.297738	0.575147	90.819979	-79.399168	28.860394	0.161117	0.088796	0.982933	-0.853855	-0.486924	0.183947	0.494947	-0.868919	-0.002633	0	0	0
57565	0	0	0	0	0	9.656086	1.920995	0.088355	0.003204	0.001746	0.003868	-0.509521	-0.593994	0.201172	0.409727	0.642380	-0.297755	0.575164	90.816087	-79.402730	28.864475	0.161057	0.088778	0.982944	-0.853864	-0.486931	0.183886	0.494951	-0.868917	-0.002619	0	0	0
57566	0	0	0	0	0	9.641262	1.895167	0.070592	-0.004910	0.000168	0.002519	-0.503906	-0.594482	0.209229	0.409733	0.642362	-0.297792	0.575161	90.816007	-79.405576	28.860671	0.161020	0.088744	0.982953	-0.853905	-0.486878	0.183837	0.494892	-0.868950	-0.002618	0	0	0
57567	0	0	0	0	0	9.636683	1.864136	0.085287	-0.002705	-0.000526	-0.000450	-0.502930	-0.598145	0.196777	0.409739	0.642354	-0.297811	0.575155	90.816800	-79.406527	28.857555	0.161011	0.088727	0.982956	-0.853927	-0.486845	0.183821	0.494857	-0.868970	-0.002621	0	0	0
57568	0	0	0	0	0	9.659293	1.812794	0.106330	-0.004910	0.000168	0.002519	-0.510498	-0.598145	0.195068	0.409745	0.642337	-0.297848	0.575152	90.816722	-79.409373	28.853749	0.160974	0.088693	0.982965	-0.853968	-0.486791	0.183772	0.494798	-0.869004	-0.002620	0	0	0
57569	0	0	0	0	0	9.670084	1.820598	0.086040	-0.000413	0.001107	0.001834	-0.509521	-0.594971	0.205566	0.409747	0.642321	-0.297871	0.575155	90.812808	-79.411600	28.855364	0.160938	0.088679	0.982973	-0.853995	-0.486759	0.183734	0.494765	-0.869023	-0.002607	0	0	0
57570	0	0	0	0	0	9.642938	1.840675	0.079801	-0.002205	0.000694	0.002969	-0.513428	-0.594238	0.204834	0.409744	0.642306	-0.297901	0.575159	90.812689	-79.414708	28.853177	0.160894	0.088647	0.982983	-0.854023	-0.486730	0.183681	0.494730	-0.869043	-0.002606	0	0	0
57571	0	0	0	0	0	9.632701	1.845849	0.047276	-0.002259	-0.001820	0.002019	-0.512695	-0.590576	0.207520	0.409739	0.642299	-0.297930	0.575155	90.817646	-79.417148	28.846053	0.160869	0.088607	0.982990	-0.854048	-0.486703	0.183638	0.494696	-0.869062	-0.002621	0	0	0
57572	0	0	0	0	0	9.649166	1.817366	0.073954	-0.001792	-0.000413	0.001135	-0.514404	-0.588867	0.198730	0.409738	0.642291	-0.297955	0.575152	90.821079	-79.419196	28.840493	0.160847	0.088574	0.982997	-0.854071	-0.486675	0.183603	0.494663	-0.869081	-0.002631	0	0	0
57573	0	0	0	0	0	9.659936	1.825292	0.053731	-0.003977	0.002981	0.000750	-0.504883	-0.593018	0.205566	0.409748	0.642269	-0.297974	0.575160	90.810008	-79.421066	28.848909	0.160806	0.088582	0.983003	-0.854100	-0.486635	0.183572	0.494625	-0.869102	-0.002595	0	0	0
57574	0	0	0	0	0	9.670248	1.819717	0.086356	0.000446	-0.001294	0.002469	-0.511963	-0.593018	0.197266	0.409734	0.642266	-0.297999	0.575159	90.817485	-79.423871	28.840539	0.160776	0.088536	0.983012	-0.854115	-0.486628	0.183523	0.494610	-0.869111	-0.002619	0	0	0
57575	0	0	0	0	0	9.665656	1.788717	0.101047	-0.003564	0.001875	-0.001084	-0.508057	-0.595459	0.201172	0.409751	0.642249	-0.298015	0.575159	90.809921	-79.424530	28.845115	0.160759	0.088543	0.983014	-0.854143	-0.486583	0.183512	0.494567	-0.869136	-0.002594	0	0	0
57576	0	0	0	0	0	9.655347	1.794276	0.068601	0.000413	-0.001107	-0.001834	-0.517090	-0.593018	0.201172	0.409749	0.642253	-0.298026	0.575150	90.816618	-79.424872	28.837520	0.160766	0.088519	0.983015	-0.854151	-0.486572	0.183506	0.494551	-0.869145	-0.002616	0	0	0
57577	0	0	0	0	0	9.661463	1.771551	0.062847	0.002259	0.001820	-0.002019	-0.507813	-0.597656	0.203857	0.409750	0.642248	-0.298023	0.575156	90.812323	-79.425056	28.842008	0.160756	0.088530	0.983016	-0.854150	-0.486574	0.183503	0.494555	-0.869142	-0.002602	0	0	0
57578	0	0	0	0	0	9.634230	1.792104	0.056512	0.002205	-0.000694	-0.002969	-0.507324	-0.598145	0.201904	0.409747	0.642256	-0.298025	0.575149	90.818729	-79.424751	28.835753	0.160770	0.088515	0.983015	-0.854147	-0.486577	0.183508	0.494556	-0.869142	-0.002622	0	0	0
57579	0	0	0	0	0	9.642881	1.840955	0.080296	-0.000426	0.003994	-0.005823	-0.512939	-0.591797	0.207275	0.409772	0.642246	-0.298013	0.575148	90.806406	-79.422616	28.846687	0.160786	0.088563	0.983008	-0.854155	-0.486550	0.183545	0.494538	-0.869152	-0.002583	0	0	0
57580	0	0	0	0	0	9.668400	1.875089	0.077988	0.003552	0.001013	-0.006572	-0.510742	-0.593506	0.200439	0.409778	0.642257	-0.297996	0.575141	90.808191	-79.420260	28.845918	0.160822	0.088581	0.983000	-0.854139	-0.486562	0.183586	0.494553	-0.869144	-0.002590	0	0	0
57581	0	0	0	0	0	9.663695	1.844702	0.092833	-0.002218	0.003581	-0.004688	-0.505859	-0.593994	0.202393	0.409800	0.642244	-0.297991	0.575142	90.796172	-79.418938	28.856111	0.160826	0.088620	0.982996	-0.854153	-0.486530	0.183609	0.494528	-0.869158	-0.002552	0	0	0
57582	0	0	0	0	0	9.669808	1.822003	0.087323	-0.001326	0.000994	0.000250	-0.515869	-0.600098	0.207520	0.409802	0.642234	-0.298010	0.575142	90.795515	-79.420491	28.854984	0.160805	0.088604	0.983001	-0.854172	-0.486505	0.183582	0.494501	-0.869173	-0.002549	0	0	0
57583	0	0	0	0	0	9.646735	1.859822	0.119431	-0.000859	0.002400	-0.000635	-0.506836	-0.587158	0.205566	0.409809	0.642221	-0.298018	0.575147	90.788183	-79.421389	28.860899	0.160782	0.088613	0.983004	-0.854188	-0.486484	0.183567	0.494482	-0.869184	-0.002525	0	0	0
57584	0	0	0	0	0	9.577450	1.875021	0.089157	-0.000393	0.003807	-0.001519	-0.510986	-0.597656	0.200439	0.409817	0.642208	-0.298022	0.575154	90.779354	-79.421950	28.868629	0.160762	0.088630	0.983006	-0.854200	-0.486466	0.183558	0.494467	-0.869193	-0.002497	0	0	0
57585	0	0	0	0	0	9.642073	1.829185	0.134629	-0.000446	0.001294	-0.002469	-0.514404	-0.601074	0.206299	0.409825	0.642202	-0.298025	0.575153	90.775465	-79.421827	28.871513	0.160759	0.088640	0.983005	-0.854209	-0.486450	0.183560	0.494453	-0.869201	-0.002485	0	0	0
57586	0	0	0	0	0	9.644070	1.788999	0.090539	0.001739	-0.002100	-0.002084	-0.512451	-0.602539	0.196777	0.409819	0.642211	-0.298033	0.575143	90.785954	-79.422019	28.860833	0.160773	0.088608	0.983006	-0.854209	-0.486450	0.183556	0.494448	-0.869204	-0.002518	0	0	0
57587	0	0	0	0	0	9.728638	1.813110	0.085990	0.008081	0.001765	-0.002953	-0.506836	-0.593018	0.206543	0.409807	0.642219	-0.298014	0.575153	90.785030	-79.421562	28.864589	0.160774	0.088622	0.983005	-0.854184	-0.486491	0.183564	0.494491	-0.869179	-0.002515	0	0	0
57588	0	0	0	0	0	9.701403	1.833641	0.079530	0.004444	-0.001574	-0.001634	-0.500977	-0.595215	0.200195	0.409792	0.642231	-0.298015	0.575149	90.795474	-79.422015	28.855532	0.160781	0.088593	0.983006	-0.854172	-0.486515	0.183556	0.494509	-0.869169	-0.002549	0	0	0
57589	0	0	0	0	0	9.663417	1.846129	0.093402	0.004910	-0.000168	-0.002519	-0.509766	-0.596436	0.202881	0.409782	0.642241	-0.298005	0.575151	90.799336	-79.421726	28.853538	0.160788	0.088590	0.983005	-0.854155	-0.486544	0.183561	0.494536	-0.869153	-0.002561	0	0	0
57590	0	0	0	0	0	9.594111	1.861432	0.062826	0.002259	0.001819	-0.002019	-0.511719	-0.592529	0.208008	0.409779	0.642240	-0.298004	0.575154	90.798101	-79.421986	28.855089	0.160782	0.088592	0.983006	-0.854153	-0.486548	0.183556	0.494542	-0.869150	-0.002557	0	0	0
57591	0	0	0	0	0	9.583296	1.853719	0.083363	0.005843	0.002645	-0.004287	-0.512451	-0.601563	0.204590	0.409774	0.642246	-0.297980	0.575164	90.793765	-79.420832	28.862152	0.160789	0.088622	0.983002	-0.854127	-0.486586	0.183576	0.494584	-0.869126	-0.002543	0	0	0
57592	0	0	0	0	0	9.604288	1.856541	0.095616	0.005875	0.002459	0.000015	-0.513428	-0.598389	0.207275	0.409755	0.642247	-0.297974	0.575179	90.792726	-79.422262	28.865610	0.160762	0.088619	0.983007	-0.854111	-0.486624	0.183552	0.494621	-0.869105	-0.002540	0	0	0
57593	0	0	0	0	0	9.648389	1.821404	0.075890	0.001792	0.000413	-0.001134	-0.511230	-0.594238	0.203369	0.409753	0.642245	-0.297978	0.575180	90.792954	-79.422849	28.865181	0.160754	0.088613	0.983009	-0.854114	-0.486622	0.183542	0.494618	-0.869107	-0.002540	0	0	0
57594	0	0	0	0	0	9.701181	1.834802	0.079797	0.002259	0.001819	-0.002019	-0.504150	-0.598877	0.201904	0.409751	0.642244	-0.297977	0.575183	90.791718	-79.423108	28.866731	0.160747	0.088616	0.983009	-0.854113	-0.486627	0.183537	0.494623	-0.869104	-0.002536	0	0	0
57595	0	0	0	0	0	9.734027	1.778363	0.133330	0.000414	-0.001107	-0.001834	-0.512695	-0.592285	0.198730	0.409754	0.642245	-0.297987	0.575176	90.795622	-79.423240	28.861717	0.160753	0.088600	0.983010	-0.854122	-0.486611	0.183535	0.494605	-0.869114	-0.002549	0	0	0
57596	0	0	0	0	0	9.637521	1.813984	0.096324	0.005377	0.001238	-0.003402	-0.511963	-0.600098	0.200439	0.409745	0.642254	-0.297973	0.575179	90.797896	-79.422702	28.861515	0.160761	0.088604	0.983008	-0.854102	-0.486642	0.183544	0.494636	-0.869096	-0.002556	0	0	0
57597	0	0	0	0	0	9.608752	1.888126	0.081010	0.005855	-0.000241	0.003369	-0.510742	-0.597900	0.198730	0.409718	0.642254	-0.297984	0.575193	90.801929	-79.425927	28.859211	0.160717	0.088571	0.983018	-0.854096	-0.486674	0.183489	0.494661	-0.869082	-0.002568	0	0	0
57598	0	0	0	0	0	9.572879	1.859835	0.050898	0.001326	-0.000994	-0.000249	-0.508545	-0.593750	0.207275	0.409709	0.642256	-0.297997	0.575190	90.808867	-79.427178	28.851903	0.160709	0.088540	0.983022	-0.854102	-0.486672	0.183467	0.494654	-0.869086	-0.002590	0	0	0
57599	0	0	0	0	0	9.614922	1.865190	0.075078	0.003585	0.000825	-0.002268	-0.500488	-0.601563	0.192627	0.409705	0.642258	-0.297992	0.575193	90.808609	-79.427125	28.853072	0.160708	0.088544	0.983022	-0.854094	-0.486686	0.183468	0.494668	-0.869078	-0.002589	0	0	0
57600	0	0	0	0	0	9.678489	1.886497	0.058454	0.002238	-0.000880	0.001335	-0.512939	-0.599609	0.201904	0.409689	0.642260	-0.298007	0.575194	90.815791	-79.429284	28.846047	0.160686	0.088506	0.983029	-0.854098	-0.486693	0.183430	0.494668	-0.869078	-0.002612	0	0	0
57601	0	0	0	0	0	9.701115	1.835166	0.079528	0.000053	0.002513	0.000949	-0.511475	-0.596436	0.209229	0.409696	0.642242	-0.298023	0.575201	90.807820	-79.430959	28.851872	0.160652	0.088509	0.983035	-0.854122	-0.486662	0.183402	0.494638	-0.869095	-0.002586	0	0	0
57602	0	0	0	0	0	9.696540	1.804138	0.094296	-0.001793	-0.000413	0.001134	-0.506836	-0.600098	0.196045	0.409695	0.642234	-0.298049	0.575197	90.811250	-79.433007	28.846316	0.160630	0.088476	0.983041	-0.854145	-0.486634	0.183367	0.494605	-0.869114	-0.002596	0	0	0
57603	0	0	0	0	0	9.643759	1.790688	0.090268	0.001305	-0.003693	0.003104	-0.510986	-0.598877	0.205566	0.409678	0.642236	-0.298078	0.575193	90.823748	-79.435945	28.832904	0.160607	0.088414	0.983051	-0.854159	-0.486628	0.183316	0.494588	-0.869124	-0.002636	0	0	0
57604	0	0	0	0	0	9.637620	1.813492	0.095714	0.009854	-0.000523	-0.000732	-0.517578	-0.587158	0.205566	0.409644	0.642256	-0.298064	0.575202	90.834112	-79.436922	28.827081	0.160601	0.088390	0.983054	-0.854122	-0.486700	0.183298	0.494654	-0.869086	-0.002669	0	0	0
57605	0	0	0	0	0	9.606308	1.816278	0.050908	0.006736	0.000058	0.000651	-0.512695	-0.592773	0.199951	0.409616	0.642264	-0.298058	0.575216	90.838307	-79.438671	28.826128	0.160576	0.088373	0.983059	-0.854099	-0.486752	0.183268	0.494702	-0.869058	-0.002682	0	0	0
57606	0	0	0	0	0	9.625797	1.872613	0.053749	0.008455	-0.004742	0.001923	-0.510986	-0.594482	0.207275	0.409573	0.642288	-0.298065	0.575216	90.860960	-79.441133	28.806990	0.160569	0.088299	0.983067	-0.854073	-0.486814	0.183225	0.494750	-0.869031	-0.002753	0	0	0
57607	0	0	0	0	0	9.690947	1.840017	0.045661	0.004445	-0.001575	-0.001632	-0.506104	-0.599609	0.204834	0.409559	0.642299	-0.298063	0.575215	90.868594	-79.441501	28.800891	0.160572	0.088279	0.983068	-0.854060	-0.486840	0.183218	0.494771	-0.869019	-0.002778	0	0	0
57608	0	0	0	0	0	9.705821	1.865543	0.063459	-0.000414	0.001107	0.001833	-0.511475	-0.602295	0.191895	0.409553	0.642288	-0.298083	0.575220	90.868189	-79.443961	28.800039	0.160537	0.088256	0.983076	-0.854077	-0.486825	0.183176	0.494752	-0.869030	-0.002776	0	0	0
57609	0	0	0	0	0	9.690487	1.826547	0.098579	-0.002705	-0.000526	-0.000450	-0.510498	-0.599609	0.201904	0.409569	0.642276	-0.298109	0.575210	90.867934	-79.444838	28.796444	0.160529	0.088239	0.983079	-0.854113	-0.486769	0.183161	0.494694	-0.869063	-0.002775	0	0	0
57610	0	0	0	0	0	9.684339	1.849391	0.104316	-0.006290	-0.001351	0.001818	-0.508545	-0.582520	0.198242	0.409578	0.642261	-0.298152	0.575198	90.871720	-79.447268	28.787905	0.160506	0.088195	0.983087	-0.854159	-0.486702	0.183119	0.494621	-0.869104	-0.002786	0	0	0
57611	0	0	0	0	0	9.595664	1.807713	0.070440	0.001358	-0.001179	0.004054	-0.510498	-0.603760	0.197510	0.409559	0.642254	-0.298177	0.575205	90.876321	-79.450898	28.782952	0.160459	0.088151	0.983098	-0.854172	-0.486704	0.183057	0.494615	-0.869108	-0.002800	0	0	0
57612	0	0	0	0	0	9.610557	1.833152	0.088114	0.001740	-0.002101	-0.002083	-0.510986	-0.595459	0.191895	0.409553	0.642264	-0.298185	0.575195	90.886839	-79.451086	28.772245	0.160472	0.088119	0.983099	-0.854172	-0.486704	0.183053	0.494609	-0.869111	-0.002834	0	0	0
57613	0	0	0	0	0	9.610992	1.846746	0.035143	0.002259	0.001818	-0.002019	-0.509277	-0.601318	0.194092	0.409562	0.642255	-0.298189	0.575196	90.881640	-79.451153	28.776283	0.160465	0.088130	0.983099	-0.854183	-0.486686	0.183052	0.494593	-0.869120	-0.002817	0	0	0
57614	0	0	0	0	0	9.659251	1.828918	0.053500	0.004923	-0.003053	0.005140	-0.518066	-0.603271	0.191162	0.409523	0.642263	-0.298213	0.575203	90.897256	-79.455470	28.762243	0.160422	0.088055	0.983113	-0.854180	-0.486720	0.182977	0.494613	-0.869109	-0.002866	0	0	0
57615	0	0	0	0	0	9.692643	1.785513	0.053869	-0.004084	-0.002045	-0.001149	-0.511963	-0.596924	0.204834	0.409546	0.642250	-0.298248	0.575182	90.899976	-79.456019	28.754033	0.160426	0.088028	0.983115	-0.854228	-0.486640	0.182968	0.494529	-0.869157	-0.002874	0	0	0
57616	0	0	0	0	0	9.654677	1.797902	0.067907	0.000466	0.001406	-0.000885	-0.505371	-0.595215	0.201904	0.409546	0.642245	-0.298257	0.575184	90.899029	-79.456925	28.754245	0.160412	0.088021	0.983118	-0.854236	-0.486630	0.182952	0.494518	-0.869163	-0.002871	0	0	0
57617	0	0	0	0	0	9.679813	1.818159	0.118289	0.003119	-0.000582	-0.001383	-0.509766	-0.592773	0.204346	0.409539	0.642249	-0.298258	0.575184	90.902986	-79.457335	28.750897	0.160411	0.088008	0.983119	-0.854232	-0.486641	0.182945	0.494526	-0.869158	-0.002883	0	0	0
57618	0	0	0	0	0	9.627428	1.818488	0.061497	0.003585	0.000824	-0.002268	-0.501709	-0.600342	0.205811	0.409531	0.642254	-0.298255	0.575185	90.905549	-79.457443	28.749356	0.160412	0.088003	0.983119	-0.854223	-0.486657	0.182943	0.494541	-0.869150	-0.002892	0	0	0
57619	0	0	0	0	0	9.663333	1.846663	0.091530	-0.000414	0.001108	0.001833	-0.508057	-0.591797	0.205322	0.409528	0.642242	-0.298272	0.575192	90.902740	-79.459642	28.750969	0.160376	0.087989	0.983126	-0.854240	-0.486641	0.182905	0.494524	-0.869159	-0.002882	0	0	0
57620	0	0	0	0	0	9.659171	1.829339	0.053463	0.000901	0.002997	-0.006073	-0.508301	-0.596924	0.204346	0.409544	0.642241	-0.298259	0.575189	90.896892	-79.457590	28.756419	0.160399	0.088021	0.983120	-0.854238	-0.486631	0.182941	0.494519	-0.869162	-0.002864	0	0	0
57621	0	0	0	0	0	9.633491	1.796079	0.056207	-0.001326	0.000994	0.000249	-0.507324	-0.595947	0.199707	0.409546	0.642230	-0.298274	0.575191	90.893714	-79.458969	28.758061	0.160376	0.088014	0.983124	-0.854256	-0.486609	0.182917	0.494497	-0.869175	-0.002853	0	0	0
57622	0	0	0	0	0	9.675543	1.801401	0.080681	-0.003098	0.003280	-0.001971	-0.505615	-0.603027	0.196533	0.409564	0.642214	-0.298285	0.575191	90.884901	-79.459269	28.764196	0.160362	0.088029	0.983125	-0.854280	-0.486567	0.182913	0.494458	-0.869197	-0.002825	0	0	0
57623	0	0	0	0	0	9.669334	1.824550	0.086677	-0.003151	0.000767	-0.002919	-0.504883	-0.592285	0.202881	0.409588	0.642201	-0.298301	0.575180	90.880414	-79.458728	28.764831	0.160369	0.088035	0.983123	-0.854312	-0.486508	0.182922	0.494401	-0.869229	-0.002811	0	0	0
57624	0	0	0	0	0	9.665173	1.807260	0.048483	-0.003617	-0.000640	-0.002035	-0.510498	-0.596436	0.204346	0.409601	0.642195	-0.298322	0.575167	90.883368	-79.458957	28.758695	0.160375	0.088016	0.983124	-0.854340	-0.486462	0.182918	0.494352	-0.869257	-0.002820	0	0	0
57625	0	0	0	0	0	9.637469	1.814330	0.095038	-0.000912	-0.000114	-0.001584	-0.507568	-0.599609	0.201904	0.409607	0.642190	-0.298332	0.575162	90.883623	-79.459275	28.756967	0.160373	0.088009	0.983125	-0.854353	-0.486440	0.182913	0.494330	-0.869270	-0.002821	0	0	0
57626	0	0	0	0	0	9.675375	1.802288	0.081019	0.005378	0.001237	-0.003402	-0.512695	-0.591064	0.197754	0.409598	0.642199	-0.298319	0.575165	90.885887	-79.458736	28.756775	0.160381	0.088013	0.983123	-0.854333	-0.486471	0.182922	0.494360	-0.869252	-0.002828	0	0	0
57627	0	0	0	0	0	9.635800	1.868652	0.086214	0.004964	0.002345	-0.001569	-0.510742	-0.596680	0.194824	0.409591	0.642198	-0.298310	0.575177	90.881376	-79.459126	28.762792	0.160366	0.088026	0.983125	-0.854322	-0.486493	0.182915	0.494384	-0.869239	-0.002814	0	0	0
57628	0	0	0	0	0	9.662903	1.848839	0.092917	-0.000871	0.005283	-0.008292	-0.506836	-0.598877	0.200439	0.409622	0.642190	-0.298291	0.575174	90.867375	-79.455821	28.775501	0.160396	0.088089	0.983114	-0.854326	-0.486465	0.182973	0.494368	-0.869248	-0.002770	0	0	0
57629	0	0	0	0	0	9.647506	1.810191	0.128176	0.000446	-0.001292	0.002469	-0.516113	-0.595703	0.207031	0.409616	0.642182	-0.298317	0.575173	90.871425	-79.458430	28.769699	0.160366	0.088051	0.983122	-0.854348	-0.486444	0.182928	0.494341	-0.869264	-0.002782	0	0	0
57630	0	0	0	0	0	9.654146	1.800690	0.069511	-0.003151	0.000766	-0.002919	-0.511475	-0.594238	0.205811	0.409632	0.642174	-0.298331	0.575163	90.870275	-79.458164	28.768010	0.160373	0.088049	0.983122	-0.854371	-0.486401	0.182932	0.494298	-0.869288	-0.002779	0	0	0
57631	0	0	0	0	0	9.647916	1.823930	0.075329	0.002673	0.000711	-0.003852	-0.510986	-0.593018	0.207275	0.409632	0.642179	-0.298321	0.575163	90.870031	-79.457296	28.769119	0.160384	0.088059	0.983119	-0.854361	-0.486412	0.182947	0.494311	-0.869281	-0.002778	0	0	0
57632	0	0	0	0	0	9.675062	1.803924	0.081965	0.002778	0.005738	-0.001955	-0.509521	-0.591553	0.202881	0.409634	0.642167	-0.298311	0.575180	90.857017	-79.457625	28.782953	0.160358	0.088095	0.983120	-0.854357	-0.486422	0.182942	0.494327	-0.869272	-0.002737	0	0	0
57633	0	0	0	0	0	9.679594	1.835116	0.067628	0.001347	0.001705	-0.003603	-0.507080	-0.599609	0.200684	0.409639	0.642166	-0.298303	0.575182	90.852958	-79.456884	28.787283	0.160362	0.088113	0.983117	-0.854353	-0.486423	0.182955	0.494332	-0.869269	-0.002724	0	0	0
57634	0	0	0	0	0	9.647732	1.824873	0.076116	0.001814	0.003110	-0.004487	-0.508057	-0.590576	0.199463	0.409647	0.642164	-0.298292	0.575184	90.847364	-79.455739	28.793007	0.160371	0.088139	0.983114	-0.854350	-0.486422	0.182975	0.494336	-0.869267	-0.002706	0	0	0
57635	0	0	0	0	0	9.674873	1.804900	0.082813	-0.003098	0.003279	-0.001971	-0.510498	-0.597900	0.209961	0.409668	0.642144	-0.298303	0.575185	90.835459	-79.455857	28.801895	0.160355	0.088163	0.983114	-0.854377	-0.486374	0.182974	0.494293	-0.869291	-0.002668	0	0	0
57636	0	0	0	0	0	9.636892	1.817278	0.097147	0.001845	0.002926	-0.000185	-0.514160	-0.590088	0.199707	0.409664	0.642137	-0.298307	0.575195	90.830644	-79.457176	28.806844	0.160328	0.088166	0.983118	-0.854381	-0.486377	0.182951	0.494296	-0.869289	-0.002653	0	0	0
57637	0	0	0	0	0	9.657888	1.820081	0.109337	-0.000497	-0.001222	-0.003417	-0.510498	-0.593262	0.196777	0.409671	0.642139	-0.298312	0.575185	90.834414	-79.456529	28.801925	0.160345	0.088157	0.983116	-0.854388	-0.486360	0.182962	0.494278	-0.869300	-0.002665	0	0	0
57638	0	0	0	0	0	9.636781	1.817872	0.097117	0.005793	0.000130	-0.005234	-0.514893	-0.593506	0.197998	0.409664	0.642155	-0.298294	0.575181	90.840241	-79.454931	28.798350	0.160374	0.088161	0.983111	-0.854364	-0.486392	0.182989	0.494310	-0.869281	-0.002684	0	0	0
57639	0	0	0	0	0	9.642881	1.795359	0.091277	0.002207	-0.000695	-0.002967	-0.501221	-0.591309	0.206055	0.409666	0.642158	-0.298295	0.575176	90.843072	-79.454576	28.795202	0.160385	0.088155	0.983110	-0.854365	-0.486388	0.182995	0.494305	-0.869284	-0.002693	0	0	0
57640	0	0	0	0	0	9.642822	1.795682	0.091175	0.006705	0.000244	-0.003649	-0.512695	-0.593994	0.202148	0.409652	0.642173	-0.298279	0.575178	90.849141	-79.453888	28.791913	0.160400	0.088151	0.983108	-0.854339	-0.486430	0.183007	0.494345	-0.869261	-0.002712	0	0	0
57641	0	0	0	0	0	9.672941	1.860522	0.073926	0.002674	0.000710	-0.003851	-0.503662	-0.599365	0.197021	0.409652	0.642177	-0.298269	0.575177	90.848877	-79.452926	28.792992	0.160413	0.088162	0.983105	-0.854329	-0.486441	0.183023	0.494358	-0.869254	-0.002712	0	0	0
57642	0	0	0	0	0	9.647272	1.827286	0.076488	0.000881	0.000298	-0.002718	-0.503418	-0.596680	0.202393	0.409654	0.642179	-0.298273	0.575172	90.851482	-79.452771	28.789831	0.160420	0.088155	0.983104	-0.854333	-0.486433	0.183026	0.494349	-0.869259	-0.002720	0	0	0
57643	0	0	0	0	0	9.668266	1.830108	0.088617	0.001793	0.000412	-0.001133	-0.510254	-0.598633	0.200195	0.409656	0.642175	-0.298279	0.575172	90.851296	-79.453222	28.789315	0.160414	0.088149	0.983106	-0.854340	-0.486423	0.183018	0.494338	-0.869265	-0.002719	0	0	0
57644	0	0	0	0	0	9.647219	1.827558	0.076625	-0.000860	0.002399	-0.000636	-0.512939	-0.594482	0.200439	0.409661	0.642164	-0.298291	0.575175	90.846532	-79.454278	28.792636	0.160393	0.088150	0.983109	-0.854356	-0.486402	0.183000	0.494317	-0.869277	-0.002704	0	0	0
57645	0	0	0	0	0	9.664144	1.812697	0.050550	0.001327	-0.000994	-0.000249	-0.509521	-0.593018	0.193848	0.409657	0.642162	-0.298304	0.575172	90.850236	-79.455403	28.788093	0.160383	0.088128	0.983113	-0.854366	-0.486392	0.182981	0.494304	-0.869285	-0.002716	0	0	0
57646	0	0	0	0	0	9.636410	1.819831	0.097224	-0.002218	0.003577	-0.004689	-0.508057	-0.591797	0.196533	0.409680	0.642151	-0.298303	0.575169	90.840886	-79.454147	28.795288	0.160391	0.088158	0.983109	-0.854382	-0.486355	0.183003	0.494273	-0.869302	-0.002686	0	0	0
57647	0	0	0	0	0	9.668151	1.830693	0.089075	0.004031	-0.000467	0.000202	-0.513184	-0.592529	0.198975	0.409668	0.642152	-0.298310	0.575173	90.844099	-79.455556	28.792686	0.160374	0.088140	0.983113	-0.854380	-0.486368	0.182978	0.494282	-0.869297	-0.002696	0	0	0
57648	0	0	0	0	0	9.661948	1.853729	0.094757	0.000881	0.000298	-0.002718	-0.513184	-0.598145	0.189941	0.409670	0.642154	-0.298313	0.575168	90.846703	-79.455401	28.789526	0.160381	0.088132	0.983113	-0.854384	-0.486360	0.182981	0.494273	-0.869303	-0.002704	0	0	0
57649	0	0	0	0	0	9.668098	1.830971	0.089093	0.003171	0.001933	-0.000434	-0.510986	-0.597168	0.205566	0.409668	0.642146	-0.298317	0.575177	90.841743	-79.456504	28.794374	0.160357	0.088136	0.983116	-0.854389	-0.486358	0.182962	0.494273	-0.869303	-0.002688	0	0	0
57650	0	0	0	0	0	9.659396	1.782684	0.065640	0.004052	0.002230	-0.003151	-0.517090	-0.595459	0.204590	0.409664	0.642149	-0.298307	0.575182	90.840196	-79.456117	28.797285	0.160358	0.088148	0.983115	-0.854376	-0.486378	0.182969	0.494294	-0.869291	-0.002683	0	0	0
57651	0	0	0	0	0	9.646993	1.828730	0.077121	0.003120	-0.000581	-0.001382	-0.517090	-0.596680	0.206543	0.409655	0.642153	-0.298308	0.575183	90.844107	-79.456635	28.794131	0.160355	0.088135	0.983117	-0.854371	-0.486391	0.182960	0.494304	-0.869285	-0.002696	0	0	0
57652	0	0	0	0	0	9.645359	1.882709	0.068009	0.004446	-0.001575	-0.001630	-0.505371	-0.599365	0.202393	0.409640	0.642166	-0.298308	0.575179	90.854567	-79.457088	28.785059	0.160362	0.088106	0.983118	-0.854359	-0.486415	0.182952	0.494322	-0.869274	-0.002729	0	0	0
57653	0	0	0	0	0	9.625445	1.812935	0.117698	-0.001327	0.000994	0.000249	-0.515381	-0.594482	0.196777	0.409645	0.642153	-0.298325	0.575180	90.851161	-79.458472	28.786517	0.160339	0.088098	0.983123	-0.854380	-0.486387	0.182928	0.494294	-0.869291	-0.002718	0	0	0
57654	0	0	0	0	0	9.646937	1.829032	0.077018	0.002259	0.001818	-0.002018	-0.519531	-0.595215	0.212891	0.409642	0.642152	-0.298324	0.575184	90.849906	-79.458731	28.788086	0.160333	0.088100	0.983123	-0.854378	-0.486392	0.182924	0.494299	-0.869288	-0.002714	0	0	0
57655	0	0	0	0	0	9.642838	1.811527	0.038827	-0.001793	-0.000412	0.001133	-0.511963	-0.599609	0.203369	0.409642	0.642142	-0.298347	0.575184	90.850439	-79.460778	28.785602	0.160306	0.088077	0.983130	-0.854400	-0.486366	0.182888	0.494269	-0.869305	-0.002715	0	0	0
57656	0	0	0	0	0	9.674134	1.808824	0.083470	-0.000912	-0.000115	-0.001584	-0.513184	-0.594238	0.203369	0.409646	0.642140	-0.298360	0.575177	90.853338	-79.461269	28.781099	0.160306	0.088060	0.983131	-0.854415	-0.486344	0.182880	0.494244	-0.869319	-0.002724	0	0	0
57657	0	0	0	0	0	9.674083	1.809101	0.083423	0.004001	-0.000284	-0.004099	-0.511475	-0.600586	0.208008	0.409644	0.642148	-0.298350	0.575174	90.856542	-79.460193	28.778916	0.160325	0.088063	0.983128	-0.854403	-0.486358	0.182898	0.494259	-0.869311	-0.002734	0	0	0
57658	0	0	0	0	0	9.631960	1.804181	0.059143	0.005379	0.001237	-0.003400	-0.513428	-0.588623	0.200439	0.409635	0.642157	-0.298337	0.575177	90.858800	-79.459655	28.778730	0.160334	0.088067	0.983126	-0.854383	-0.486389	0.182907	0.494290	-0.869293	-0.002742	0	0	0
57659	0	0	0	0	0	9.652923	1.807168	0.071226	0.006706	0.000243	-0.003648	-0.503906	-0.591064	0.203857	0.409622	0.642170	-0.298318	0.575181	90.862074	-79.458875	28.778365	0.160346	0.088072	0.983124	-0.854356	-0.486432	0.182921	0.494333	-0.869268	-0.002752	0	0	0
57660	0	0	0	0	0	9.646674	1.830425	0.076916	0.005379	0.001236	-0.003399	-0.510498	-0.598389	0.198486	0.409613	0.642179	-0.298305	0.575184	90.864332	-79.458337	28.778180	0.160354	0.088076	0.983122	-0.854337	-0.486462	0.182930	0.494364	-0.869251	-0.002760	0	0	0
