// General information: 
//  MT Manager version: 2022.2.0 
//  XDA version: 2022.2.0 build 7381 rev 124627 built on 2023-07-19
// Device information: 
//  DeviceId: 10B426ED
//  ProductCode: MTW2-3A7G6
//  Firmware Version: 4.14.0
//  Hardware Version: 3.0.0
// Device settings: 
//  Filter Profile: human(46.1)
//  Option Flags: Orientation Smoother Disabled, Position/Velocity Smoother Disabled, Continuous Zero Rotation Update Disabled, AHS Disabled, ICC Disabled
// Coordinate system: ENU
PacketCounter	SampleTimeFine	Year	Month	Day	Second	Acc_X	Acc_Y	Acc_Z	Gyr_X	Gyr_Y	Gyr_Z	Mag_X	Mag_Y	Mag_Z	Quat_q0	Quat_q1	Quat_q2	Quat_q3	Roll	Pitch	Yaw	Mat[1][1]	Mat[2][1]	Mat[3][1]	Mat[1][2]	Mat[2][2]	Mat[3][2]	Mat[1][3]	Mat[2][3]	Mat[3][3]	Vel_E	Vel_N	Vel_U
57202	0	0	0	0	0	9.714273	1.204564	-0.684441	-0.005378	0.011015	-0.003185	-0.722900	-0.575195	0.192627	0.355035	0.671398	-0.303162	0.575559	123.748392	-81.161029	0.597546	0.153650	0.001602	0.988124	-0.815772	-0.564085	0.127764	0.557591	-0.825715	-0.085364	0	0	0
57203	0	0	0	0	0	9.704454	1.172020	-0.679923	-0.004201	0.010146	-0.003734	-0.727783	-0.579346	0.197266	0.355068	0.671367	-0.303163	0.575573	123.720697	-81.163033	0.622174	0.153614	0.001668	0.988129	-0.815804	-0.564037	0.127777	0.557555	-0.825748	-0.085283	0	0	0
57204	0	0	0	0	0	9.705090	1.195899	-0.624369	-0.003216	0.001939	-0.000476	-0.735352	-0.573975	0.200439	0.355089	0.671344	-0.303197	0.575570	123.719548	-81.164967	0.618464	0.153581	0.001658	0.988135	-0.815856	-0.563967	0.127751	0.557488	-0.825795	-0.085262	0	0	0
57205	0	0	0	0	0	9.708356	1.175496	-0.637489	0.002414	-0.005739	-0.000258	-0.717041	-0.585205	0.199951	0.355065	0.671365	-0.303219	0.575548	123.751444	-81.163573	0.586621	0.153606	0.001573	0.988131	-0.815856	-0.563974	0.127723	0.557481	-0.825791	-0.085347	0	0	0
57206	0	0	0	0	0	9.745034	1.162886	-0.654748	0.013432	-0.005086	-0.003187	-0.726074	-0.580566	0.197266	0.355025	0.671398	-0.303206	0.575541	123.776638	-81.161846	0.566265	0.153636	0.001518	0.988126	-0.815807	-0.564047	0.127711	0.557544	-0.825741	-0.085419	0	0	0
57207	0	0	0	0	0	9.714218	1.205258	-0.684006	0.013050	-0.001520	0.002493	-0.724854	-0.580811	0.195557	0.354964	0.671422	-0.303199	0.575554	123.807330	-81.163102	0.541807	0.153615	0.001453	0.988130	-0.815752	-0.564141	0.127647	0.557630	-0.825677	-0.085476	0	0	0
57208	0	0	0	0	0	9.724042	1.238207	-0.687710	0.004401	-0.001705	-0.004469	-0.720703	-0.583740	0.199707	0.354968	0.671428	-0.303207	0.575541	123.813487	-81.161885	0.534514	0.153637	0.001433	0.988126	-0.815761	-0.564126	0.127655	0.557611	-0.825688	-0.085501	0	0	0
57209	0	0	0	0	0	9.744321	1.233861	-0.674883	0.005142	0.006097	-0.004578	-0.726563	-0.582764	0.208740	0.354966	0.671427	-0.303186	0.575554	123.801825	-81.162203	0.548333	0.153631	0.001470	0.988127	-0.815739	-0.564155	0.127668	0.557644	-0.825668	-0.085472	0	0	0
57210	0	0	0	0	0	9.714116	1.206287	-0.683641	-0.002337	0.003941	-0.007694	-0.722168	-0.583496	0.197754	0.355006	0.671414	-0.303188	0.575545	123.781468	-81.161003	0.564811	0.153651	0.001515	0.988124	-0.815772	-0.564096	0.127715	0.557590	-0.825708	-0.085438	0	0	0
57211	0	0	0	0	0	9.734383	1.202104	-0.670700	-0.008099	0.000279	-0.003262	-0.719971	-0.574707	0.201904	0.355036	0.671404	-0.303219	0.575521	123.782732	-81.160093	0.557871	0.153667	0.001496	0.988122	-0.815826	-0.564015	0.127727	0.557507	-0.825763	-0.085450	0	0	0
57212	0	0	0	0	0	9.696999	1.191631	-0.708638	-0.006425	0.004980	-0.005349	-0.726563	-0.575684	0.201660	0.355082	0.671377	-0.303237	0.575515	123.761190	-81.160449	0.573578	0.153660	0.001538	0.988123	-0.815882	-0.563928	0.127754	0.557427	-0.825822	-0.085398	0	0	0
57213	0	0	0	0	0	9.694899	1.165669	-0.621245	-0.007104	-0.006826	-0.004400	-0.720215	-0.573242	0.202148	0.355101	0.671391	-0.303274	0.575467	123.782448	-81.156734	0.546980	0.153725	0.001468	0.988113	-0.815929	-0.563856	0.127775	0.557341	-0.825872	-0.085481	0	0	0
57214	0	0	0	0	0	9.753941	1.174893	-0.712934	0.006372	0.000125	0.000111	-0.726074	-0.576416	0.206055	0.355073	0.671396	-0.303274	0.575478	123.795157	-81.158238	0.536905	0.153699	0.001440	0.988117	-0.815908	-0.563896	0.127735	0.557379	-0.825845	-0.085495	0	0	0
57215	0	0	0	0	0	9.714533	1.137650	-0.663872	-0.003147	-0.000962	-0.004031	-0.724121	-0.578125	0.197998	0.355087	0.671400	-0.303291	0.575457	123.801476	-81.156566	0.527721	0.153728	0.001416	0.988112	-0.815933	-0.563856	0.127749	0.557334	-0.825872	-0.085525	0	0	0
57216	0	0	0	0	0	9.710582	1.134793	-0.705933	0.005823	-0.000339	-0.003589	-0.723145	-0.575195	0.204346	0.355075	0.671409	-0.303285	0.575457	123.807476	-81.156149	0.523314	0.153736	0.001404	0.988111	-0.815917	-0.563880	0.127746	0.557355	-0.825856	-0.085543	0	0	0
57217	0	0	0	0	0	9.750557	1.196008	-0.700179	0.013302	0.001818	-0.000473	-0.723877	-0.578613	0.188232	0.355027	0.671428	-0.303262	0.575476	123.822001	-81.157057	0.515362	0.153720	0.001383	0.988113	-0.815856	-0.563976	0.127711	0.557449	-0.825790	-0.085566	0	0	0
57218	0	0	0	0	0	9.700693	1.196349	-0.666989	0.002850	0.003832	-0.002636	-0.728271	-0.579102	0.195313	0.355034	0.671415	-0.303265	0.575485	123.814390	-81.158514	0.522102	0.153695	0.001401	0.988117	-0.815867	-0.563962	0.127702	0.557440	-0.825799	-0.085535	0	0	0
57219	0	0	0	0	0	9.744634	1.166581	-0.654127	0.003094	0.006066	-0.001207	-0.723389	-0.581787	0.197510	0.355029	0.671405	-0.303261	0.575502	123.808560	-81.160427	0.528831	0.153662	0.001418	0.988122	-0.815862	-0.563974	0.127683	0.557456	-0.825791	-0.085504	0	0	0
57220	0	0	0	0	0	9.734162	1.204474	-0.669654	0.003965	0.006966	-0.004027	-0.724365	-0.578125	0.197998	0.355046	0.671385	-0.303256	0.575518	123.788865	-81.162208	0.547488	0.153631	0.001468	0.988127	-0.815874	-0.563956	0.127687	0.557448	-0.825804	-0.085443	0	0	0
57221	0	0	0	0	0	9.724328	1.171954	-0.665506	0.004523	0.008532	-0.004722	-0.720215	-0.568604	0.207031	0.355051	0.671376	-0.303232	0.575538	123.769085	-81.163232	0.569163	0.153612	0.001526	0.988130	-0.815855	-0.563979	0.127702	0.557480	-0.825787	-0.085389	0	0	0
57222	0	0	0	0	0	9.703964	1.177335	-0.677730	0.003792	0.001831	-0.009010	-0.721680	-0.572998	0.197021	0.355058	0.671386	-0.303203	0.575536	123.756623	-81.160917	0.583449	0.153652	0.001565	0.988124	-0.815831	-0.564003	0.127754	0.557505	-0.825771	-0.085384	0	0	0
57223	0	0	0	0	0	9.747769	1.242037	-0.630254	0.004456	-0.006808	0.000770	-0.726318	-0.577881	0.208496	0.355024	0.671413	-0.303225	0.575515	123.795037	-81.159671	0.546191	0.153674	0.001465	0.988120	-0.815821	-0.564026	0.127714	0.557513	-0.825756	-0.085481	0	0	0
57224	0	0	0	0	0	9.734010	1.205963	-0.669190	0.008421	0.000156	-0.003257	-0.729492	-0.578857	0.205322	0.355000	0.671426	-0.303209	0.575523	123.801980	-81.159563	0.542922	0.153676	0.001456	0.988120	-0.815785	-0.564080	0.127705	0.557565	-0.825719	-0.085498	0	0	0
57225	0	0	0	0	0	9.716951	1.190511	-0.694881	-0.002284	-0.001164	-0.002455	-0.721436	-0.578125	0.197021	0.355005	0.671430	-0.303229	0.575505	123.812637	-81.158578	0.529849	0.153694	0.001421	0.988118	-0.815808	-0.564047	0.127704	0.557526	-0.825741	-0.085531	0	0	0
57226	0	0	0	0	0	9.737261	1.185974	-0.681977	0.000496	0.005568	-0.001538	-0.725586	-0.581543	0.202881	0.355018	0.671408	-0.303238	0.575518	123.801391	-81.161029	0.539241	0.153651	0.001446	0.988124	-0.815830	-0.564019	0.127685	0.557505	-0.825761	-0.085482	0	0	0
57227	0	0	0	0	0	9.709764	1.208205	-0.723058	0.004523	0.008531	-0.004722	-0.723145	-0.581299	0.198730	0.355022	0.671399	-0.303213	0.575539	123.781616	-81.162054	0.560911	0.153633	0.001504	0.988127	-0.815812	-0.564042	0.127700	0.557538	-0.825744	-0.085428	0	0	0
57228	0	0	0	0	0	9.683476	1.183856	-0.689754	0.012143	0.004887	-0.008711	-0.719971	-0.568115	0.194824	0.355019	0.671408	-0.303170	0.575553	123.764089	-81.160801	0.582691	0.153654	0.001563	0.988123	-0.815765	-0.564100	0.127744	0.557600	-0.825705	-0.085401	0	0	0
57229	0	0	0	0	0	9.743706	1.240894	-0.670852	0.004279	0.006296	-0.006151	-0.735596	-0.570557	0.195068	0.355024	0.671407	-0.303145	0.575563	123.748092	-81.160433	0.600396	0.153660	0.001610	0.988122	-0.815746	-0.564121	0.127773	0.557627	-0.825690	-0.085369	0	0	0
57230	0	0	0	0	0	9.741039	1.191345	-0.637774	0.004279	0.006296	-0.006150	-0.733398	-0.571045	0.195557	0.355032	0.671398	-0.303121	0.575582	123.727012	-81.161258	0.622976	0.153645	0.001671	0.988125	-0.815730	-0.564139	0.127793	0.557653	-0.825678	-0.085314	0	0	0
57231	0	0	0	0	0	9.680631	1.229651	-0.620611	0.000872	0.000899	-0.002820	-0.726074	-0.573242	0.198242	0.355032	0.671401	-0.303127	0.575575	123.732417	-81.160758	0.617045	0.153654	0.001655	0.988123	-0.815735	-0.564133	0.127792	0.557644	-0.825683	-0.085331	0	0	0
57232	0	0	0	0	0	9.740956	1.192127	-0.637575	0.005581	-0.002575	-0.005014	-0.727539	-0.585693	0.197998	0.355021	0.671417	-0.303122	0.575567	123.741726	-81.159250	0.609168	0.153680	0.001634	0.988119	-0.815719	-0.564155	0.127800	0.557661	-0.825668	-0.085366	0	0	0
57233	0	0	0	0	0	9.730403	1.230164	-0.653808	0.005204	0.002094	-0.003732	-0.721680	-0.589355	0.194824	0.355010	0.671426	-0.303110	0.575569	123.744083	-81.158696	0.608835	0.153690	0.001633	0.988118	-0.815698	-0.564184	0.127804	0.557689	-0.825648	-0.085377	0	0	0
57234	0	0	0	0	0	9.680452	1.230854	-0.621016	-0.005366	-0.006131	-0.005644	-0.720703	-0.581299	0.200928	0.355053	0.671425	-0.303159	0.575518	123.755165	-81.155377	0.589238	0.153747	0.001581	0.988109	-0.815775	-0.564064	0.127835	0.557559	-0.825729	-0.085433	0	0	0
57235	0	0	0	0	0	9.746664	1.223268	-0.683677	-0.001654	-0.002501	-0.006704	-0.725586	-0.584717	0.202148	0.355067	0.671440	-0.303165	0.575489	123.761573	-81.151945	0.580828	0.153807	0.001559	0.988100	-0.815788	-0.564037	0.127875	0.557524	-0.825748	-0.085481	0	0	0
57236	0	0	0	0	0	9.719683	1.269358	-0.670223	0.001609	0.008700	-0.002929	-0.725830	-0.571533	0.197510	0.355089	0.671411	-0.303165	0.575509	123.738210	-81.154589	0.602265	0.153761	0.001616	0.988107	-0.815810	-0.564006	0.127872	0.557504	-0.825769	-0.085403	0	0	0
57237	0	0	0	0	0	9.726307	1.229064	-0.695010	-0.006237	0.012308	-0.009160	-0.720215	-0.575684	0.198486	0.355148	0.671378	-0.303150	0.575518	123.691637	-81.154697	0.644815	0.153757	0.001730	0.988107	-0.815845	-0.563940	0.127940	0.557455	-0.825814	-0.085298	0	0	0
57238	0	0	0	0	0	9.720334	1.200194	-0.648673	-0.000916	0.005300	-0.006812	-0.721924	-0.574707	0.202637	0.355175	0.671364	-0.303142	0.575523	123.669501	-81.154635	0.665270	0.153758	0.001785	0.988107	-0.815859	-0.563912	0.127974	0.557434	-0.825833	-0.085249	0	0	0
57239	0	0	0	0	0	9.730075	1.233851	-0.651747	-0.008088	0.001372	-0.007660	-0.726074	-0.579346	0.202637	0.355219	0.671358	-0.303156	0.575495	123.658437	-81.151980	0.670811	0.153803	0.001801	0.988100	-0.815906	-0.563832	0.128028	0.557353	-0.825888	-0.085250	0	0	0
57240	0	0	0	0	0	9.740524	1.196910	-0.635217	-0.009023	0.004474	-0.005682	-0.728271	-0.581055	0.196533	0.355269	0.671331	-0.303176	0.575485	123.637090	-81.152062	0.685710	0.153802	0.001841	0.988100	-0.815967	-0.563736	0.128059	0.557263	-0.825953	-0.085202	0	0	0
57241	0	0	0	0	0	9.670977	1.131787	-0.595196	-0.008897	-0.003528	-0.003999	-0.723633	-0.577637	0.200684	0.355298	0.671331	-0.303214	0.575447	123.648048	-81.149598	0.668495	0.153845	0.001795	0.988093	-0.816025	-0.563649	0.128078	0.557168	-0.826013	-0.085250	0	0	0
57242	0	0	0	0	0	9.723413	1.182027	-0.661033	0.008485	-0.003842	-0.002412	-0.724854	-0.584229	0.204590	0.355274	0.671350	-0.303217	0.575438	123.667953	-81.148685	0.650477	0.153861	0.001747	0.988091	-0.816006	-0.563679	0.128061	0.557190	-0.825992	-0.085303	0	0	0
57243	0	0	0	0	0	9.730549	1.165057	-0.632424	-0.000484	-0.004468	-0.002858	-0.725830	-0.588135	0.201660	0.355270	0.671367	-0.303237	0.575411	123.688921	-81.146465	0.628010	0.153900	0.001687	0.988085	-0.816018	-0.563661	0.128062	0.557161	-0.826004	-0.085371	0	0	0
57244	0	0	0	0	0	9.739719	1.174675	-0.691284	0.003606	-0.005506	-0.005199	-0.722656	-0.571289	0.196533	0.355273	0.671385	-0.303251	0.575381	123.705639	-81.143479	0.609579	0.153952	0.001638	0.988077	-0.816030	-0.563640	0.128080	0.557129	-0.826019	-0.085437	0	0	0
57245	0	0	0	0	0	9.725797	1.233364	-0.694533	-0.003514	0.004802	-0.007142	-0.727295	-0.577637	0.202637	0.355305	0.671376	-0.303248	0.575372	123.687755	-81.142162	0.624675	0.153974	0.001679	0.988073	-0.816053	-0.563597	0.128125	0.557090	-0.826048	-0.085409	0	0	0
57246	0	0	0	0	0	9.762525	1.221249	-0.710660	-0.001789	0.004401	-0.003992	-0.732422	-0.585205	0.202637	0.355326	0.671358	-0.303253	0.575377	123.673907	-81.143165	0.636254	0.153957	0.001710	0.988076	-0.816076	-0.563562	0.128132	0.557062	-0.826072	-0.085369	0	0	0
57247	0	0	0	0	0	9.725760	1.234258	-0.693455	0.005382	0.008331	-0.003144	-0.719238	-0.581055	0.198975	0.355322	0.671349	-0.303232	0.575402	123.658473	-81.144874	0.654029	0.153927	0.001757	0.988081	-0.816055	-0.563593	0.128130	0.557101	-0.826051	-0.085318	0	0	0
57248	0	0	0	0	0	9.709284	1.242644	-0.663763	0.002922	0.000929	-0.006186	-0.724854	-0.576416	0.198242	0.355338	0.671349	-0.303232	0.575392	123.652963	-81.143575	0.658035	0.153949	0.001768	0.988077	-0.816066	-0.563571	0.128157	0.557078	-0.826066	-0.085318	0	0	0
57249	0	0	0	0	0	9.706638	1.193031	-0.631049	-0.000611	0.003533	-0.004540	-0.723389	-0.578857	0.195801	0.355351	0.671345	-0.303232	0.575389	123.645932	-81.143094	0.663830	0.153957	0.001784	0.988076	-0.816076	-0.563552	0.128174	0.557061	-0.826079	-0.085307	0	0	0
57250	0	0	0	0	0	9.732877	1.218214	-0.663445	0.008906	0.004628	-0.000395	-0.727539	-0.577393	0.191895	0.355332	0.671337	-0.303223	0.575414	123.644111	-81.145860	0.668317	0.153909	0.001795	0.988083	-0.816056	-0.563590	0.128137	0.557103	-0.826053	-0.085276	0	0	0
57251	0	0	0	0	0	9.682258	1.289083	-0.649696	0.009778	0.005526	-0.003213	-0.721436	-0.578613	0.197998	0.355310	0.671344	-0.303194	0.575435	123.639630	-81.146646	0.677556	0.153895	0.001820	0.988085	-0.816011	-0.563657	0.128133	0.557174	-0.826007	-0.085259	0	0	0
57252	0	0	0	0	0	9.698668	1.281462	-0.678979	-0.001346	-0.004269	-0.004432	-0.723877	-0.586426	0.203125	0.355325	0.671348	-0.303220	0.575407	123.650549	-81.144701	0.662754	0.153929	0.001781	0.988080	-0.816046	-0.563603	0.128144	0.557113	-0.826044	-0.085302	0	0	0
57253	0	0	0	0	0	9.718365	1.253696	-0.721315	-0.017614	-0.000826	-0.007411	-0.718506	-0.581543	0.196533	0.355397	0.671331	-0.303267	0.575358	123.641267	-81.141468	0.660968	0.153985	0.001776	0.988072	-0.816146	-0.563444	0.128205	0.556950	-0.826153	-0.085312	0	0	0
57254	0	0	0	0	0	9.702348	1.286075	-0.637020	-0.021083	-0.002224	-0.004923	-0.726074	-0.569092	0.190430	0.355486	0.671295	-0.303346	0.575303	123.633978	-81.139673	0.652729	0.154016	0.001755	0.988067	-0.816294	-0.563221	0.128241	0.556725	-0.826304	-0.085313	0	0	0
57255	0	0	0	0	0	9.752920	1.216104	-0.650003	-0.029002	0.004278	-0.007597	-0.723145	-0.580322	0.194336	0.355605	0.671243	-0.303416	0.575253	123.602180	-81.137971	0.667126	0.154045	0.001794	0.988062	-0.816458	-0.562968	0.128313	0.556477	-0.826477	-0.085258	0	0	0
57256	0	0	0	0	0	9.722767	1.188673	-0.658616	-0.022324	0.002640	-0.005211	-0.726074	-0.573486	0.204346	0.355701	0.671193	-0.303485	0.575217	123.578271	-81.137951	0.675895	0.154045	0.001817	0.988062	-0.816604	-0.562748	0.128349	0.556263	-0.826627	-0.085205	0	0	0
57257	0	0	0	0	0	9.729404	1.148434	-0.684001	-0.015951	0.002770	-0.005096	-0.732666	-0.575928	0.190918	0.355766	0.671164	-0.303528	0.575187	123.563657	-81.136963	0.680470	0.154062	0.001830	0.988059	-0.816698	-0.562602	0.128385	0.556119	-0.826726	-0.085181	0	0	0
57258	0	0	0	0	0	9.716239	1.136585	-0.667207	-0.010442	0.003102	-0.006557	-0.728271	-0.579346	0.206543	0.355823	0.671138	-0.303554	0.575169	123.543482	-81.136438	0.693110	0.154071	0.001864	0.988058	-0.816769	-0.562491	0.128422	0.556013	-0.826801	-0.085141	0	0	0
57259	0	0	0	0	0	9.719528	1.116892	-0.679695	-0.006110	0.004301	-0.007469	-0.730957	-0.575928	0.196289	0.355864	0.671126	-0.303558	0.575155	123.525009	-81.134802	0.707297	0.154099	0.001902	0.988054	-0.816805	-0.562427	0.128473	0.555952	-0.826845	-0.085115	0	0	0
57260	0	0	0	0	0	9.729274	1.150396	-0.682548	0.003961	0.006967	-0.004019	-0.723389	-0.584229	0.193115	0.355871	0.671111	-0.303544	0.575176	123.506863	-81.136592	0.726191	0.154067	0.001953	0.988058	-0.816800	-0.562434	0.128474	0.555969	-0.826840	-0.085058	0	0	0
57261	0	0	0	0	0	9.731857	1.200957	-0.714223	-0.003031	0.009268	-0.004277	-0.724121	-0.573975	0.196777	0.355900	0.671086	-0.303542	0.575189	123.481409	-81.138049	0.749228	0.154041	0.002014	0.988062	-0.816824	-0.562395	0.128491	0.555941	-0.826866	-0.084987	0	0	0
57262	0	0	0	0	0	9.712316	1.135320	-0.706980	0.001178	-0.000867	-0.000549	-0.726807	-0.585693	0.194580	0.355901	0.671079	-0.303567	0.575182	123.491398	-81.138992	0.736866	0.154025	0.001981	0.988065	-0.816851	-0.562363	0.128463	0.555906	-0.826888	-0.085000	0	0	0
57263	0	0	0	0	0	9.729743	1.174989	-0.626435	0.002923	0.000933	-0.006184	-0.729248	-0.578857	0.195068	0.355903	0.671091	-0.303556	0.575172	123.491029	-81.136903	0.737968	0.154061	0.001984	0.988059	-0.816839	-0.562374	0.128493	0.555913	-0.826881	-0.085019	0	0	0
57264	0	0	0	0	0	9.729668	1.175532	-0.626573	0.002988	-0.003068	-0.005345	-0.725342	-0.578857	0.197266	0.355913	0.671099	-0.303569	0.575150	123.498852	-81.134898	0.727953	0.154096	0.001958	0.988054	-0.816857	-0.562344	0.128511	0.555878	-0.826901	-0.085056	0	0	0
57265	0	0	0	0	0	9.742699	1.188631	-0.643165	0.005280	-0.000801	-0.007282	-0.726807	-0.582031	0.191650	0.355908	0.671122	-0.303550	0.575136	123.502915	-81.131736	0.725936	0.154151	0.001953	0.988045	-0.816830	-0.562373	0.128550	0.555902	-0.826881	-0.085095	0	0	0
57266	0	0	0	0	0	9.722294	1.193925	-0.656096	0.002988	-0.003068	-0.005345	-0.730713	-0.579102	0.192871	0.355916	0.671131	-0.303560	0.575116	123.510825	-81.129727	0.716313	0.154186	0.001928	0.988040	-0.816843	-0.562350	0.128567	0.555873	-0.826897	-0.085132	0	0	0
57267	0	0	0	0	0	9.698090	1.195820	-0.710621	0.006557	0.007467	-0.003687	-0.728516	-0.577393	0.195557	0.355908	0.671127	-0.303535	0.575138	123.497588	-81.130898	0.732545	0.154165	0.001971	0.988043	-0.816815	-0.562391	0.128570	0.555920	-0.826869	-0.085091	0	0	0
57268	0	0	0	0	0	9.732012	1.227610	-0.658801	0.011511	0.006233	-0.004453	-0.721191	-0.585938	0.195801	0.355897	0.671124	-0.303506	0.575165	123.483900	-81.132369	0.750088	0.154139	0.002018	0.988047	-0.816779	-0.562443	0.128569	0.555980	-0.826833	-0.085046	0	0	0
57269	0	0	0	0	0	9.722241	1.194934	-0.655050	0.002291	0.002266	-0.001937	-0.727051	-0.576172	0.201172	0.355891	0.671125	-0.303509	0.575166	123.487688	-81.132732	0.746616	0.154133	0.002009	0.988048	-0.816777	-0.562449	0.128558	0.555984	-0.826830	-0.085051	0	0	0
57270	0	0	0	0	0	9.718378	1.191929	-0.696944	0.004648	0.000532	-0.003034	-0.723877	-0.575195	0.203857	0.355888	0.671125	-0.303512	0.575165	123.490875	-81.132836	0.743354	0.154131	0.002000	0.988048	-0.816778	-0.562448	0.128552	0.555983	-0.826830	-0.085057	0	0	0
57271	0	0	0	0	0	9.701887	1.200107	-0.667446	0.009776	0.005533	-0.003209	-0.725586	-0.576660	0.199463	0.355866	0.671132	-0.303483	0.575187	123.486366	-81.133623	0.752620	0.154117	0.002025	0.988050	-0.816733	-0.562515	0.128548	0.556054	-0.826785	-0.085040	0	0	0
57272	0	0	0	0	0	9.728553	1.249188	-0.645210	0.011096	-0.002237	-0.006471	-0.724121	-0.579834	0.196289	0.355838	0.671162	-0.303452	0.575185	123.495740	-81.131246	0.748516	0.154158	0.002014	0.988044	-0.816677	-0.562592	0.128568	0.556124	-0.826732	-0.085083	0	0	0
57273	0	0	0	0	0	9.735678	1.232542	-0.616213	0.008674	0.003497	-0.006213	-0.723633	-0.576172	0.193604	0.355825	0.671177	-0.303420	0.575192	123.490750	-81.129955	0.757629	0.154180	0.002039	0.988041	-0.816633	-0.562650	0.128594	0.556183	-0.826693	-0.085085	0	0	0
57274	0	0	0	0	0	9.708546	1.278782	-0.603161	-0.001887	-0.004739	-0.008130	-0.726318	-0.583008	0.198242	0.355851	0.671189	-0.303434	0.575156	123.495597	-81.126071	0.748997	0.154248	0.002017	0.988030	-0.816662	-0.562596	0.128642	0.556122	-0.826729	-0.085132	0	0	0
57275	0	0	0	0	0	9.755319	1.205536	-0.658845	-0.007157	-0.002837	-0.005242	-0.731445	-0.586182	0.204102	0.355878	0.671192	-0.303461	0.575120	123.502887	-81.123241	0.736500	0.154297	0.001983	0.988023	-0.816707	-0.562523	0.128672	0.556041	-0.826779	-0.085176	0	0	0
57276	0	0	0	0	0	9.711259	1.235907	-0.671209	0.001123	0.004230	-0.005780	-0.725098	-0.573730	0.196777	0.355904	0.671179	-0.303463	0.575119	123.487350	-81.123202	0.749547	0.154297	0.002019	0.988022	-0.816730	-0.562485	0.128696	0.556008	-0.826805	-0.085141	0	0	0
57277	0	0	0	0	0	9.724355	1.248793	-0.687112	0.008597	0.006400	-0.002660	-0.722168	-0.579834	0.199219	0.355885	0.671180	-0.303437	0.575142	123.480629	-81.124527	0.760367	0.154274	0.002047	0.988026	-0.816692	-0.562542	0.128687	0.556070	-0.826766	-0.085113	0	0	0
57278	0	0	0	0	0	9.721845	1.198852	-0.653769	0.002399	0.012499	-0.002187	-0.724365	-0.585449	0.197998	0.355901	0.671143	-0.303424	0.575183	123.447831	-81.128890	0.793155	0.154197	0.002135	0.988038	-0.816698	-0.562537	0.128673	0.556082	-0.826770	-0.084998	0	0	0
57279	0	0	0	0	0	9.721875	1.198988	-0.653062	0.007485	0.003267	-0.001271	-0.724854	-0.573486	0.200439	0.355878	0.671149	-0.303412	0.575197	123.452868	-81.129888	0.791430	0.154180	0.002130	0.988040	-0.816668	-0.562585	0.128651	0.556131	-0.826737	-0.085000	0	0	0
57280	0	0	0	0	0	9.702023	1.227422	-0.610709	0.004332	0.001200	-0.000910	-0.718994	-0.583740	0.200195	0.355868	0.671145	-0.303420	0.575202	123.458356	-81.131246	0.786112	0.154157	0.002115	0.988044	-0.816670	-0.562588	0.128623	0.556134	-0.826735	-0.085000	0	0	0
57281	0	0	0	0	0	9.701534	1.203917	-0.665721	0.002674	-0.002402	-0.003219	-0.732910	-0.581543	0.202148	0.355858	0.671162	-0.303425	0.575186	123.474057	-81.129522	0.770804	0.154187	0.002074	0.988039	-0.816664	-0.562597	0.128625	0.556134	-0.826729	-0.085051	0	0	0
57282	0	0	0	0	0	9.714602	1.216700	-0.682256	0.008424	0.000165	-0.003248	-0.727295	-0.577881	0.192139	0.355843	0.671171	-0.303418	0.575189	123.480392	-81.129378	0.766515	0.154190	0.002063	0.988039	-0.816645	-0.562627	0.128617	0.556163	-0.826708	-0.085067	0	0	0
57283	0	0	0	0	0	9.728122	1.253195	-0.643935	0.003853	-0.003270	-0.003767	-0.726807	-0.576416	0.195068	0.355829	0.671194	-0.303420	0.575171	123.498305	-81.127117	0.749652	0.154230	0.002018	0.988033	-0.816631	-0.562645	0.128623	0.556171	-0.826696	-0.085128	0	0	0
57284	0	0	0	0	0	9.748371	1.248884	-0.631522	-0.006295	-0.003037	-0.003668	-0.717285	-0.574951	0.202881	0.355859	0.671185	-0.303459	0.575142	123.504294	-81.126011	0.737189	0.154249	0.001985	0.988030	-0.816693	-0.562554	0.128630	0.556075	-0.826758	-0.085152	0	0	0
57285	0	0	0	0	0	9.745816	1.198904	-0.598988	-0.006133	0.002100	0.001312	-0.723389	-0.580566	0.202393	0.355872	0.671166	-0.303497	0.575136	123.510335	-81.127875	0.726551	0.154217	0.001956	0.988035	-0.816743	-0.562489	0.128595	0.556011	-0.826802	-0.085148	0	0	0
57286	0	0	0	0	0	9.694613	1.246048	-0.640173	-0.001790	0.004397	-0.003989	-0.719971	-0.574951	0.200195	0.355892	0.671150	-0.303500	0.575140	123.496958	-81.128650	0.737860	0.154204	0.001986	0.988037	-0.816764	-0.562457	0.128603	0.555984	-0.826824	-0.085111	0	0	0
57287	0	0	0	0	0	9.731375	1.233848	-0.656556	0.007562	0.000364	-0.004823	-0.730957	-0.578369	0.199463	0.355874	0.671170	-0.303481	0.575138	123.503731	-81.127034	0.734423	0.154232	0.001977	0.988033	-0.816728	-0.562506	0.128617	0.556029	-0.826791	-0.085141	0	0	0
57288	0	0	0	0	0	9.734742	1.213650	-0.669140	0.008836	0.008634	-0.001230	-0.722412	-0.574219	0.199219	0.355858	0.671155	-0.303459	0.575177	123.488693	-81.130644	0.753164	0.154169	0.002027	0.988042	-0.816698	-0.562556	0.128587	0.556090	-0.826756	-0.085073	0	0	0
57289	0	0	0	0	0	9.690746	1.243520	-0.681367	0.002358	-0.001734	-0.001096	-0.733643	-0.588135	0.200928	0.355843	0.671167	-0.303471	0.575167	123.506459	-81.130145	0.735582	0.154178	0.001979	0.988041	-0.816697	-0.562562	0.128568	0.556089	-0.826753	-0.085118	0	0	0
57290	0	0	0	0	0	9.711855	1.168459	-0.649382	-0.000478	-0.004469	-0.002857	-0.730469	-0.572021	0.204346	0.355849	0.671172	-0.303499	0.575141	123.522572	-81.128809	0.716277	0.154202	0.001928	0.988038	-0.816727	-0.562519	0.128563	0.556038	-0.826782	-0.085167	0	0	0
57291	0	0	0	0	0	9.754964	1.209529	-0.656786	0.009603	-0.000702	-0.003795	-0.726074	-0.581543	0.200684	0.355820	0.671197	-0.303479	0.575141	123.535851	-81.127347	0.707438	0.154227	0.001904	0.988034	-0.816682	-0.562585	0.128564	0.556098	-0.826737	-0.085211	0	0	0
57292	0	0	0	0	0	9.701166	1.206824	-0.665820	0.006078	0.002994	-0.006542	-0.731201	-0.586182	0.195801	0.355819	0.671202	-0.303455	0.575148	123.526174	-81.126643	0.719408	0.154239	0.001937	0.988032	-0.816657	-0.562616	0.128589	0.556131	-0.826716	-0.085196	0	0	0
57293	0	0	0	0	0	9.721888	1.226157	-0.598313	-0.005127	-0.005001	0.000175	-0.727539	-0.579102	0.209961	0.355821	0.671208	-0.303499	0.575118	123.552209	-81.125716	0.689117	0.154256	0.001855	0.988029	-0.816699	-0.562560	0.128563	0.556064	-0.826755	-0.085263	0	0	0
57294	0	0	0	0	0	9.741711	1.197997	-0.640751	-0.003141	-0.000971	-0.004030	-0.714600	-0.580811	0.205078	0.355844	0.671201	-0.303525	0.575098	123.554029	-81.124883	0.682763	0.154270	0.001838	0.988027	-0.816742	-0.562495	0.128573	0.555997	-0.826798	-0.085275	0	0	0
57295	0	0	0	0	0	9.754789	1.210798	-0.657045	0.002291	0.002265	-0.001936	-0.728516	-0.576416	0.200684	0.355838	0.671201	-0.303527	0.575099	123.557808	-81.125247	0.679300	0.154264	0.001829	0.988028	-0.816740	-0.562501	0.128562	0.556001	-0.826795	-0.085280	0	0	0
57296	0	0	0	0	0	9.714156	1.220298	-0.682176	0.008041	0.004833	-0.001965	-0.723877	-0.580566	0.195801	0.355821	0.671198	-0.303510	0.575123	123.552724	-81.127143	0.687632	0.154231	0.001851	0.988033	-0.816712	-0.562546	0.128542	0.556052	-0.826764	-0.085250	0	0	0
57297	0	0	0	0	0	9.723892	1.253406	-0.685261	0.005444	0.004332	-0.002297	-0.729492	-0.590088	0.196289	0.355809	0.671199	-0.303498	0.575135	123.551255	-81.127990	0.691308	0.154217	0.001861	0.988035	-0.816692	-0.562577	0.128532	0.556085	-0.826743	-0.085239	0	0	0
57298	0	0	0	0	0	9.701006	1.208232	-0.665585	0.001880	-0.006204	-0.003952	-0.729492	-0.576172	0.200684	0.355817	0.671211	-0.303527	0.575102	123.570657	-81.125569	0.668461	0.154259	0.001800	0.988029	-0.816723	-0.562532	0.128538	0.556029	-0.826774	-0.085306	0	0	0
57299	0	0	0	0	0	9.700935	1.208447	-0.666239	0.014308	-0.005266	-0.001594	-0.723389	-0.583252	0.193848	0.355758	0.671254	-0.303510	0.575096	123.605032	-81.123710	0.640999	0.154292	0.001726	0.988024	-0.816655	-0.562636	0.128514	0.556120	-0.826703	-0.085400	0	0	0
57300	0	0	0	0	0	9.734298	1.216607	-0.670213	0.013630	0.002260	-0.006972	-0.718994	-0.577881	0.195801	0.355740	0.671271	-0.303472	0.575108	123.599827	-81.122594	0.651359	0.154311	0.001754	0.988021	-0.816601	-0.562709	0.128537	0.556193	-0.826653	-0.085399	0	0	0
57301	0	0	0	0	0	9.727495	1.257661	-0.644701	0.001552	-0.006630	0.002562	-0.733643	-0.580078	0.193115	0.355710	0.671289	-0.303507	0.575087	123.639488	-81.122283	0.611149	0.154317	0.001646	0.988020	-0.816610	-0.562708	0.128483	0.556178	-0.826654	-0.085491	0	0	0
57302	0	0	0	0	0	9.704616	1.212333	-0.625330	-0.000784	-0.002707	-0.005124	-0.725098	-0.581055	0.198486	0.355729	0.671291	-0.303527	0.575063	123.644500	-81.120533	0.602516	0.154348	0.001623	0.988015	-0.816642	-0.562657	0.128500	0.556122	-0.826689	-0.085519	0	0	0
57303	0	0	0	0	0	9.737966	1.220589	-0.629343	-0.003074	-0.004972	-0.003188	-0.718018	-0.586670	0.199707	0.355734	0.671304	-0.303554	0.575030	123.664746	-81.118003	0.579274	0.154392	0.001561	0.988008	-0.816668	-0.562618	0.128506	0.556072	-0.826716	-0.085589	0	0	0
57304	0	0	0	0	0	9.767519	1.225436	-0.675045	0.002847	0.003831	-0.002631	-0.722900	-0.571045	0.203613	0.355744	0.671291	-0.303560	0.575036	123.657303	-81.119260	0.585162	0.154370	0.001577	0.988012	-0.816686	-0.562594	0.128499	0.556052	-0.826732	-0.085560	0	0	0
57305	0	0	0	0	0	9.700218	1.186208	-0.722338	0.004888	0.002766	-0.001604	-0.727295	-0.577637	0.187500	0.355730	0.671294	-0.303556	0.575043	123.661713	-81.119942	0.582564	0.154359	0.001570	0.988014	-0.816670	-0.562621	0.128483	0.556079	-0.826714	-0.085564	0	0	0
57306	0	0	0	0	0	9.720981	1.205420	-0.654537	0.002291	0.002265	-0.001936	-0.722900	-0.572754	0.207275	0.355729	0.671285	-0.303561	0.575051	123.660368	-81.121321	0.583470	0.154335	0.001572	0.988017	-0.816677	-0.562614	0.128465	0.556075	-0.826718	-0.085547	0	0	0
57307	0	0	0	0	0	9.713758	1.222783	-0.683390	-0.004082	0.002130	-0.002054	-0.735596	-0.583252	0.204102	0.355745	0.671275	-0.303582	0.575042	123.660664	-81.121586	0.579836	0.154330	0.001562	0.988018	-0.816711	-0.562567	0.128461	0.556027	-0.826750	-0.085545	0	0	0
57308	0	0	0	0	0	9.711232	1.172888	-0.650718	-0.003459	-0.000303	-0.001907	-0.727051	-0.582031	0.198242	0.355756	0.671267	-0.303607	0.575032	123.665372	-81.122000	0.571847	0.154323	0.001540	0.988019	-0.816744	-0.562521	0.128448	0.555979	-0.826782	-0.085552	0	0	0
57309	0	0	0	0	0	9.720508	1.181992	-0.709281	0.004388	-0.003893	0.004323	-0.722412	-0.575439	0.192627	0.355716	0.671279	-0.303635	0.575027	123.701880	-81.123392	0.536473	0.154300	0.001445	0.988023	-0.816740	-0.562544	0.128374	0.555991	-0.826766	-0.085621	0	0	0
57310	0	0	0	0	0	9.717130	1.202234	-0.696638	0.001179	-0.000867	-0.000547	-0.722656	-0.581543	0.202637	0.355717	0.671273	-0.303660	0.575021	123.711886	-81.124358	0.524178	0.154284	0.001412	0.988026	-0.816766	-0.562513	0.128345	0.555958	-0.826787	-0.085634	0	0	0
57311	0	0	0	0	0	9.737424	1.197785	-0.683918	0.002608	0.001595	-0.004058	-0.723633	-0.577148	0.201416	0.355715	0.671280	-0.303655	0.575017	123.713566	-81.123499	0.523021	0.154299	0.001409	0.988023	-0.816759	-0.562520	0.128355	0.555964	-0.826782	-0.085646	0	0	0
57312	0	0	0	0	0	9.717062	1.202814	-0.696583	-0.000545	-0.000472	-0.003696	-0.723145	-0.586182	0.193848	0.355726	0.671278	-0.303669	0.575005	123.716010	-81.122928	0.518320	0.154309	0.001396	0.988022	-0.816781	-0.562489	0.128359	0.555930	-0.826804	-0.085657	0	0	0
57313	0	0	0	0	0	9.717026	1.203101	-0.696596	0.007246	0.001031	-0.002698	-0.718994	-0.580078	0.197021	0.355704	0.671292	-0.303657	0.575008	123.724835	-81.122538	0.512621	0.154316	0.001381	0.988021	-0.816750	-0.562535	0.128351	0.555973	-0.826772	-0.085680	0	0	0
57314	0	0	0	0	0	9.741177	1.201828	-0.641684	0.005126	0.005001	-0.000176	-0.723389	-0.581055	0.199463	0.355704	0.671273	-0.303665	0.575026	123.719584	-81.125410	0.517228	0.154266	0.001393	0.988028	-0.816762	-0.562525	0.128318	0.555969	-0.826779	-0.085641	0	0	0
57315	0	0	0	0	0	9.700557	1.211258	-0.666640	0.005999	0.005897	-0.002992	-0.731201	-0.578369	0.196289	0.355694	0.671272	-0.303647	0.575043	123.712246	-81.126427	0.527166	0.154248	0.001419	0.988031	-0.816738	-0.562561	0.128315	0.556009	-0.826755	-0.085615	0	0	0
57316	0	0	0	0	0	9.737802	1.222422	-0.628326	0.002108	-0.005063	0.001869	-0.732666	-0.578369	0.194580	0.355677	0.671276	-0.303685	0.575029	123.740903	-81.127203	0.496630	0.154236	0.001337	0.988033	-0.816761	-0.562539	0.128261	0.555978	-0.826770	-0.085672	0	0	0
57317	0	0	0	0	0	9.720832	1.206859	-0.654097	0.014186	0.003824	-0.007664	-0.731201	-0.583252	0.201416	0.355650	0.671302	-0.303631	0.575043	123.735059	-81.125335	0.509803	0.154267	0.001373	0.988028	-0.816685	-0.562642	0.128296	0.556082	-0.826699	-0.085676	0	0	0
57318	0	0	0	0	0	9.750379	1.211867	-0.699645	0.004649	0.000529	-0.003030	-0.721680	-0.585449	0.195313	0.355650	0.671301	-0.303637	0.575042	123.738080	-81.125626	0.506301	0.154262	0.001363	0.988029	-0.816690	-0.562636	0.128287	0.556075	-0.826704	-0.085680	0	0	0
57319	0	0	0	0	0	9.716936	1.204235	-0.695889	0.002291	0.002264	-0.001936	-0.724365	-0.583740	0.198242	0.355644	0.671301	-0.303640	0.575043	123.741855	-81.125991	0.502840	0.154256	0.001354	0.988030	-0.816689	-0.562641	0.128277	0.556080	-0.826700	-0.085685	0	0	0
57320	0	0	0	0	0	9.703805	1.192037	-0.679366	0.010716	0.002427	-0.005180	-0.720459	-0.582031	0.204590	0.355636	0.671308	-0.303621	0.575051	123.737620	-81.125652	0.509525	0.154262	0.001372	0.988029	-0.816663	-0.562675	0.128288	0.556115	-0.826677	-0.085679	0	0	0
57321	0	0	0	0	0	9.713467	1.225470	-0.682715	0.012452	0.003124	-0.006421	-0.718750	-0.583008	0.192871	0.355610	0.671331	-0.303577	0.575063	123.735450	-81.124154	0.517972	0.154288	0.001395	0.988025	-0.816598	-0.562764	0.128312	0.556204	-0.826616	-0.085689	0	0	0
57322	0	0	0	0	0	9.727830	1.191747	-0.624473	0.006702	0.000556	-0.006392	-0.722900	-0.578369	0.202393	0.355612	0.671340	-0.303564	0.575058	123.732618	-81.122578	0.521796	0.154315	0.001405	0.988021	-0.816584	-0.562778	0.128339	0.556217	-0.826607	-0.085697	0	0	0
57323	0	0	0	0	0	9.737031	1.201467	-0.683053	0.006770	-0.003442	-0.005550	-0.723877	-0.578369	0.194092	0.355593	0.671371	-0.303552	0.575040	123.748996	-81.119406	0.508176	0.154370	0.001369	0.988012	-0.816552	-0.562820	0.128360	0.556249	-0.826578	-0.085764	0	0	0
57324	0	0	0	0	0	9.727691	1.192699	-0.624831	0.005205	0.002094	-0.003724	-0.723633	-0.582520	0.192383	0.355590	0.671370	-0.303546	0.575046	123.746326	-81.119739	0.511682	0.154364	0.001379	0.988013	-0.816544	-0.562831	0.128359	0.556262	-0.826571	-0.085755	0	0	0
57325	0	0	0	0	0	9.747541	1.164629	-0.667016	0.007009	-0.001207	-0.004122	-0.724854	-0.579590	0.196289	0.355570	0.671392	-0.303533	0.575039	123.758924	-81.117958	0.502027	0.154395	0.001353	0.988008	-0.816513	-0.562876	0.128366	0.556299	-0.826541	-0.085800	0	0	0
57326	0	0	0	0	0	9.716589	1.206864	-0.696188	0.013053	-0.001493	0.002510	-0.731201	-0.580322	0.200928	0.355524	0.671403	-0.303538	0.575053	123.783560	-81.120166	0.481249	0.154357	0.001297	0.988014	-0.816483	-0.562935	0.128298	0.556354	-0.826500	-0.085834	0	0	0
57327	0	0	0	0	0	9.722909	1.260228	-0.686700	0.005999	0.005895	-0.002992	-0.727539	-0.578857	0.195313	0.355514	0.671401	-0.303520	0.575070	123.776233	-81.121185	0.491175	0.154339	0.001323	0.988017	-0.816459	-0.562971	0.128294	0.556394	-0.826476	-0.085808	0	0	0
57328	0	0	0	0	0	9.692883	1.232183	-0.695471	-0.003527	0.003694	-0.002751	-0.722900	-0.579590	0.193359	0.355542	0.671377	-0.303543	0.575069	123.765594	-81.122590	0.497183	0.154315	0.001339	0.988021	-0.816506	-0.562903	0.128290	0.556331	-0.826522	-0.085771	0	0	0
57329	0	0	0	0	0	9.709796	1.248301	-0.669428	0.003402	0.005393	-0.003325	-0.722168	-0.579102	0.195313	0.355542	0.671373	-0.303532	0.575080	123.757622	-81.123291	0.506255	0.154303	0.001363	0.988023	-0.816496	-0.562917	0.128292	0.556350	-0.826512	-0.085746	0	0	0
57330	0	0	0	0	0	9.717000	1.231404	-0.640074	-0.000862	0.000196	-0.001575	-0.727295	-0.583496	0.191406	0.355554	0.671361	-0.303558	0.575072	123.760952	-81.124077	0.499430	0.154289	0.001345	0.988025	-0.816532	-0.562868	0.128275	0.556300	-0.826546	-0.085746	0	0	0
57331	0	0	0	0	0	9.746983	1.259949	-0.630970	0.002677	-0.002406	-0.003214	-0.729248	-0.575195	0.200684	0.355544	0.671378	-0.303563	0.575056	123.776575	-81.122347	0.484200	0.154320	0.001304	0.988020	-0.816526	-0.562876	0.128277	0.556300	-0.826540	-0.085798	0	0	0
57332	0	0	0	0	0	9.720312	1.211470	-0.653302	-0.001099	-0.002040	-0.003001	-0.730469	-0.575195	0.195801	0.355557	0.671374	-0.303589	0.575039	123.784009	-81.121819	0.473155	0.154329	0.001274	0.988019	-0.816562	-0.562826	0.128273	0.556246	-0.826574	-0.085820	0	0	0
57333	0	0	0	0	0	9.733408	1.223957	-0.669763	-0.002053	-0.000027	0.003362	-0.718994	-0.584717	0.208496	0.355547	0.671366	-0.303626	0.575035	123.803078	-81.123977	0.451694	0.154292	0.001216	0.988025	-0.816592	-0.562795	0.128214	0.556212	-0.826595	-0.085842	0	0	0
57334	0	0	0	0	0	9.692386	1.209265	-0.749923	-0.008732	0.001600	0.000972	-0.726807	-0.574951	0.198486	0.355576	0.671336	-0.303675	0.575026	123.804040	-81.126318	0.443632	0.154252	0.001194	0.988031	-0.816667	-0.562694	0.128179	0.556112	-0.826664	-0.085821	0	0	0
57335	0	0	0	0	0	9.729650	1.220336	-0.711437	-0.000318	0.000671	0.002121	-0.722656	-0.582031	0.206787	0.355565	0.671330	-0.303702	0.575026	123.819457	-81.128108	0.426875	0.154221	0.001149	0.988036	-0.816686	-0.562678	0.128130	0.556093	-0.826675	-0.085839	0	0	0
57336	0	0	0	0	0	9.726269	1.240724	-0.698403	-0.003221	0.001932	-0.000482	-0.722656	-0.581299	0.193604	0.355577	0.671312	-0.303728	0.575025	123.819792	-81.129874	0.423026	0.154191	0.001138	0.988040	-0.816725	-0.562628	0.128104	0.556045	-0.826709	-0.085822	0	0	0
57337	0	0	0	0	0	9.707294	1.198738	-0.636098	-0.009662	0.005794	-0.001445	-0.733154	-0.576172	0.200439	0.355616	0.671281	-0.303760	0.575021	123.806945	-81.131599	0.429456	0.154161	0.001156	0.988045	-0.816790	-0.562534	0.128099	0.555957	-0.826773	-0.085777	0	0	0
57338	0	0	0	0	0	9.724243	1.214623	-0.609849	-0.010536	0.004899	0.001371	-0.729248	-0.574707	0.197754	0.355657	0.671235	-0.303814	0.575021	123.796933	-81.135344	0.430864	0.154097	0.001159	0.988055	-0.816882	-0.562410	0.128060	0.555840	-0.826858	-0.085719	0	0	0
57339	0	0	0	0	0	9.707332	1.199015	-0.634992	-0.013913	0.001687	-0.004085	-0.725098	-0.571533	0.197021	0.355711	0.671212	-0.303857	0.574992	123.788786	-81.134504	0.430072	0.154111	0.001157	0.988053	-0.816967	-0.562281	0.128084	0.555712	-0.826945	-0.085709	0	0	0
57340	0	0	0	0	0	9.716607	1.208509	-0.693078	-0.005817	0.001430	-0.000815	-0.724365	-0.580566	0.204346	0.355731	0.671191	-0.303889	0.574987	123.788112	-81.136157	0.426091	0.154083	0.001146	0.988057	-0.817016	-0.562215	0.128062	0.555647	-0.826991	-0.085691	0	0	0
57341	0	0	0	0	0	9.736941	1.203709	-0.680389	-0.003165	-0.003159	0.004751	-0.730713	-0.579834	0.203613	0.355716	0.671187	-0.303939	0.574974	123.818980	-81.137979	0.392046	0.154052	0.001054	0.988062	-0.817055	-0.562175	0.127989	0.555598	-0.827018	-0.085743	0	0	0
57342	0	0	0	0	0	9.723826	1.191281	-0.664045	-0.004626	0.001654	-0.005751	-0.726318	-0.582520	0.199707	0.355749	0.671175	-0.303954	0.574960	123.808715	-81.137142	0.397849	0.154066	0.001070	0.988060	-0.817095	-0.562109	0.128017	0.555535	-0.827062	-0.085728	0	0	0
57343	0	0	0	0	0	9.727184	1.171317	-0.676730	-0.001167	0.001959	-0.003843	-0.729736	-0.584961	0.197998	0.355760	0.671173	-0.303961	0.574952	123.807533	-81.136503	0.397399	0.154077	0.001069	0.988058	-0.817110	-0.562086	0.128028	0.555510	-0.827078	-0.085731	0	0	0
57344	0	0	0	0	0	9.690333	1.184168	-0.660106	0.002915	-0.000169	-0.001788	-0.724365	-0.573486	0.193604	0.355762	0.671169	-0.303978	0.574946	123.814176	-81.137020	0.388956	0.154068	0.001046	0.988060	-0.817129	-0.562061	0.128010	0.555484	-0.827095	-0.085741	0	0	0
57345	0	0	0	0	0	9.719926	1.188828	-0.705816	0.011884	0.000469	-0.001334	-0.733154	-0.575439	0.201172	0.355719	0.671191	-0.303959	0.574957	123.830150	-81.137101	0.378711	0.154067	0.001018	0.988060	-0.817075	-0.562146	0.127985	0.555564	-0.827038	-0.085776	0	0	0
57346	0	0	0	0	0	9.753341	1.196750	-0.709442	0.011260	0.002901	-0.001481	-0.722656	-0.582275	0.203369	0.355688	0.671196	-0.303939	0.574981	123.833322	-81.138915	0.380379	0.154036	0.001023	0.988065	-0.817032	-0.562215	0.127954	0.555636	-0.826990	-0.085766	0	0	0
57347	0	0	0	0	0	9.723740	1.192246	-0.663568	0.006305	0.004134	-0.000721	-0.723389	-0.582275	0.195557	0.355668	0.671197	-0.303930	0.574997	123.836166	-81.140457	0.380186	0.154009	0.001022	0.988069	-0.817010	-0.562254	0.127928	0.555676	-0.826964	-0.085757	0	0	0
57348	0	0	0	0	0	9.734755	1.178764	-0.591892	-0.002721	0.008585	-0.006408	-0.726563	-0.576416	0.188965	0.355713	0.671166	-0.303930	0.575005	123.803542	-81.141480	0.408753	0.153991	0.001099	0.988072	-0.817048	-0.562190	0.127962	0.555625	-0.827007	-0.085675	0	0	0
57349	0	0	0	0	0	9.727110	1.172625	-0.675527	0.007010	-0.001206	-0.004121	-0.728271	-0.579834	0.206787	0.355692	0.671189	-0.303918	0.574998	123.816138	-81.139701	0.399100	0.154022	0.001073	0.988067	-0.817017	-0.562234	0.127969	0.555662	-0.826977	-0.085720	0	0	0
57350	0	0	0	0	0	9.720237	1.213797	-0.650088	0.008495	-0.003835	-0.002398	-0.728027	-0.579102	0.196045	0.355666	0.671208	-0.303918	0.574992	123.836183	-81.138844	0.381392	0.154037	0.001025	0.988065	-0.816994	-0.562271	0.127951	0.555691	-0.826952	-0.085773	0	0	0
57351	0	0	0	0	0	9.716383	1.210777	-0.692257	0.021423	0.003761	-0.005959	-0.725830	-0.580078	0.196777	0.355610	0.671245	-0.303849	0.575020	123.838107	-81.137775	0.390899	0.154055	0.001051	0.988062	-0.816880	-0.562434	0.127964	0.555854	-0.826841	-0.085787	0	0	0
57352	0	0	0	0	0	9.695499	1.310002	-0.669723	0.019370	0.003733	-0.002597	-0.724121	-0.580078	0.198730	0.355562	0.671260	-0.303807	0.575053	123.840499	-81.139233	0.396825	0.154030	0.001067	0.988066	-0.816802	-0.562553	0.127939	0.555976	-0.826760	-0.085779	0	0	0
57353	0	0	0	0	0	9.736113	1.300927	-0.644171	0.003471	0.001395	-0.002481	-0.722168	-0.571533	0.196289	0.355553	0.671267	-0.303806	0.575052	123.846475	-81.139064	0.391820	0.154033	0.001053	0.988065	-0.816793	-0.562568	0.127933	0.555989	-0.826750	-0.085794	0	0	0
57354	0	0	0	0	0	9.722593	1.264899	-0.682576	-0.001723	0.000392	-0.003150	-0.721924	-0.578369	0.197021	0.355567	0.671259	-0.303823	0.575044	123.846252	-81.139156	0.389240	0.154032	0.001046	0.988065	-0.816820	-0.562528	0.127932	0.555949	-0.826777	-0.085792	0	0	0
57355	0	0	0	0	0	9.726342	1.268754	-0.640348	-0.010443	0.003080	-0.006570	-0.730713	-0.577881	0.201660	0.355618	0.671241	-0.303845	0.575021	123.830743	-81.137580	0.397911	0.154059	0.001070	0.988061	-0.816882	-0.562428	0.127977	0.555850	-0.826846	-0.085773	0	0	0
57356	0	0	0	0	0	9.712796	1.233259	-0.678226	-0.015705	0.006073	-0.008080	-0.725586	-0.578857	0.195557	0.355704	0.671199	-0.303877	0.575001	123.795221	-81.137130	0.422605	0.154066	0.001136	0.988060	-0.816983	-0.562267	0.128037	0.555699	-0.826955	-0.085698	0	0	0
57357	0	0	0	0	0	9.753377	1.224612	-0.652390	-0.019356	-0.002647	-0.001793	-0.728271	-0.577637	0.197266	0.355763	0.671175	-0.303951	0.574953	123.801861	-81.136002	0.403691	0.154086	0.001086	0.988057	-0.817102	-0.562094	0.128043	0.555519	-0.827073	-0.085724	0	0	0
57358	0	0	0	0	0	9.726762	1.176287	-0.674181	-0.027283	0.003840	-0.004478	-0.726563	-0.584473	0.198730	0.355876	0.671111	-0.304035	0.574913	123.773461	-81.136613	0.414038	0.154075	0.001113	0.988059	-0.817277	-0.561831	0.128077	0.555265	-0.827251	-0.085654	0	0	0
57359	0	0	0	0	0	9.703952	1.131470	-0.653572	-0.016023	0.006742	-0.005954	-0.722168	-0.576660	0.196289	0.355950	0.671072	-0.304068	0.574895	123.744839	-81.136494	0.432744	0.154077	0.001164	0.988058	-0.817371	-0.561685	0.128121	0.555126	-0.827351	-0.085591	0	0	0
57360	0	0	0	0	0	9.729757	1.133361	-0.740566	0.001124	0.004221	-0.005776	-0.722656	-0.579590	0.197510	0.355973	0.671060	-0.304066	0.574896	123.728935	-81.136502	0.446736	0.154076	0.001201	0.988058	-0.817388	-0.561655	0.128145	0.555101	-0.827371	-0.085556	0	0	0
57361	0	0	0	0	0	9.750415	1.152850	-0.672702	0.006067	0.001900	-0.002146	-0.719238	-0.575439	0.195313	0.355954	0.671069	-0.304058	0.574902	123.735534	-81.136655	0.442604	0.154074	0.001190	0.988059	-0.817365	-0.561691	0.128133	0.555136	-0.827346	-0.085569	0	0	0
57362	0	0	0	0	0	9.692882	1.146528	-0.723567	0.008358	0.004163	-0.004080	-0.719727	-0.575684	0.197754	0.355945	0.671069	-0.304037	0.574919	123.727474	-81.137452	0.453490	0.154060	0.001219	0.988061	-0.817338	-0.561730	0.128134	0.555180	-0.827320	-0.085543	0	0	0
57363	0	0	0	0	0	9.742811	1.146820	-0.756112	0.004582	0.004527	-0.003868	-0.719971	-0.574463	0.196289	0.355940	0.671070	-0.304022	0.574928	123.721679	-81.137622	0.461041	0.154057	0.001240	0.988061	-0.817320	-0.561754	0.128140	0.555206	-0.827303	-0.085529	0	0	0
57364	0	0	0	0	0	9.689409	1.167692	-0.710163	0.007566	0.000362	-0.004813	-0.730957	-0.577393	0.201660	0.355926	0.671082	-0.304005	0.574932	123.723576	-81.136865	0.462030	0.154070	0.001242	0.988059	-0.817291	-0.561795	0.128148	0.555246	-0.827275	-0.085540	0	0	0
57365	0	0	0	0	0	9.750685	1.177721	-0.617220	-0.002291	-0.002263	0.001934	-0.723145	-0.578125	0.204346	0.355918	0.671082	-0.304041	0.574918	123.746432	-81.137638	0.436599	0.154057	0.001174	0.988061	-0.817320	-0.561763	0.128103	0.555206	-0.827298	-0.085584	0	0	0
57366	0	0	0	0	0	9.723205	1.199198	-0.658871	0.001889	0.005841	0.003735	-0.726807	-0.577881	0.200195	0.355906	0.671056	-0.304059	0.574946	123.746585	-81.142695	0.436083	0.153970	0.001172	0.988075	-0.817335	-0.561758	0.128030	0.555209	-0.827301	-0.085536	0	0	0
57367	0	0	0	0	0	9.695748	1.220701	-0.700198	-0.000388	0.004668	0.001280	-0.716309	-0.576172	0.201904	0.355904	0.671040	-0.304076	0.574957	123.748022	-81.145363	0.433434	0.153924	0.001164	0.988082	-0.817353	-0.561741	0.127990	0.555195	-0.827313	-0.085513	0	0	0
57368	0	0	0	0	0	9.712317	1.212627	-0.729156	0.004013	0.001872	0.001215	-0.724609	-0.573975	0.197266	0.355886	0.671033	-0.304086	0.574971	123.756062	-81.147892	0.426196	0.153880	0.001145	0.988089	-0.817352	-0.561754	0.127941	0.555209	-0.827304	-0.085507	0	0	0
57369	0	0	0	0	0	9.736436	1.211269	-0.674167	0.002527	0.004499	-0.000506	-0.719971	-0.579102	0.202881	0.355879	0.671025	-0.304089	0.574983	123.756037	-81.149655	0.426718	0.153850	0.001146	0.988094	-0.817351	-0.561761	0.127916	0.555219	-0.827299	-0.085490	0	0	0
57370	0	0	0	0	0	9.739884	1.190816	-0.686760	0.005748	0.002570	-0.000024	-0.721924	-0.580811	0.199707	0.355861	0.671021	-0.304089	0.574999	123.760280	-81.151854	0.424231	0.153812	0.001139	0.988099	-0.817339	-0.561787	0.127878	0.555247	-0.827281	-0.085479	0	0	0
57371	0	0	0	0	0	9.723370	1.198787	-0.657181	0.006859	0.005699	-0.001411	-0.729980	-0.585449	0.198242	0.355843	0.671019	-0.304074	0.575020	123.757212	-81.153568	0.430343	0.153782	0.001155	0.988104	-0.817313	-0.561829	0.127858	0.555294	-0.827252	-0.085455	0	0	0
57372	0	0	0	0	0	9.712735	1.236396	-0.673367	0.008178	-0.003161	-0.000275	-0.724365	-0.577148	0.191162	0.355818	0.671031	-0.304086	0.575015	123.779191	-81.153816	0.409594	0.153778	0.001099	0.988105	-0.817304	-0.561851	0.127822	0.555308	-0.827238	-0.085502	0	0	0
57373	0	0	0	0	0	9.729604	1.252315	-0.647778	0.016149	0.005667	-0.003073	-0.723633	-0.577637	0.203857	0.355774	0.671048	-0.304039	0.575047	123.778143	-81.154729	0.419048	0.153763	0.001125	0.988107	-0.817223	-0.561971	0.127810	0.555431	-0.827156	-0.085491	0	0	0
57374	0	0	0	0	0	9.732989	1.232269	-0.660546	0.007887	-0.000312	-0.006931	-0.726074	-0.573242	0.204590	0.355768	0.671064	-0.304018	0.575043	123.777789	-81.152788	0.421787	0.153796	0.001132	0.988102	-0.817195	-0.562004	0.127839	0.555462	-0.827133	-0.085509	0	0	0
57375	0	0	0	0	0	9.739170	1.286186	-0.651121	-0.001166	0.001956	-0.003843	-0.721436	-0.583984	0.199951	0.355779	0.671063	-0.304025	0.575035	123.776602	-81.152152	0.421342	0.153807	0.001131	0.988100	-0.817210	-0.561981	0.127850	0.555438	-0.827149	-0.085512	0	0	0
57376	0	0	0	0	0	9.783164	1.257010	-0.638442	-0.006595	-0.001285	-0.005940	-0.727295	-0.586670	0.193359	0.355814	0.671056	-0.304049	0.575008	123.773626	-81.150267	0.418795	0.153839	0.001124	0.988095	-0.817259	-0.561902	0.127881	0.555356	-0.827203	-0.085524	0	0	0
57377	0	0	0	0	0	9.726605	1.180276	-0.669459	-0.002735	0.007490	-0.002018	-0.718750	-0.578125	0.202148	0.355833	0.671033	-0.304056	0.575020	123.758339	-81.152263	0.431710	0.153805	0.001159	0.988101	-0.817285	-0.561865	0.127875	0.555327	-0.827228	-0.085470	0	0	0
57378	0	0	0	0	0	9.719407	1.197764	-0.697815	-0.000680	0.007517	-0.005378	-0.722900	-0.583496	0.199951	0.355869	0.671006	-0.304057	0.575028	123.731904	-81.153458	0.454862	0.153784	0.001221	0.988104	-0.817317	-0.561814	0.127897	0.555286	-0.827263	-0.085400	0	0	0
57379	0	0	0	0	0	9.713805	1.192469	-0.596950	0.004902	0.003854	-0.005986	-0.724609	-0.580566	0.201416	0.355868	0.671013	-0.304035	0.575032	123.724003	-81.152405	0.464729	0.153802	0.001248	0.988101	-0.817295	-0.561840	0.127924	0.555315	-0.827245	-0.085392	0	0	0
57380	0	0	0	0	0	9.746857	1.176991	-0.655200	0.007804	0.002596	-0.003383	-0.724609	-0.573730	0.193848	0.355859	0.671014	-0.304025	0.575042	123.722114	-81.152953	0.468487	0.153792	0.001258	0.988102	-0.817277	-0.561867	0.127919	0.555343	-0.827227	-0.085383	0	0	0
57381	0	0	0	0	0	9.710007	1.189677	-0.638406	0.005123	0.005001	-0.000171	-0.731201	-0.580078	0.203613	0.355843	0.671010	-0.304020	0.575060	123.722711	-81.155036	0.469883	0.153756	0.001261	0.988108	-0.817263	-0.561895	0.127889	0.555375	-0.827207	-0.085364	0	0	0
57382	0	0	0	0	0	9.723133	1.201971	-0.654866	0.009345	-0.005115	0.003571	-0.728516	-0.585205	0.195801	0.355793	0.671026	-0.304039	0.575062	123.759657	-81.156643	0.435898	0.153729	0.001170	0.988112	-0.817241	-0.561944	0.127810	0.555413	-0.827174	-0.085431	0	0	0
57383	0	0	0	0	0	9.725629	1.251720	-0.687614	0.012358	0.004943	0.001529	-0.722656	-0.580078	0.197998	0.355747	0.671032	-0.304019	0.575094	123.768064	-81.159518	0.433584	0.153680	0.001163	0.988120	-0.817189	-0.562032	0.127757	0.555504	-0.827114	-0.085423	0	0	0
57384	0	0	0	0	0	9.712560	1.239025	-0.671055	-0.002916	0.000170	0.001785	-0.729492	-0.577637	0.202393	0.355760	0.671010	-0.304065	0.575086	123.777326	-81.161851	0.418999	0.153640	0.001124	0.988126	-0.817247	-0.561958	0.127709	0.555429	-0.827165	-0.085421	0	0	0
57385	0	0	0	0	0	9.712573	1.238978	-0.670955	-0.010150	0.000227	0.000084	-0.718750	-0.577148	0.203369	0.355787	0.670992	-0.304114	0.575066	123.784327	-81.162536	0.405057	0.153628	0.001086	0.988128	-0.817318	-0.561860	0.127689	0.555329	-0.827231	-0.085430	0	0	0
57386	0	0	0	0	0	9.749751	1.250275	-0.632484	-0.017079	-0.001476	0.000653	-0.726807	-0.572998	0.201660	0.355836	0.670958	-0.304189	0.575035	123.789645	-81.163745	0.388407	0.153608	0.001041	0.988131	-0.817432	-0.561700	0.127664	0.555166	-0.827341	-0.085430	0	0	0
57387	0	0	0	0	0	9.723262	1.201281	-0.654219	-0.003069	0.007073	0.004491	-0.726318	-0.572021	0.194580	0.355837	0.670925	-0.304220	0.575056	123.788769	-81.168709	0.386543	0.153522	0.001036	0.988145	-0.817470	-0.561660	0.127594	0.555134	-0.827367	-0.085381	0	0	0
57388	0	0	0	0	0	9.720205	1.245267	-0.586056	-0.009289	0.000031	0.001660	-0.726318	-0.584229	0.197510	0.355858	0.670899	-0.304271	0.575046	123.795632	-81.171090	0.373099	0.153481	0.000999	0.988151	-0.817541	-0.561568	0.127550	0.555041	-0.827430	-0.085373	0	0	0
57389	0	0	0	0	0	9.730497	1.184172	-0.624536	-0.007219	0.001146	-0.006088	-0.724854	-0.581299	0.202881	0.355895	0.670892	-0.304289	0.575022	123.788845	-81.169128	0.374810	0.153515	0.001004	0.988146	-0.817585	-0.561494	0.127588	0.554966	-0.827480	-0.085377	0	0	0
57390	0	0	0	0	0	9.706412	1.185697	-0.679101	0.004012	0.001872	0.001217	-0.725342	-0.577881	0.201172	0.355886	0.670881	-0.304308	0.575031	123.796265	-81.171661	0.366594	0.153471	0.000982	0.988153	-0.817600	-0.561484	0.127541	0.554957	-0.827487	-0.085369	0	0	0
57391	0	0	0	0	0	9.719542	1.197962	-0.695588	0.006123	-0.003186	0.003087	-0.728027	-0.577148	0.204590	0.355844	0.670896	-0.304326	0.575029	123.829231	-81.172686	0.335812	0.153454	0.000899	0.988155	-0.817584	-0.561521	0.127477	0.554985	-0.827462	-0.085432	0	0	0
57392	0	0	0	0	0	9.743281	1.172828	-0.695949	0.000320	-0.000671	-0.002120	-0.722900	-0.573975	0.202881	0.355845	0.670895	-0.304341	0.575023	123.836401	-81.172874	0.327256	0.153451	0.000876	0.988156	-0.817599	-0.561502	0.127463	0.554964	-0.827475	-0.085447	0	0	0
57393	0	0	0	0	0	9.736383	1.213952	-0.670098	-0.004082	0.002124	-0.002058	-0.727295	-0.575928	0.201904	0.355861	0.670885	-0.304361	0.575014	123.836682	-81.173143	0.323635	0.153447	0.000867	0.988157	-0.817632	-0.561455	0.127459	0.554916	-0.827507	-0.085445	0	0	0
57394	0	0	0	0	0	9.723263	1.201671	-0.653479	-0.004082	0.002124	-0.002058	-0.728027	-0.585205	0.200684	0.355877	0.670869	-0.304381	0.575012	123.832990	-81.174271	0.324046	0.153427	0.000868	0.988160	-0.817667	-0.561407	0.127448	0.554871	-0.827539	-0.085426	0	0	0
57395	0	0	0	0	0	9.723245	1.201888	-0.653345	-0.003457	-0.000307	-0.001910	-0.728271	-0.580811	0.195313	0.355887	0.670867	-0.304405	0.574996	123.841385	-81.173835	0.312576	0.153435	0.000837	0.988158	-0.817697	-0.561365	0.127442	0.554824	-0.827568	-0.085448	0	0	0
57396	0	0	0	0	0	9.723220	1.202096	-0.653334	-0.003457	-0.000307	-0.001910	-0.726074	-0.578613	0.206055	0.355911	0.670851	-0.304441	0.574980	123.844376	-81.174275	0.303959	0.153427	0.000814	0.988160	-0.817753	-0.561285	0.127431	0.554743	-0.827622	-0.085451	0	0	0
57397	0	0	0	0	0	9.719777	1.222605	-0.640388	0.001416	0.001369	0.000881	-0.729492	-0.578857	0.196533	0.355899	0.670848	-0.304457	0.574982	123.856161	-81.175702	0.291883	0.153403	0.000781	0.988163	-0.817761	-0.561283	0.127393	0.554739	-0.827624	-0.085463	0	0	0
57398	0	0	0	0	0	9.760047	1.189871	-0.669692	0.000335	0.000417	-0.006509	-0.723633	-0.573730	0.194336	0.355917	0.670849	-0.304459	0.574970	123.850598	-81.174183	0.295638	0.153429	0.000792	0.988159	-0.817774	-0.561256	0.127423	0.554712	-0.827642	-0.085466	0	0	0
57399	0	0	0	0	0	9.696919	1.177724	-0.620703	0.009359	-0.004026	-0.000819	-0.721436	-0.581055	0.194580	0.355875	0.670878	-0.304456	0.574963	123.879967	-81.173079	0.270372	0.153448	0.000724	0.988156	-0.817735	-0.561320	0.127395	0.554764	-0.827599	-0.085542	0	0	0
57400	0	0	0	0	0	9.732752	1.235836	-0.657370	0.012831	-0.002630	-0.003297	-0.727539	-0.575928	0.194336	0.355841	0.670902	-0.304440	0.574964	123.896329	-81.172159	0.258550	0.153464	0.000693	0.988154	-0.817690	-0.561387	0.127384	0.554825	-0.827553	-0.085587	0	0	0
57401	0	0	0	0	0	9.702742	1.207678	-0.666818	0.009845	0.001534	-0.002353	-0.730225	-0.572998	0.196533	0.355810	0.670919	-0.304421	0.574974	123.905785	-81.172100	0.253717	0.153466	0.000680	0.988154	-0.817646	-0.561455	0.127371	0.554891	-0.827507	-0.085608	0	0	0
57402	0	0	0	0	0	9.708621	1.237599	-0.712106	-0.000610	0.003519	-0.004536	-0.725586	-0.588623	0.199707	0.355830	0.670904	-0.304426	0.574976	123.893529	-81.172722	0.263615	0.153455	0.000706	0.988155	-0.817669	-0.561419	0.127380	0.554860	-0.827531	-0.085575	0	0	0
57403	0	0	0	0	0	9.726428	1.183323	-0.666646	-0.007469	-0.002180	-0.003127	-0.720459	-0.587158	0.189941	0.355854	0.670902	-0.304461	0.574946	123.902845	-81.171108	0.248886	0.153483	0.000667	0.988151	-0.817720	-0.561344	0.127389	0.554777	-0.827583	-0.085611	0	0	0
57404	0	0	0	0	0	9.722968	1.203938	-0.653700	0.001971	0.002934	0.000188	-0.720703	-0.574463	0.199219	0.355868	0.670879	-0.304491	0.574947	123.902235	-81.173453	0.245540	0.153442	0.000658	0.988157	-0.817763	-0.561287	0.127357	0.554724	-0.827621	-0.085587	0	0	0
57405	0	0	0	0	0	9.730143	1.187126	-0.624441	0.000335	0.000416	-0.006508	-0.724121	-0.576416	0.199707	0.355879	0.670889	-0.304487	0.574931	123.901111	-81.171060	0.245900	0.153484	0.000659	0.988151	-0.817765	-0.561276	0.127393	0.554709	-0.827628	-0.085608	0	0	0
57406	0	0	0	0	0	9.729781	1.163687	-0.679423	0.006138	-0.002097	-0.001301	-0.716309	-0.577637	0.200439	0.355855	0.670901	-0.304489	0.574931	123.917179	-81.171193	0.231811	0.153481	0.000621	0.988151	-0.817748	-0.561307	0.127367	0.554735	-0.827607	-0.085642	0	0	0
57407	0	0	0	0	0	9.722847	1.204819	-0.653871	0.003236	-0.000841	-0.003905	-0.725830	-0.575928	0.199219	0.355847	0.670915	-0.304488	0.574920	123.926919	-81.169637	0.222860	0.153508	0.000597	0.988147	-0.817738	-0.561320	0.127375	0.554743	-0.827599	-0.085679	0	0	0
57408	0	0	0	0	0	9.713436	1.195998	-0.595883	0.004487	-0.005704	-0.003609	-0.722412	-0.579834	0.192871	0.355832	0.670937	-0.304494	0.574900	123.948232	-81.167463	0.202267	0.153546	0.000542	0.988141	-0.817729	-0.561334	0.127374	0.554746	-0.827589	-0.085747	0	0	0
57409	0	0	0	0	0	9.735819	1.217951	-0.671033	0.005278	-0.001903	-0.002875	-0.729980	-0.575439	0.206787	0.355812	0.670957	-0.304493	0.574890	123.964497	-81.166055	0.187896	0.153570	0.000504	0.988138	-0.817709	-0.561364	0.127370	0.554769	-0.827569	-0.085797	0	0	0
57410	0	0	0	0	0	9.702337	1.210435	-0.667709	0.000405	-0.003581	-0.005666	-0.723389	-0.570557	0.196045	0.355821	0.670967	-0.304503	0.574867	123.972675	-81.163683	0.177792	0.153611	0.000477	0.988131	-0.817723	-0.561338	0.127391	0.554736	-0.827587	-0.085838	0	0	0
57411	0	0	0	0	0	9.746035	1.157358	-0.710120	0.007248	0.001032	-0.002688	-0.729004	-0.579346	0.197998	0.355799	0.670981	-0.304491	0.574870	123.981477	-81.163304	0.172115	0.153618	0.000461	0.988130	-0.817693	-0.561384	0.127383	0.554779	-0.827556	-0.085861	0	0	0
57412	0	0	0	0	0	9.722553	1.206540	-0.655076	0.000014	0.001087	-0.004388	-0.726318	-0.580566	0.189209	0.355813	0.670975	-0.304498	0.574865	123.977507	-81.163137	0.174217	0.153621	0.000467	0.988130	-0.817710	-0.561356	0.127392	0.554752	-0.827574	-0.085854	0	0	0
57413	0	0	0	0	0	9.729748	1.189693	-0.625715	-0.000070	0.003996	-0.000842	-0.724609	-0.584229	0.197510	0.355814	0.670965	-0.304508	0.574871	123.976859	-81.164584	0.173861	0.153596	0.000466	0.988134	-0.817723	-0.561342	0.127372	0.554740	-0.827584	-0.085839	0	0	0
57414	0	0	0	0	0	9.718809	1.203629	-0.696044	-0.002808	0.011484	-0.002861	-0.717285	-0.585693	0.196777	0.355861	0.670915	-0.304522	0.574892	123.941263	-81.168402	0.203974	0.153530	0.000547	0.988144	-0.817782	-0.561258	0.127371	0.554673	-0.827641	-0.085723	0	0	0
57415	0	0	0	0	0	9.729467	1.166369	-0.679319	-0.001095	-0.002042	-0.003001	-0.727539	-0.576660	0.191406	0.355864	0.670924	-0.304539	0.574872	123.954043	-81.166891	0.189434	0.153556	0.000508	0.988140	-0.817797	-0.561235	0.127373	0.554643	-0.827657	-0.085766	0	0	0
57416	0	0	0	0	0	9.729423	1.166677	-0.679420	0.012762	0.001366	-0.004136	-0.735596	-0.573486	0.206543	0.355844	0.670935	-0.304518	0.574882	123.955938	-81.166800	0.191210	0.153558	0.000512	0.988140	-0.817761	-0.561287	0.127372	0.554696	-0.827621	-0.085771	0	0	0
57417	0	0	0	0	0	9.709339	1.195566	-0.637555	0.009696	-0.003611	-0.007323	-0.720947	-0.571533	0.196045	0.355820	0.670974	-0.304492	0.574866	123.970788	-81.162733	0.180831	0.153628	0.000485	0.988129	-0.817710	-0.561354	0.127408	0.554751	-0.827576	-0.085843	0	0	0
57418	0	0	0	0	0	9.716139	1.155265	-0.663826	0.009141	-0.005176	-0.006629	-0.724609	-0.572266	0.197998	0.355792	0.671010	-0.304470	0.574853	123.987642	-81.159497	0.168458	0.153684	0.000452	0.988120	-0.817661	-0.561421	0.127429	0.554808	-0.827531	-0.085912	0	0	0
57419	0	0	0	0	0	9.722223	1.209319	-0.654844	0.005293	-0.000817	-0.007262	-0.724365	-0.580078	0.201416	0.355787	0.671033	-0.304451	0.574839	123.991543	-81.156353	0.166607	0.153738	0.000447	0.988112	-0.817634	-0.561450	0.127468	0.554833	-0.827510	-0.085951	0	0	0
57420	0	0	0	0	0	9.709033	1.197451	-0.638687	0.004738	-0.002382	-0.006568	-0.729248	-0.580566	0.201172	0.355784	0.671050	-0.304442	0.574826	123.996738	-81.153932	0.162397	0.153780	0.000436	0.988105	-0.817620	-0.561465	0.127495	0.554842	-0.827500	-0.085986	0	0	0
57421	0	0	0	0	0	9.735182	1.222717	-0.671602	0.008970	0.000643	0.000462	-0.727539	-0.571533	0.191162	0.355746	0.671063	-0.304437	0.574837	124.014186	-81.154925	0.148968	0.153763	0.000400	0.988108	-0.817584	-0.561526	0.127454	0.554899	-0.827459	-0.086015	0	0	0
57422	0	0	0	0	0	9.697965	1.211835	-0.709934	-0.001386	0.000800	-0.009656	-0.722168	-0.575195	0.204590	0.355782	0.671062	-0.304434	0.574818	123.999172	-81.152218	0.160897	0.153809	0.000432	0.988100	-0.817607	-0.561479	0.127515	0.554853	-0.827491	-0.086008	0	0	0
57423	0	0	0	0	0	9.695466	1.162460	-0.677281	-0.003137	-0.000982	-0.004030	-0.724121	-0.581787	0.206055	0.355795	0.671065	-0.304450	0.574796	124.005392	-81.150557	0.151811	0.153838	0.000408	0.988096	-0.817632	-0.561439	0.127530	0.554808	-0.827518	-0.086037	0	0	0
57424	0	0	0	0	0	9.745668	1.186747	-0.655293	0.005528	0.001419	-0.005835	-0.720703	-0.575439	0.201416	0.355791	0.671074	-0.304433	0.574798	124.001737	-81.149522	0.157439	0.153856	0.000423	0.988093	-0.817610	-0.561467	0.127550	0.554835	-0.827499	-0.086039	0	0	0
57425	0	0	0	0	0	9.721574	1.188398	-0.709591	0.007106	0.009022	-0.004371	-0.728516	-0.578369	0.204102	0.355787	0.671068	-0.304401	0.574825	123.982597	-81.150903	0.179958	0.153832	0.000483	0.988097	-0.817578	-0.561512	0.127559	0.554890	-0.827469	-0.085983	0	0	0
57426	0	0	0	0	0	9.695367	1.163721	-0.676535	0.009611	-0.000703	-0.003775	-0.729248	-0.570313	0.201416	0.355760	0.671086	-0.304383	0.574830	123.991657	-81.150282	0.174941	0.153843	0.000470	0.988095	-0.817538	-0.561571	0.127554	0.554946	-0.827428	-0.086010	0	0	0
57427	0	0	0	0	0	9.732168	1.151646	-0.693252	0.004739	-0.002383	-0.006566	-0.722900	-0.574707	0.204102	0.355753	0.671111	-0.304371	0.574812	124.001440	-81.146968	0.166816	0.153900	0.000448	0.988086	-0.817515	-0.561596	0.127587	0.554963	-0.827411	-0.086063	0	0	0
57428	0	0	0	0	0	9.741991	1.209021	-0.642284	0.017487	-0.002103	-0.006311	-0.722168	-0.579590	0.200928	0.355700	0.671153	-0.304320	0.574823	124.014446	-81.144804	0.163297	0.153937	0.000439	0.988081	-0.817419	-0.561734	0.127598	0.555094	-0.827318	-0.086113	0	0	0
57429	0	0	0	0	0	9.721615	1.213940	-0.655318	0.014804	0.000304	-0.003102	-0.727783	-0.576904	0.200195	0.355653	0.671183	-0.304286	0.574834	124.028921	-81.143996	0.156260	0.153951	0.000420	0.988078	-0.817346	-0.561842	0.127588	0.555198	-0.827244	-0.086153	0	0	0
57430	0	0	0	0	0	9.721563	1.214333	-0.655366	0.002932	0.000913	-0.006170	-0.726807	-0.583008	0.193359	0.355663	0.671185	-0.304281	0.574828	124.023675	-81.142793	0.161020	0.153972	0.000433	0.988075	-0.817347	-0.561835	0.127613	0.555190	-0.827249	-0.086153	0	0	0
57431	0	0	0	0	0	9.721469	1.214972	-0.655583	0.007102	-0.004119	-0.007653	-0.721924	-0.580811	0.202637	0.355648	0.671222	-0.304261	0.574805	124.037843	-81.138406	0.149827	0.154048	0.000403	0.988063	-0.817310	-0.561880	0.127655	0.555224	-0.827219	-0.086227	0	0	0
57432	0	0	0	0	0	9.721381	1.215561	-0.655782	0.008125	0.001920	-0.005497	-0.727783	-0.575195	0.194092	0.355647	0.671226	-0.304248	0.574808	124.033057	-81.137825	0.155857	0.154058	0.000419	0.988062	-0.817296	-0.561896	0.127670	0.555242	-0.827207	-0.086222	0	0	0
57433	0	0	0	0	0	9.738149	1.232076	-0.630181	-0.001080	-0.000962	-0.007386	-0.721191	-0.575684	0.199951	0.355663	0.671238	-0.304248	0.574784	124.033465	-81.134577	0.153846	0.154114	0.000414	0.988053	-0.817305	-0.561874	0.127716	0.555214	-0.827223	-0.086254	0	0	0
57434	0	0	0	0	0	9.715088	1.163384	-0.665019	0.006083	0.002980	-0.006527	-0.727539	-0.572510	0.199219	0.355667	0.671240	-0.304228	0.574790	124.022572	-81.133983	0.166211	0.154124	0.000447	0.988051	-0.817287	-0.561893	0.127741	0.555236	-0.827210	-0.086236	0	0	0
57435	0	0	0	0	0	9.700570	1.198112	-0.723122	0.007264	0.002113	-0.007071	-0.729004	-0.583740	0.201660	0.355659	0.671258	-0.304199	0.574789	124.019051	-81.131870	0.173015	0.154160	0.000466	0.988046	-0.817250	-0.561939	0.127776	0.555281	-0.827179	-0.086248	0	0	0
57436	0	0	0	0	0	9.757955	1.205637	-0.671970	0.003253	0.000238	-0.008288	-0.723389	-0.580566	0.201660	0.355673	0.671265	-0.304188	0.574778	124.011710	-81.129531	0.179951	0.154200	0.000484	0.988039	-0.817248	-0.561932	0.127821	0.555273	-0.827183	-0.086254	0	0	0
57437	0	0	0	0	0	9.720740	1.194853	-0.710183	0.005762	0.003654	-0.004408	-0.715088	-0.578125	0.195801	0.355665	0.671272	-0.304170	0.574785	124.008110	-81.129178	0.185963	0.154206	0.000501	0.988039	-0.817223	-0.561966	0.127831	0.555308	-0.827160	-0.086250	0	0	0
57438	0	0	0	0	0	9.719614	1.265709	-0.729732	0.008358	0.004158	-0.004072	-0.719971	-0.572510	0.194580	0.355658	0.671270	-0.304152	0.574800	123.999888	-81.129913	0.196532	0.154194	0.000529	0.988041	-0.817201	-0.561998	0.127833	0.555344	-0.827139	-0.086224	0	0	0
57439	0	0	0	0	0	9.717442	1.240262	-0.641875	0.002320	0.004423	-0.010705	-0.720947	-0.581543	0.201904	0.355681	0.671278	-0.304121	0.574793	123.979052	-81.126814	0.217994	0.154247	0.000587	0.988032	-0.817185	-0.562003	0.127909	0.555352	-0.827135	-0.086208	0	0	0
57440	0	0	0	0	0	9.720817	1.220718	-0.654571	0.004435	-0.000631	-0.008830	-0.720703	-0.579102	0.198975	0.355691	0.671292	-0.304104	0.574780	123.973534	-81.123833	0.223965	0.154298	0.000603	0.988024	-0.817174	-0.562008	0.127960	0.555355	-0.827131	-0.086224	0	0	0
57441	0	0	0	0	0	9.720719	1.221566	-0.654443	0.003181	0.004230	-0.009130	-0.725830	-0.578857	0.197510	0.355706	0.671299	-0.304076	0.574776	123.957027	-81.121419	0.241544	0.154340	0.000651	0.988018	-0.817156	-0.562021	0.128019	0.555370	-0.827123	-0.086210	0	0	0
57442	0	0	0	0	0	9.690967	1.217871	-0.608705	-0.006271	-0.001974	-0.008058	-0.725098	-0.579346	0.201416	0.355751	0.671295	-0.304099	0.574742	123.950911	-81.118409	0.241348	0.154392	0.000650	0.988010	-0.817210	-0.561930	0.128071	0.555275	-0.827185	-0.086226	0	0	0
57443	0	0	0	0	0	9.727758	1.206024	-0.625399	-0.007700	-0.004427	-0.004552	-0.720703	-0.576416	0.201904	0.355777	0.671301	-0.304133	0.574701	123.963882	-81.115400	0.222782	0.154444	0.000601	0.988001	-0.817260	-0.561852	0.128095	0.555188	-0.827237	-0.086284	0	0	0
57444	0	0	0	0	0	9.723924	1.203180	-0.667621	-0.005410	-0.002167	-0.006483	-0.727051	-0.572510	0.203613	0.355809	0.671299	-0.304154	0.574672	123.962807	-81.113022	0.218870	0.154485	0.000590	0.987995	-0.817303	-0.561781	0.128131	0.555112	-0.827286	-0.086304	0	0	0
57445	0	0	0	0	0	9.706988	1.187954	-0.693543	-0.006197	-0.005969	-0.007213	-0.717529	-0.579102	0.202393	0.355834	0.671316	-0.304178	0.574624	123.975860	-81.108255	0.201092	0.154567	0.000542	0.987982	-0.817341	-0.561716	0.128179	0.555035	-0.827330	-0.086379	0	0	0
57446	0	0	0	0	0	9.747272	1.155600	-0.723154	-0.005731	-0.001492	-0.004364	-0.723633	-0.572998	0.198975	0.355858	0.671311	-0.304202	0.574602	123.977318	-81.107098	0.195178	0.154587	0.000527	0.987979	-0.817382	-0.561652	0.128193	0.554968	-0.827373	-0.086394	0	0	0
57447	0	0	0	0	0	9.690028	1.173209	-0.719009	-0.009104	0.008422	-0.006538	-0.725098	-0.583984	0.205322	0.355914	0.671281	-0.304210	0.574599	123.946374	-81.107258	0.220246	0.154584	0.000594	0.987979	-0.817436	-0.561563	0.128238	0.554889	-0.827434	-0.086323	0	0	0
57448	0	0	0	0	0	9.706584	1.165748	-0.747655	0.004025	0.002958	-0.003169	-0.721924	-0.584229	0.199463	0.355913	0.671275	-0.304207	0.574607	123.941981	-81.108114	0.225052	0.154569	0.000607	0.987982	-0.817434	-0.561568	0.128232	0.554897	-0.827430	-0.086305	0	0	0
57449	0	0	0	0	0	9.723886	1.229718	-0.612163	0.004025	0.002958	-0.003169	-0.719727	-0.577637	0.200684	0.355906	0.671279	-0.304199	0.574612	123.942044	-81.108127	0.226350	0.154569	0.000611	0.987982	-0.817420	-0.561588	0.128232	0.554917	-0.827417	-0.086305	0	0	0
57450	0	0	0	0	0	9.730625	1.165171	-0.692306	0.005993	0.005894	-0.002982	-0.718506	-0.581787	0.202637	0.355907	0.671267	-0.304189	0.574630	123.929587	-81.109931	0.239672	0.154538	0.000646	0.987987	-0.817414	-0.561598	0.128225	0.554934	-0.827410	-0.086260	0	0	0
57451	0	0	0	0	0	9.703305	1.210991	-0.678870	0.013243	0.006926	-0.005664	-0.717773	-0.573242	0.195068	0.355883	0.671279	-0.304139	0.574658	123.917769	-81.110027	0.258341	0.154536	0.000697	0.987987	-0.817346	-0.561694	0.128241	0.555035	-0.827345	-0.086232	0	0	0
57452	0	0	0	0	0	9.734545	1.193329	-0.594858	0.009936	-0.001376	-0.005887	-0.724365	-0.584717	0.202148	0.355865	0.671301	-0.304117	0.574655	123.923780	-81.108152	0.255950	0.154568	0.000690	0.987982	-0.817307	-0.561746	0.128259	0.555084	-0.827309	-0.086264	0	0	0
57453	0	0	0	0	0	9.733062	1.240458	-0.669793	0.018046	-0.000536	-0.006994	-0.718994	-0.573242	0.197754	0.355816	0.671345	-0.304063	0.574662	123.934675	-81.105229	0.254416	0.154619	0.000687	0.987974	-0.817210	-0.561882	0.128284	0.555212	-0.827217	-0.086316	0	0	0
57454	0	0	0	0	0	9.703074	1.212609	-0.679291	0.012854	-0.001548	-0.007666	-0.720947	-0.583252	0.196289	0.355795	0.671374	-0.304029	0.574660	123.939317	-81.102491	0.254772	0.154666	0.000688	0.987967	-0.817155	-0.561954	0.128317	0.555280	-0.827168	-0.086353	0	0	0
57455	0	0	0	0	0	9.712539	1.246336	-0.683020	0.011366	0.001073	-0.009390	-0.727295	-0.578857	0.202393	0.355778	0.671406	-0.303982	0.574658	123.936596	-81.098944	0.263145	0.154727	0.000711	0.987957	-0.817092	-0.562034	0.128371	0.555356	-0.827114	-0.086381	0	0	0
57456	0	0	0	0	0	9.695631	1.231167	-0.708548	0.009001	0.002807	-0.008303	-0.717041	-0.575439	0.196045	0.355782	0.671414	-0.303953	0.574661	123.924204	-81.097334	0.277782	0.154755	0.000750	0.987953	-0.817065	-0.562064	0.128413	0.555389	-0.827094	-0.086369	0	0	0
57457	0	0	0	0	0	9.685029	1.293187	-0.670105	0.001826	-0.002219	-0.004778	-0.720947	-0.583984	0.209473	0.355779	0.671431	-0.303956	0.574642	123.935429	-81.094927	0.266506	0.154796	0.000720	0.987946	-0.817061	-0.562065	0.128431	0.555382	-0.827093	-0.086417	0	0	0
57458	0	0	0	0	0	9.738642	1.297340	-0.661076	-0.005715	-0.000417	-0.008750	-0.714844	-0.575684	0.205322	0.355822	0.671427	-0.303967	0.574613	123.924183	-81.091914	0.272577	0.154848	0.000737	0.987938	-0.817104	-0.561989	0.128491	0.555305	-0.827144	-0.086421	0	0	0
57459	0	0	0	0	0	9.725267	1.261630	-0.699235	-0.013363	0.003220	-0.004797	-0.722656	-0.583740	0.196533	0.355879	0.671402	-0.304003	0.574589	123.910164	-81.091237	0.278044	0.154860	0.000752	0.987936	-0.817184	-0.561865	0.128522	0.555183	-0.827229	-0.086396	0	0	0
57460	0	0	0	0	0	9.765649	1.229318	-0.727857	-0.026740	0.005360	-0.005207	-0.728027	-0.581543	0.198242	0.355993	0.671337	-0.304078	0.574553	123.876238	-81.091790	0.294587	0.154850	0.000796	0.987938	-0.817352	-0.561611	0.128565	0.554939	-0.827401	-0.086315	0	0	0
57461	0	0	0	0	0	9.742989	1.184538	-0.707086	-0.018629	0.006200	-0.006312	-0.724609	-0.579590	0.198730	0.356076	0.671296	-0.304119	0.574528	123.847073	-81.091343	0.312331	0.154857	0.000844	0.987936	-0.817460	-0.561443	0.128615	0.554778	-0.827515	-0.086253	0	0	0
57462	0	0	0	0	0	9.709773	1.201096	-0.648045	-0.012179	0.002351	-0.005338	-0.723145	-0.576172	0.202881	0.356142	0.671263	-0.304162	0.574504	123.829974	-81.091078	0.319426	0.154862	0.000863	0.987936	-0.817555	-0.561297	0.128645	0.554636	-0.827614	-0.086218	0	0	0
57463	0	0	0	0	0	9.720472	1.164350	-0.631303	-0.006972	0.004443	-0.009048	-0.718750	-0.581543	0.195068	0.356191	0.671252	-0.304164	0.574486	123.807263	-81.088767	0.337398	0.154901	0.000912	0.987930	-0.817594	-0.561225	0.128712	0.554568	-0.827663	-0.086189	0	0	0
57464	0	0	0	0	0	9.703606	1.149250	-0.656406	0.004594	0.005602	-0.008245	-0.717529	-0.576660	0.198486	0.356209	0.671246	-0.304139	0.574494	123.784239	-81.088050	0.360999	0.154913	0.000976	0.987928	-0.817584	-0.561229	0.128757	0.554580	-0.827660	-0.086144	0	0	0
57465	0	0	0	0	0	9.729692	1.174956	-0.688879	0.005530	0.001417	-0.005828	-0.719971	-0.582520	0.201660	0.356203	0.671261	-0.304120	0.574490	123.784435	-81.086306	0.363035	0.154943	0.000982	0.987923	-0.817558	-0.561261	0.128782	0.554609	-0.827638	-0.086161	0	0	0
57466	0	0	0	0	0	9.722376	1.192660	-0.717871	0.002628	0.002665	-0.008431	-0.719727	-0.572021	0.192383	0.356223	0.671262	-0.304105	0.574485	123.768966	-81.084480	0.377970	0.154975	0.001022	0.987918	-0.817557	-0.561251	0.128831	0.554602	-0.827645	-0.086144	0	0	0
57467	0	0	0	0	0	9.736779	1.159343	-0.659556	-0.008002	-0.002680	-0.006818	-0.719482	-0.580811	0.193115	0.356259	0.671266	-0.304129	0.574446	123.771836	-81.080960	0.369451	0.155035	0.001000	0.987908	-0.817605	-0.561171	0.128877	0.554514	-0.827699	-0.086184	0	0	0
57468	0	0	0	0	0	9.716373	1.164670	-0.672186	-0.003193	0.004082	-0.009254	-0.721436	-0.586182	0.203125	0.356306	0.671250	-0.304128	0.574435	123.745987	-81.079428	0.390962	0.155061	0.001058	0.987904	-0.817641	-0.561104	0.128938	0.554454	-0.827744	-0.086141	0	0	0
57469	0	0	0	0	0	9.729406	1.177819	-0.688024	-0.004161	0.006107	-0.002903	-0.723877	-0.577393	0.193115	0.356331	0.671230	-0.304139	0.574438	123.732332	-81.080570	0.401398	0.155042	0.001086	0.987907	-0.817674	-0.561056	0.128942	0.554411	-0.827777	-0.086099	0	0	0
57470	0	0	0	0	0	9.729405	1.178028	-0.687682	-0.008970	-0.000655	-0.000467	-0.728027	-0.580078	0.194824	0.356368	0.671204	-0.304195	0.574416	123.735984	-81.081578	0.389255	0.155024	0.001053	0.987910	-0.817759	-0.560935	0.128922	0.554290	-0.827859	-0.086097	0	0	0
57471	0	0	0	0	0	9.718628	1.215772	-0.703560	0.007097	0.009023	-0.004364	-0.724609	-0.573975	0.198486	0.356363	0.671197	-0.304163	0.574443	123.716953	-81.082952	0.411662	0.155000	0.001114	0.987914	-0.817727	-0.560980	0.128931	0.554344	-0.827828	-0.086041	0	0	0
57472	0	0	0	0	0	9.725876	1.199037	-0.673853	0.013548	0.005178	-0.003391	-0.724854	-0.572754	0.197510	0.356337	0.671200	-0.304130	0.574473	123.710096	-81.084622	0.424010	0.154971	0.001147	0.987918	-0.817677	-0.561057	0.128917	0.554427	-0.827776	-0.086010	0	0	0
57473	0	0	0	0	0	9.705538	1.203788	-0.686493	0.008433	0.000170	-0.003222	-0.719971	-0.573975	0.199707	0.356311	0.671220	-0.304115	0.574474	123.721033	-81.083724	0.416856	0.154987	0.001128	0.987916	-0.817639	-0.561113	0.128914	0.554478	-0.827738	-0.086043	0	0	0
57474	0	0	0	0	0	9.742612	1.215462	-0.648062	0.012995	0.003613	-0.002697	-0.716064	-0.578125	0.199707	0.356275	0.671230	-0.304081	0.574503	123.720690	-81.085160	0.423690	0.154962	0.001146	0.987920	-0.817578	-0.561206	0.128894	0.554574	-0.827675	-0.086029	0	0	0
57475	0	0	0	0	0	9.705520	1.204190	-0.686043	0.004808	0.006761	-0.002435	-0.724365	-0.584473	0.204102	0.356269	0.671223	-0.304066	0.574523	123.711122	-81.086733	0.435190	0.154935	0.001177	0.987924	-0.817562	-0.561232	0.128886	0.554606	-0.827658	-0.085992	0	0	0
57476	0	0	0	0	0	9.685370	1.232884	-0.643556	-0.004945	0.002303	-0.003635	-0.723633	-0.583496	0.195313	0.356301	0.671203	-0.304090	0.574512	123.702411	-81.087040	0.438751	0.154929	0.001186	0.987925	-0.817612	-0.561157	0.128894	0.554534	-0.827709	-0.085970	0	0	0
57477	0	0	0	0	0	9.729499	1.203858	-0.630580	0.000570	0.002642	-0.005076	-0.718994	-0.581787	0.198730	0.356311	0.671205	-0.304086	0.574507	123.697575	-81.086045	0.443003	0.154946	0.001198	0.987922	-0.817615	-0.561148	0.128916	0.554525	-0.827715	-0.085968	0	0	0
57478	0	0	0	0	0	9.702052	1.249731	-0.617667	0.004425	-0.001710	-0.004439	-0.719727	-0.572754	0.200195	0.356315	0.671211	-0.304094	0.574493	123.703731	-81.084801	0.435705	0.154968	0.001178	0.987919	-0.817624	-0.561132	0.128924	0.554505	-0.827725	-0.085994	0	0	0
57479	0	0	0	0	0	9.742477	1.217152	-0.646923	-0.004085	0.002113	-0.002061	-0.722900	-0.585449	0.189941	0.356331	0.671200	-0.304115	0.574484	123.703945	-81.085074	0.432145	0.154963	0.001169	0.987920	-0.817657	-0.561085	0.128920	0.554457	-0.827758	-0.085992	0	0	0
57480	0	0	0	0	0	9.722118	1.222077	-0.659550	0.000340	0.000402	-0.006500	-0.716797	-0.587158	0.206299	0.356355	0.671197	-0.304121	0.574470	123.697123	-81.083628	0.436160	0.154988	0.001180	0.987916	-0.817681	-0.561043	0.128951	0.554416	-0.827786	-0.085990	0	0	0
57481	0	0	0	0	0	9.711252	1.260136	-0.675976	0.009940	-0.001371	-0.005880	-0.716797	-0.581787	0.189941	0.356329	0.671228	-0.304095	0.574464	123.708215	-81.080974	0.429723	0.155034	0.001163	0.987908	-0.817631	-0.561112	0.128973	0.554477	-0.827739	-0.086041	0	0	0
57482	0	0	0	0	0	9.751812	1.251643	-0.650516	0.008127	0.001923	-0.005487	-0.720215	-0.576660	0.201172	0.356330	0.671232	-0.304082	0.574466	123.703328	-81.080226	0.435686	0.155047	0.001179	0.987906	-0.817618	-0.561126	0.128991	0.554492	-0.827729	-0.086037	0	0	0
57483	0	0	0	0	0	9.692093	1.195068	-0.668745	0.001982	0.004014	-0.004196	-0.717285	-0.576660	0.195557	0.356334	0.671231	-0.304075	0.574468	123.696915	-81.080087	0.442353	0.155049	0.001197	0.987906	-0.817614	-0.561129	0.129002	0.554497	-0.827728	-0.086024	0	0	0
57484	0	0	0	0	0	9.738689	1.239843	-0.633551	0.005438	0.004331	-0.002284	-0.719971	-0.577393	0.196533	0.356328	0.671223	-0.304066	0.574486	123.690482	-81.081820	0.450280	0.155019	0.001218	0.987911	-0.817603	-0.561149	0.128987	0.554522	-0.827714	-0.085993	0	0	0
57485	0	0	0	0	0	9.738532	1.216262	-0.687809	0.001905	0.008006	-0.005038	-0.720947	-0.584229	0.189941	0.356341	0.671211	-0.304049	0.574501	123.670186	-81.082548	0.470956	0.155006	0.001274	0.987913	-0.817598	-0.561151	0.129007	0.554532	-0.827713	-0.085940	0	0	0
57486	0	0	0	0	0	9.701570	1.229282	-0.670750	-0.003515	0.004752	-0.007137	-0.726318	-0.573975	0.196777	0.356390	0.671187	-0.304060	0.574492	123.646127	-81.082174	0.489474	0.155012	0.001324	0.987912	-0.817649	-0.561067	0.129048	0.554456	-0.827769	-0.085889	0	0	0
57487	0	0	0	0	0	9.721839	1.225376	-0.657545	-0.000613	0.003506	-0.004533	-0.718018	-0.578125	0.197510	0.356403	0.671183	-0.304060	0.574489	123.639085	-81.081713	0.495273	0.155020	0.001340	0.987910	-0.817659	-0.561048	0.129066	0.554439	-0.827782	-0.085878	0	0	0
57488	0	0	0	0	0	9.721786	1.225883	-0.657386	-0.003991	-0.000804	-0.005601	-0.720703	-0.583984	0.203369	0.356431	0.671177	-0.304077	0.574470	123.636046	-81.080349	0.494147	0.155043	0.001337	0.987907	-0.817697	-0.560988	0.129090	0.554377	-0.827823	-0.085884	0	0	0
57489	0	0	0	0	0	9.684780	1.238843	-0.640980	-0.001395	-0.000297	-0.005263	-0.720215	-0.579834	0.200684	0.356443	0.671184	-0.304084	0.574451	123.638636	-81.078333	0.489742	0.155078	0.001326	0.987901	-0.817710	-0.560963	0.129115	0.554347	-0.827840	-0.085909	0	0	0
57490	0	0	0	0	0	9.717952	1.223379	-0.699692	-0.003606	-0.006550	-0.002492	-0.724854	-0.573730	0.195068	0.356454	0.671190	-0.304124	0.574415	123.659939	-81.076377	0.463635	0.155113	0.001255	0.987896	-0.817755	-0.560898	0.129111	0.554271	-0.827884	-0.085976	0	0	0
57491	0	0	0	0	0	9.754945	1.235285	-0.661740	-0.003360	-0.003234	-0.005451	-0.712891	-0.577637	0.196777	0.356469	0.671202	-0.304141	0.574383	123.669932	-81.073338	0.450596	0.155165	0.001220	0.987888	-0.817779	-0.560856	0.129140	0.554221	-0.827912	-0.086028	0	0	0
57492	0	0	0	0	0	9.721511	1.227587	-0.658263	-0.000859	0.000190	-0.001573	-0.722412	-0.590332	0.198242	0.356476	0.671193	-0.304160	0.574379	123.673562	-81.074172	0.444542	0.155151	0.001204	0.987890	-0.817805	-0.560822	0.129122	0.554186	-0.827935	-0.086028	0	0	0
57493	0	0	0	0	0	9.732286	1.190427	-0.641805	0.000570	0.002640	-0.005075	-0.720703	-0.579834	0.192871	0.356486	0.671194	-0.304157	0.574373	123.668730	-81.073178	0.448789	0.155168	0.001215	0.987887	-0.817808	-0.560813	0.129144	0.554177	-0.827941	-0.086026	0	0	0
57494	0	0	0	0	0	9.691644	1.199740	-0.666895	0.001028	0.007119	-0.002228	-0.733643	-0.580811	0.198242	0.356513	0.671163	-0.304171	0.574386	123.650138	-81.075801	0.463737	0.155123	0.001256	0.987894	-0.817848	-0.560758	0.129134	0.554132	-0.827979	-0.085959	0	0	0
57495	0	0	0	0	0	9.732410	1.215059	-0.585733	0.002457	0.009569	-0.005729	-0.727051	-0.577393	0.202148	0.356528	0.671149	-0.304147	0.574405	123.624015	-81.076693	0.490630	0.155107	0.001328	0.987897	-0.817839	-0.560764	0.129160	0.554149	-0.827974	-0.085892	0	0	0
57496	0	0	0	0	0	9.695206	1.180038	-0.678321	0.002842	0.003824	-0.002621	-0.725830	-0.576172	0.201416	0.356533	0.671136	-0.304150	0.574416	123.617289	-81.078300	0.496682	0.155079	0.001344	0.987901	-0.817849	-0.560754	0.129147	0.554143	-0.827982	-0.085861	0	0	0
57497	0	0	0	0	0	9.732237	1.191863	-0.639869	0.004427	-0.001710	-0.004437	-0.724121	-0.576416	0.200928	0.356522	0.671156	-0.304145	0.574403	123.629176	-81.076230	0.486242	0.155115	0.001316	0.987896	-0.817831	-0.560776	0.129159	0.554158	-0.827966	-0.085908	0	0	0
57498	0	0	0	0	0	9.700941	1.210269	-0.723869	0.008987	0.001735	-0.003910	-0.722656	-0.576660	0.195557	0.356501	0.671165	-0.304124	0.574416	123.630104	-81.076459	0.489223	0.155111	0.001324	0.987896	-0.817794	-0.560832	0.129155	0.554215	-0.827928	-0.085908	0	0	0
57499	0	0	0	0	0	9.704597	1.213954	-0.681880	0.013625	0.001188	-0.002541	-0.723633	-0.580811	0.192383	0.356457	0.671190	-0.304094	0.574430	123.642286	-81.076213	0.483819	0.155115	0.001310	0.987896	-0.817728	-0.560931	0.129140	0.554311	-0.827861	-0.085938	0	0	0
57500	0	0	0	0	0	9.754704	1.238072	-0.660095	0.008189	-0.003144	-0.000258	-0.721436	-0.581787	0.198975	0.356431	0.671201	-0.304105	0.574427	123.663260	-81.076702	0.464156	0.155107	0.001257	0.987897	-0.817719	-0.560954	0.129101	0.554326	-0.827846	-0.085980	0	0	0
57501	0	0	0	0	0	9.751089	1.258841	-0.647459	0.000342	0.000399	-0.006498	-0.722900	-0.587646	0.193848	0.356442	0.671210	-0.304101	0.574411	123.662220	-81.074318	0.464432	0.155148	0.001258	0.987890	-0.817721	-0.560942	0.129137	0.554312	-0.827854	-0.086001	0	0	0
57502	0	0	0	0	0	9.745109	1.205620	-0.656896	0.002674	-0.003484	0.001181	-0.719482	-0.575439	0.204590	0.356437	0.671208	-0.304140	0.574397	123.683855	-81.075200	0.439819	0.155133	0.001191	0.987893	-0.817754	-0.560904	0.129092	0.554267	-0.827880	-0.086041	0	0	0
57503	0	0	0	0	0	9.711700	1.197666	-0.653548	-0.007462	-0.002201	-0.003130	-0.719482	-0.569824	0.199219	0.356460	0.671205	-0.304174	0.574367	123.693041	-81.073596	0.425216	0.155161	0.001152	0.987888	-0.817805	-0.560828	0.129101	0.554184	-0.827932	-0.086077	0	0	0
57504	0	0	0	0	0	9.724750	1.210395	-0.669784	0.002517	0.004500	-0.000505	-0.722168	-0.583252	0.194092	0.356449	0.671194	-0.304170	0.574389	123.689158	-81.076251	0.430592	0.155115	0.001166	0.987896	-0.817796	-0.560849	0.129069	0.554210	-0.827917	-0.086043	0	0	0
57505	0	0	0	0	0	9.737962	1.246957	-0.630761	-0.000157	0.007984	-0.001686	-0.721436	-0.572998	0.192871	0.356460	0.671174	-0.304171	0.574406	123.674531	-81.078572	0.444332	0.155075	0.001203	0.987902	-0.817808	-0.560834	0.129058	0.554204	-0.827928	-0.085988	0	0	0
57506	0	0	0	0	0	9.691397	1.202816	-0.664942	-0.009030	0.004408	-0.005697	-0.729492	-0.576416	0.200439	0.356519	0.671140	-0.304199	0.574393	123.651623	-81.078855	0.459194	0.155070	0.001243	0.987903	-0.817885	-0.560715	0.129088	0.554092	-0.828008	-0.085934	0	0	0
57507	0	0	0	0	0	9.691355	1.203215	-0.664829	0.011661	-0.001749	-0.002728	-0.716309	-0.572754	0.195313	0.356478	0.671170	-0.304179	0.574394	123.671216	-81.077588	0.445150	0.155092	0.001205	0.987899	-0.817830	-0.560797	0.129077	0.554167	-0.827952	-0.085990	0	0	0
57508	0	0	0	0	0	9.700794	1.236451	-0.668793	0.014029	-0.003481	-0.003812	-0.722412	-0.574951	0.198242	0.356432	0.671203	-0.304153	0.574398	123.690542	-81.076257	0.432314	0.155115	0.001170	0.987896	-0.817766	-0.560893	0.129067	0.554255	-0.827887	-0.086046	0	0	0
57509	0	0	0	0	0	9.728261	1.215528	-0.627281	0.005077	-0.003065	-0.008667	-0.724854	-0.575928	0.202637	0.356429	0.671234	-0.304135	0.574374	123.698327	-81.071740	0.426402	0.155193	0.001155	0.987883	-0.817738	-0.560921	0.129120	0.554274	-0.827868	-0.086107	0	0	0
57510	0	0	0	0	0	9.733989	1.245535	-0.673152	0.003551	-0.002597	-0.001627	-0.727539	-0.576904	0.199707	0.356413	0.671243	-0.304144	0.574368	123.713761	-81.071681	0.411563	0.155195	0.001115	0.987883	-0.817734	-0.560933	0.129097	0.554280	-0.827861	-0.086142	0	0	0
57511	0	0	0	0	0	9.709990	1.246587	-0.727815	0.001333	0.005366	0.000037	-0.720947	-0.575928	0.200439	0.356409	0.671230	-0.304151	0.574382	123.711429	-81.073993	0.413721	0.155155	0.001120	0.987890	-0.817740	-0.560930	0.129068	0.554281	-0.827863	-0.086115	0	0	0
57512	0	0	0	0	0	9.717248	1.229656	-0.698465	-0.004007	-0.001882	-0.001219	-0.721191	-0.579834	0.202148	0.356421	0.671222	-0.304184	0.574367	123.721007	-81.074359	0.400040	0.155149	0.001083	0.987891	-0.817783	-0.560873	0.129048	0.554221	-0.827901	-0.086133	0	0	0
57513	0	0	0	0	0	9.761527	1.224460	-0.630920	-0.008093	0.000226	-0.003281	-0.721436	-0.584473	0.204590	0.356451	0.671212	-0.304215	0.574344	123.722149	-81.073455	0.393215	0.155164	0.001065	0.987888	-0.817836	-0.560792	0.129059	0.554137	-0.827956	-0.086144	0	0	0
57514	0	0	0	0	0	9.691071	1.205118	-0.665517	-0.001490	0.002617	-0.001724	-0.720215	-0.579590	0.194092	0.356466	0.671195	-0.304235	0.574343	123.718545	-81.074768	0.393583	0.155142	0.001066	0.987892	-0.817870	-0.560745	0.129046	0.554093	-0.827988	-0.086123	0	0	0
57515	0	0	0	0	0	9.728001	1.192944	-0.681800	-0.006050	-0.000828	-0.002250	-0.721191	-0.575928	0.204590	0.356485	0.671190	-0.304266	0.574321	123.726147	-81.074020	0.381405	0.155155	0.001033	0.987890	-0.817914	-0.560681	0.129045	0.554024	-0.828031	-0.086148	0	0	0
57516	0	0	0	0	0	9.718458	1.160470	-0.678099	-0.011854	0.001658	-0.007458	-0.722412	-0.578369	0.194092	0.356548	0.671166	-0.304296	0.574293	123.707534	-81.072448	0.391377	0.155182	0.001060	0.987885	-0.817993	-0.560554	0.129096	0.553900	-0.828117	-0.086121	0	0	0
57517	0	0	0	0	0	9.718423	1.160756	-0.678115	0.007865	-0.002466	0.001858	-0.721680	-0.581299	0.195313	0.356506	0.671185	-0.304304	0.574294	123.736389	-81.073137	0.365754	0.155170	0.000991	0.987887	-0.817967	-0.560606	0.129043	0.553943	-0.828082	-0.086179	0	0	0
57518	0	0	0	0	0	9.731560	1.197370	-0.639896	0.013091	0.000701	-0.006228	-0.718506	-0.574219	0.199707	0.356488	0.671202	-0.304275	0.574300	123.736385	-81.071942	0.369958	0.155191	0.001002	0.987884	-0.817923	-0.560666	0.129060	0.554002	-0.828042	-0.086191	0	0	0
57519	0	0	0	0	0	9.724269	1.214663	-0.669029	0.011258	0.002920	-0.001455	-0.717041	-0.581299	0.196289	0.356452	0.671216	-0.304253	0.574319	123.744138	-81.072766	0.367664	0.155177	0.000996	0.987886	-0.817872	-0.560745	0.129036	0.554081	-0.827988	-0.086200	0	0	0
57520	0	0	0	0	0	9.700291	1.215699	-0.723480	0.009443	0.006214	-0.001063	-0.724609	-0.581299	0.196289	0.356433	0.671207	-0.304235	0.574350	123.736561	-81.075655	0.378688	0.155127	0.001025	0.987894	-0.817844	-0.560793	0.129006	0.554136	-0.827956	-0.086155	0	0	0
57521	0	0	0	0	0	9.711220	1.202360	-0.652056	0.008988	0.001734	-0.003908	-0.725830	-0.589355	0.194336	0.356410	0.671224	-0.304213	0.574356	123.741642	-81.074933	0.377782	0.155139	0.001023	0.987892	-0.817802	-0.560853	0.129009	0.554195	-0.827915	-0.086174	0	0	0
57522	0	0	0	0	0	9.714866	1.206077	-0.610110	0.006699	-0.000526	-0.001980	-0.724365	-0.585449	0.206299	0.356407	0.671223	-0.304227	0.574352	123.749905	-81.075337	0.368454	0.155132	0.000998	0.987893	-0.817814	-0.560840	0.128991	0.554178	-0.827924	-0.086189	0	0	0
57523	0	0	0	0	0	9.703912	1.219677	-0.681417	0.004963	-0.001223	-0.000745	-0.724609	-0.574707	0.194580	0.356384	0.671236	-0.304232	0.574348	123.768057	-81.075180	0.351982	0.155135	0.000953	0.987893	-0.817800	-0.560867	0.128966	0.554199	-0.827906	-0.086231	0	0	0
57524	0	0	0	0	0	9.735050	1.177844	-0.652256	-0.005822	0.001411	-0.000828	-0.728760	-0.580322	0.202881	0.356410	0.671213	-0.304271	0.574339	123.767106	-81.076719	0.347010	0.155109	0.000939	0.987897	-0.817861	-0.560782	0.128945	0.554116	-0.827963	-0.086214	0	0	0
57525	0	0	0	0	0	9.700301	1.240468	-0.668507	-0.000534	-0.000489	-0.003689	-0.721436	-0.570801	0.195068	0.356415	0.671219	-0.304280	0.574323	123.773912	-81.075394	0.338835	0.155132	0.000917	0.987893	-0.817872	-0.560764	0.128954	0.554093	-0.827975	-0.086242	0	0	0
57526	0	0	0	0	0	9.724128	1.216065	-0.668543	-0.002253	-0.000113	-0.006835	-0.725586	-0.572021	0.190186	0.356439	0.671216	-0.304287	0.574307	123.767600	-81.073714	0.342248	0.155161	0.000927	0.987889	-0.817896	-0.560721	0.128987	0.554050	-0.828004	-0.086244	0	0	0
57527	0	0	0	0	0	9.737095	1.229152	-0.685240	-0.000683	-0.006721	-0.004267	-0.723389	-0.582764	0.197998	0.356437	0.671241	-0.304306	0.574270	123.792032	-81.070128	0.316144	0.155223	0.000856	0.987879	-0.817907	-0.560702	0.129002	0.554016	-0.828018	-0.086333	0	0	0
57528	0	0	0	0	0	9.727531	1.196608	-0.682080	0.006165	-0.001015	-0.005668	-0.718262	-0.577637	0.199219	0.356435	0.671250	-0.304301	0.574263	123.794493	-81.068773	0.314224	0.155246	0.000851	0.987875	-0.817899	-0.560710	0.129018	0.554021	-0.828012	-0.086352	0	0	0
57529	0	0	0	0	0	9.727578	1.220989	-0.627262	0.012135	0.003805	-0.004261	-0.722168	-0.581055	0.195557	0.356406	0.671268	-0.304264	0.574280	123.794372	-81.068544	0.320409	0.155250	0.000868	0.987875	-0.817839	-0.560796	0.129021	0.554108	-0.827953	-0.086354	0	0	0
57530	0	0	0	0	0	9.733363	1.250864	-0.672312	0.007092	0.009019	-0.004360	-0.723145	-0.577637	0.191162	0.356412	0.671250	-0.304241	0.574310	123.770010	-81.070802	0.346427	0.155211	0.000938	0.987881	-0.817825	-0.560816	0.129025	0.554140	-0.827940	-0.086277	0	0	0
57531	0	0	0	0	0	9.723891	1.218255	-0.667995	0.008277	0.008153	-0.004901	-0.732178	-0.573730	0.202148	0.356404	0.671248	-0.304206	0.574335	123.753199	-81.071651	0.367268	0.155196	0.000995	0.987883	-0.817786	-0.560870	0.129039	0.554203	-0.827903	-0.086231	0	0	0
57532	0	0	0	0	0	9.690493	1.210585	-0.664006	0.000018	0.001072	-0.004381	-0.718750	-0.571289	0.195557	0.356418	0.671241	-0.304215	0.574330	123.749129	-81.071626	0.369172	0.155196	0.001000	0.987883	-0.817807	-0.560839	0.129045	0.554172	-0.827925	-0.086222	0	0	0
57533	0	0	0	0	0	9.720127	1.215638	-0.709736	0.006798	-0.003445	-0.005515	-0.725830	-0.579102	0.197266	0.356399	0.671271	-0.304203	0.574313	123.765385	-81.068491	0.355682	0.155251	0.000964	0.987875	-0.817774	-0.560881	0.129066	0.554204	-0.827896	-0.086289	0	0	0
57534	0	0	0	0	0	9.720146	1.239954	-0.655234	-0.006602	-0.002393	-0.001558	-0.719238	-0.580811	0.199707	0.356421	0.671259	-0.304245	0.574291	123.773678	-81.068590	0.341519	0.155249	0.000925	0.987875	-0.817833	-0.560799	0.129052	0.554118	-0.827952	-0.086307	0	0	0
57535	0	0	0	0	0	9.736770	1.232171	-0.684436	-0.002043	0.001054	-0.001032	-0.722168	-0.579346	0.199951	0.356426	0.671254	-0.304265	0.574284	123.780314	-81.069022	0.332639	0.155242	0.000901	0.987876	-0.817857	-0.560768	0.129035	0.554085	-0.827973	-0.086318	0	0	0
57536	0	0	0	0	0	9.716512	1.260822	-0.642355	-0.004314	-0.000134	-0.003486	-0.727783	-0.580566	0.203125	0.356452	0.671242	-0.304292	0.574267	123.779343	-81.068722	0.328571	0.155247	0.000890	0.987875	-0.817905	-0.560696	0.129041	0.554012	-0.828022	-0.086318	0	0	0
57537	0	0	0	0	0	9.686597	1.208641	-0.706439	-0.003681	-0.002562	-0.003334	-0.727295	-0.575439	0.198486	0.356464	0.671247	-0.304316	0.574241	123.791326	-81.066906	0.313329	0.155279	0.000849	0.987870	-0.817934	-0.560651	0.129049	0.553960	-0.828052	-0.086363	0	0	0
57538	0	0	0	0	0	9.703267	1.225026	-0.681004	0.003245	-0.000847	-0.003891	-0.723145	-0.578369	0.194336	0.356462	0.671252	-0.304320	0.574234	123.796503	-81.066366	0.307869	0.155288	0.000834	0.987869	-0.817937	-0.560648	0.129049	0.553954	-0.828054	-0.086379	0	0	0
57539	0	0	0	0	0	9.719950	1.241309	-0.655575	0.010479	-0.000882	-0.002181	-0.722412	-0.576904	0.196777	0.356425	0.671276	-0.304304	0.574237	123.813843	-81.065634	0.295418	0.155301	0.000801	0.987867	-0.817889	-0.560721	0.129033	0.554021	-0.828005	-0.086426	0	0	0
57540	0	0	0	0	0	9.717698	1.191742	-0.622838	0.000895	0.001956	-0.007188	-0.720215	-0.574951	0.196045	0.356449	0.671271	-0.304302	0.574229	123.801417	-81.064423	0.305739	0.155322	0.000829	0.987864	-0.817905	-0.560689	0.129070	0.553991	-0.828026	-0.086409	0	0	0
57541	0	0	0	0	0	9.703133	1.226096	-0.680995	0.004883	0.002769	-0.001588	-0.718750	-0.583008	0.194580	0.356435	0.671274	-0.304297	0.574237	123.805695	-81.065138	0.303264	0.155309	0.000822	0.987866	-0.817890	-0.560715	0.129053	0.554017	-0.828008	-0.086412	0	0	0
57542	0	0	0	0	0	9.703136	1.226311	-0.680570	-0.004167	0.006097	-0.002908	-0.716309	-0.585205	0.196289	0.356472	0.671241	-0.304318	0.574242	123.786287	-81.067187	0.317457	0.155274	0.000860	0.987871	-0.817943	-0.560637	0.129053	0.553948	-0.828061	-0.086349	0	0	0
57543	0	0	0	0	0	9.723468	1.222112	-0.667107	0.003619	0.007625	-0.001891	-0.729248	-0.574463	0.205322	0.356470	0.671229	-0.304307	0.574264	123.774510	-81.069305	0.330501	0.155237	0.000895	0.987877	-0.817934	-0.560653	0.129040	0.553972	-0.828050	-0.086302	0	0	0
57544	0	0	0	0	0	9.699467	1.223318	-0.721685	0.008210	-0.002069	-0.004634	-0.722412	-0.582520	0.199707	0.356454	0.671246	-0.304298	0.574258	123.784498	-81.067873	0.322764	0.155262	0.000875	0.987873	-0.817910	-0.560687	0.129046	0.554001	-0.828027	-0.086338	0	0	0
57545	0	0	0	0	0	9.749563	1.271766	-0.645173	0.005289	-0.001901	-0.002858	-0.720459	-0.571045	0.202148	0.356434	0.671266	-0.304296	0.574248	123.800576	-81.066496	0.308581	0.155286	0.000836	0.987869	-0.817890	-0.560717	0.129041	0.554023	-0.828007	-0.086387	0	0	0
57546	0	0	0	0	0	9.729206	1.276541	-0.657919	-0.000614	0.003499	-0.004532	-0.718262	-0.572510	0.203857	0.356452	0.671254	-0.304298	0.574250	123.789121	-81.066910	0.318285	0.155279	0.000863	0.987870	-0.817907	-0.560690	0.129052	0.554000	-0.828025	-0.086358	0	0	0
57547	0	0	0	0	0	9.702982	1.227933	-0.679835	-0.001944	-0.001866	-0.004568	-0.723633	-0.576416	0.201904	0.356461	0.671263	-0.304311	0.574227	123.797480	-81.064729	0.307719	0.155316	0.000834	0.987864	-0.817925	-0.560660	0.129071	0.553964	-0.828046	-0.086397	0	0	0
57548	0	0	0	0	0	9.736310	1.236325	-0.683481	0.001736	0.000697	-0.001234	-0.722900	-0.580322	0.203125	0.356452	0.671261	-0.304317	0.574232	123.803138	-81.065811	0.302417	0.155298	0.000820	0.987867	-0.817924	-0.560666	0.129047	0.553969	-0.828042	-0.086400	0	0	0
57549	0	0	0	0	0	9.715960	1.240982	-0.696355	0.007026	-0.001204	-0.004092	-0.719482	-0.578369	0.194824	0.356431	0.671283	-0.304305	0.574225	123.815591	-81.064068	0.292909	0.155328	0.000794	0.987863	-0.817893	-0.560710	0.129053	0.554007	-0.828012	-0.086444	0	0	0
57550	0	0	0	0	0	9.736273	1.261061	-0.628791	-0.009811	0.000595	-0.006430	-0.724609	-0.580078	0.195557	0.356487	0.671263	-0.304338	0.574197	123.803130	-81.062646	0.297226	0.155352	0.000806	0.987859	-0.817968	-0.560592	0.129092	0.553890	-0.828092	-0.086430	0	0	0
57551	0	0	0	0	0	9.730363	1.208220	-0.637690	-0.005253	0.004042	-0.005903	-0.725586	-0.578125	0.193848	0.356520	0.671251	-0.304345	0.574186	123.788994	-81.061713	0.307512	0.155368	0.000834	0.987856	-0.818002	-0.560534	0.129127	0.553835	-0.828131	-0.086407	0	0	0
57552	0	0	0	0	0	9.743385	1.221241	-0.653613	0.000796	0.004874	-0.003651	-0.717773	-0.572266	0.195313	0.356543	0.671229	-0.304354	0.574192	123.774527	-81.063169	0.319169	0.155343	0.000865	0.987860	-0.818031	-0.560492	0.129128	0.553799	-0.828160	-0.086361	0	0	0
57553	0	0	0	0	0	9.726656	1.205597	-0.678723	0.002533	0.005571	-0.004885	-0.722656	-0.581787	0.199463	0.356550	0.671225	-0.304340	0.574200	123.762283	-81.063207	0.332056	0.155342	0.000900	0.987860	-0.818024	-0.560499	0.129146	0.553811	-0.828155	-0.086333	0	0	0
57554	0	0	0	0	0	9.713606	1.193420	-0.661672	0.001574	0.008677	-0.002922	-0.719238	-0.581299	0.203857	0.356567	0.671198	-0.304335	0.574225	123.738911	-81.066081	0.354438	0.155292	0.000961	0.987868	-0.818037	-0.560480	0.129140	0.553805	-0.828167	-0.086252	0	0	0
57555	0	0	0	0	0	9.696906	1.177680	-0.686629	0.000797	0.004874	-0.003651	-0.725586	-0.580566	0.202393	0.356575	0.671191	-0.304332	0.574230	123.730277	-81.066484	0.362663	0.155285	0.000983	0.987869	-0.818041	-0.560473	0.129147	0.553801	-0.828172	-0.086229	0	0	0
57556	0	0	0	0	0	9.709974	1.214474	-0.648151	0.011665	-0.001746	-0.002719	-0.721680	-0.578125	0.198242	0.356542	0.671211	-0.304318	0.574233	123.745481	-81.065993	0.351787	0.155294	0.000953	0.987868	-0.817999	-0.560538	0.129131	0.553860	-0.828128	-0.086268	0	0	0
57557	0	0	0	0	0	9.722987	1.202969	-0.719375	0.011791	0.003415	0.002239	-0.719238	-0.579346	0.194824	0.356494	0.671219	-0.304305	0.574261	123.759498	-81.068738	0.343460	0.155247	0.000931	0.987875	-0.817951	-0.560621	0.129071	0.553944	-0.828072	-0.086273	0	0	0
57558	0	0	0	0	0	9.723051	1.226932	-0.664334	0.013547	0.005181	-0.003374	-0.716797	-0.581787	0.198730	0.356470	0.671222	-0.304273	0.574289	123.752302	-81.070279	0.355772	0.155220	0.000964	0.987879	-0.817904	-0.560693	0.129060	0.554022	-0.828023	-0.086242	0	0	0
57559	0	0	0	0	0	9.739724	1.219066	-0.693243	0.008338	0.003091	0.000327	-0.721680	-0.577637	0.199463	0.356439	0.671227	-0.304265	0.574306	123.761449	-81.072011	0.350371	0.155190	0.000949	0.987884	-0.817872	-0.560748	0.129021	0.554077	-0.827986	-0.086246	0	0	0
57560	0	0	0	0	0	9.743406	1.222670	-0.650619	0.003537	0.011613	-0.002734	-0.718018	-0.588135	0.196533	0.356456	0.671194	-0.304252	0.574342	123.730676	-81.075800	0.380975	0.155124	0.001031	0.987894	-0.817879	-0.560740	0.129013	0.554085	-0.827991	-0.086141	0	0	0
57561	0	0	0	0	0	9.693362	1.198726	-0.671883	0.009768	0.005535	-0.003171	-0.718018	-0.584961	0.200928	0.356434	0.671200	-0.304223	0.574364	123.726133	-81.076643	0.390262	0.155110	0.001057	0.987897	-0.817834	-0.560807	0.129008	0.554156	-0.827946	-0.086123	0	0	0
57562	0	0	0	0	0	9.706415	1.235636	-0.633247	0.008132	0.001919	-0.005473	-0.720947	-0.570313	0.195068	0.356438	0.671203	-0.304214	0.574363	123.721084	-81.075892	0.395677	0.155122	0.001071	0.987895	-0.817828	-0.560812	0.129026	0.554161	-0.827943	-0.086118	0	0	0
57563	0	0	0	0	0	9.763681	1.219142	-0.636684	0.011259	0.002921	-0.001445	-0.722900	-0.574219	0.191162	0.356402	0.671217	-0.304191	0.574381	123.728826	-81.076726	0.393394	0.155108	0.001065	0.987897	-0.817777	-0.560891	0.129002	0.554240	-0.827889	-0.086128	0	0	0
57564	0	0	0	0	0	9.699161	1.253018	-0.661597	0.024319	0.016755	-0.004390	-0.721436	-0.575684	0.189453	0.356357	0.671208	-0.304099	0.574467	123.690520	-81.081698	0.444488	0.155021	0.001203	0.987910	-0.817659	-0.561067	0.128989	0.554439	-0.827770	-0.085994	0	0	0
57565	0	0	0	0	0	9.695577	1.273678	-0.647965	-0.000081	0.003989	-0.000845	-0.723633	-0.579346	0.198486	0.356359	0.671198	-0.304109	0.574473	123.689730	-81.083158	0.444264	0.154996	0.001202	0.987914	-0.817672	-0.561052	0.128969	0.554427	-0.827780	-0.085978	0	0	0
57566	0	0	0	0	0	9.728955	1.281910	-0.651157	-0.002676	0.003479	-0.001186	-0.717041	-0.578857	0.204834	0.356382	0.671172	-0.304137	0.574475	123.682395	-81.085329	0.447038	0.154959	0.001209	0.987920	-0.817721	-0.560986	0.128949	0.554365	-0.827824	-0.085941	0	0	0
57567	0	0	0	0	0	9.705005	1.283081	-0.705560	-0.006988	0.003342	-0.004674	-0.713379	-0.579102	0.192383	0.356417	0.671157	-0.304155	0.574461	123.671855	-81.084758	0.452677	0.154968	0.001224	0.987919	-0.817766	-0.560914	0.128973	0.554295	-0.827873	-0.085923	0	0	0
57568	0	0	0	0	0	9.732485	1.262372	-0.663464	-0.017513	-0.004927	-0.006613	-0.721191	-0.582520	0.192627	0.356489	0.671140	-0.304217	0.574403	123.671303	-81.081357	0.440754	0.155027	0.001193	0.987909	-0.817881	-0.560736	0.129022	0.554110	-0.827994	-0.085954	0	0	0
57569	0	0	0	0	0	9.722943	1.230063	-0.660107	-0.023030	-0.005269	-0.005179	-0.722168	-0.575928	0.202148	0.356566	0.671122	-0.304294	0.574335	123.676708	-81.077810	0.420948	0.155089	0.001139	0.987900	-0.818014	-0.560531	0.129065	0.553896	-0.828133	-0.086000	0	0	0
57570	0	0	0	0	0	9.709788	1.194239	-0.698544	-0.025706	-0.001791	-0.006362	-0.725586	-0.576660	0.200684	0.356672	0.671079	-0.304378	0.574275	123.662290	-81.075709	0.417809	0.155125	0.001131	0.987894	-0.818179	-0.560278	0.129117	0.553641	-0.828304	-0.085988	0	0	0
57571	0	0	0	0	0	9.724196	1.161073	-0.640348	-0.014283	-0.006847	-0.006118	-0.723145	-0.574951	0.204834	0.356720	0.671083	-0.304431	0.574213	123.675589	-81.071213	0.395086	0.155203	0.001070	0.987882	-0.818263	-0.560146	0.129162	0.553496	-0.828394	-0.086061	0	0	0
57572	0	0	0	0	0	9.750186	1.186891	-0.673527	-0.003025	-0.003923	-0.007563	-0.727051	-0.571045	0.193115	0.356739	0.671094	-0.304440	0.574183	123.679728	-81.067875	0.388182	0.155261	0.001052	0.987873	-0.818283	-0.560107	0.129203	0.553450	-0.828420	-0.086102	0	0	0
57573	0	0	0	0	0	9.753786	1.166717	-0.686175	0.005333	0.007251	0.001259	-0.717041	-0.571777	0.200195	0.356722	0.671081	-0.304435	0.574212	123.676387	-81.071376	0.393679	0.155200	0.001066	0.987882	-0.818269	-0.560137	0.129158	0.553487	-0.828399	-0.086061	0	0	0
57574	0	0	0	0	0	9.700134	1.163251	-0.694670	0.005373	0.009390	-0.007499	-0.720947	-0.575439	0.194092	0.356733	0.671068	-0.304396	0.574241	123.644220	-81.072459	0.428522	0.155181	0.001161	0.987885	-0.818242	-0.560170	0.129191	0.553533	-0.828377	-0.085978	0	0	0
57575	0	0	0	0	0	9.737094	1.175446	-0.655766	0.002615	0.001580	-0.004039	-0.718994	-0.578613	0.199707	0.356731	0.671074	-0.304392	0.574237	123.645823	-81.071632	0.427438	0.155195	0.001158	0.987883	-0.818235	-0.560177	0.129200	0.553539	-0.828372	-0.085989	0	0	0
57576	0	0	0	0	0	9.696461	1.184570	-0.681040	0.002206	0.006248	-0.002768	-0.728516	-0.576416	0.198975	0.356742	0.671054	-0.304390	0.574254	123.630401	-81.073808	0.442089	0.155157	0.001197	0.987889	-0.818246	-0.560164	0.129192	0.553534	-0.828381	-0.085934	0	0	0
57577	0	0	0	0	0	9.713152	1.200779	-0.654981	-0.004414	0.002782	0.000049	-0.718018	-0.580566	0.201416	0.356754	0.671038	-0.304417	0.574251	123.632585	-81.075313	0.436341	0.155132	0.001181	0.987893	-0.818284	-0.560113	0.129167	0.553484	-0.828415	-0.085924	0	0	0
57578	0	0	0	0	0	9.689220	1.225729	-0.654736	-0.005823	0.001406	-0.000832	-0.718994	-0.582031	0.196045	0.356778	0.671015	-0.304454	0.574243	123.631756	-81.076855	0.431649	0.155105	0.001169	0.987897	-0.818342	-0.560034	0.129146	0.553407	-0.828469	-0.085908	0	0	0
57579	0	0	0	0	0	9.713138	1.200969	-0.654844	-0.010298	-0.006032	-0.000519	-0.722656	-0.573242	0.202148	0.356798	0.671015	-0.304512	0.574200	123.656196	-81.075291	0.399958	0.155133	0.001083	0.987893	-0.818412	-0.559935	0.129132	0.553296	-0.828536	-0.085978	0	0	0
57580	0	0	0	0	0	9.742849	1.205505	-0.700945	-0.006538	-0.007456	0.003660	-0.722412	-0.575928	0.194336	0.356798	0.671010	-0.304581	0.574170	123.690795	-81.076139	0.359116	0.155119	0.000972	0.987895	-0.818479	-0.559852	0.129068	0.553200	-0.828592	-0.086048	0	0	0
57581	0	0	0	0	0	9.739189	1.225938	-0.688636	-0.001635	-0.003617	-0.002303	-0.718018	-0.578125	0.198975	0.356798	0.671021	-0.304604	0.574145	123.709242	-81.074488	0.338518	0.155148	0.000917	0.987891	-0.818498	-0.559824	0.129064	0.553164	-0.828611	-0.086105	0	0	0
57582	0	0	0	0	0	9.729727	1.193105	-0.685295	-0.004005	-0.001887	-0.001221	-0.726807	-0.582520	0.204102	0.356813	0.671011	-0.304640	0.574129	123.718050	-81.074828	0.324961	0.155142	0.000880	0.987892	-0.818546	-0.559758	0.129046	0.553094	-0.828656	-0.086122	0	0	0
57583	0	0	0	0	0	9.729712	1.193328	-0.685119	0.014097	0.006748	-0.004062	-0.718506	-0.572021	0.206055	0.356781	0.671023	-0.304593	0.574159	123.710489	-81.075634	0.339814	0.155128	0.000920	0.987894	-0.818476	-0.559861	0.129046	0.553202	-0.828586	-0.086097	0	0	0
57584	0	0	0	0	0	9.668768	1.254761	-0.613572	0.016141	0.005696	-0.003029	-0.723633	-0.580811	0.194580	0.356737	0.671034	-0.304545	0.574198	123.705891	-81.077392	0.352900	0.155097	0.000955	0.987899	-0.818397	-0.559981	0.129027	0.553328	-0.828505	-0.086070	0	0	0
57585	0	0	0	0	0	9.685449	1.247084	-0.642329	0.003391	0.005383	-0.003309	-0.725098	-0.582275	0.200684	0.356737	0.671030	-0.304534	0.574210	123.697861	-81.078124	0.362018	0.155084	0.000980	0.987901	-0.818387	-0.559995	0.129029	0.553346	-0.828495	-0.086045	0	0	0
57586	0	0	0	0	0	9.705750	1.242950	-0.629107	0.002840	0.003821	-0.002616	-0.721924	-0.584473	0.195801	0.356748	0.671014	-0.304543	0.574216	123.690176	-81.079611	0.367882	0.155059	0.000996	0.987905	-0.818407	-0.559968	0.129019	0.553324	-0.828514	-0.086013	0	0	0
57587	0	0	0	0	0	9.800049	1.214077	-0.648726	-0.005823	0.001405	-0.000833	-0.716797	-0.576416	0.203857	0.356765	0.671001	-0.304574	0.574204	123.693956	-81.080258	0.359701	0.155048	0.000973	0.987907	-0.818452	-0.559906	0.129004	0.553260	-0.828556	-0.086015	0	0	0
57588	0	0	0	0	0	9.813096	1.226862	-0.664764	-0.009910	0.003507	-0.002897	-0.714355	-0.580078	0.194580	0.356816	0.670967	-0.304614	0.574192	123.679850	-81.081359	0.365594	0.155029	0.000989	0.987909	-0.818533	-0.559786	0.129010	0.553146	-0.828637	-0.085973	0	0	0
57589	0	0	0	0	0	9.746387	1.186839	-0.712019	-0.005272	0.002967	-0.001524	-0.722168	-0.578857	0.198242	0.356835	0.670952	-0.304638	0.574185	123.677800	-81.082173	0.363633	0.155015	0.000984	0.987912	-0.818574	-0.559728	0.129001	0.553089	-0.828676	-0.085961	0	0	0
57590	0	0	0	0	0	9.707240	1.149287	-0.662522	0.002513	0.004500	-0.000502	-0.723389	-0.574463	0.201416	0.356840	0.670932	-0.304650	0.574198	123.672050	-81.084799	0.367967	0.154969	0.000995	0.987919	-0.818593	-0.559707	0.128972	0.553074	-0.828690	-0.085923	0	0	0
57591	0	0	0	0	0	9.629589	1.194508	-0.617014	0.015448	-0.002095	-0.002913	-0.724121	-0.582275	0.198975	0.356786	0.670970	-0.304619	0.574204	123.694442	-81.083343	0.353283	0.154995	0.000956	0.987915	-0.818517	-0.559821	0.128959	0.553179	-0.828613	-0.085987	0	0	0
57592	0	0	0	0	0	9.648366	1.236858	-0.679509	0.024521	-0.004349	-0.005965	-0.722168	-0.579834	0.201904	0.356715	0.671026	-0.304562	0.574214	123.718084	-81.080627	0.341395	0.155042	0.000924	0.987907	-0.818399	-0.559993	0.128963	0.553341	-0.828497	-0.086066	0	0	0
57593	0	0	0	0	0	9.718632	1.256968	-0.645199	0.018043	-0.001586	-0.002570	-0.721436	-0.577148	0.197510	0.356652	0.671066	-0.304524	0.574225	123.741098	-81.079494	0.327586	0.155061	0.000887	0.987904	-0.818309	-0.560129	0.128944	0.553468	-0.828405	-0.086129	0	0	0
57594	0	0	0	0	0	9.748338	1.261749	-0.690971	0.011034	0.000684	-0.002863	-0.716309	-0.579590	0.200195	0.356626	0.671078	-0.304507	0.574237	123.747794	-81.079822	0.324909	0.155056	0.000879	0.987905	-0.818271	-0.560187	0.128930	0.553525	-0.828365	-0.086141	0	0	0
57595	0	0	0	0	0	9.809247	1.248737	-0.652487	-0.002044	0.001051	-0.001033	-0.725830	-0.574951	0.196289	0.356630	0.671073	-0.304527	0.574229	123.754408	-81.080261	0.316051	0.155048	0.000855	0.987907	-0.818295	-0.560157	0.128913	0.553493	-0.828386	-0.086151	0	0	0
57596	0	0	0	0	0	9.775894	1.240808	-0.648373	-0.008584	0.008871	-0.002863	-0.720947	-0.583008	0.196289	0.356682	0.671027	-0.304551	0.574239	123.724779	-81.083235	0.338811	0.154997	0.000917	0.987915	-0.818365	-0.560053	0.128915	0.553403	-0.828456	-0.086056	0	0	0
57597	0	0	0	0	0	9.688936	1.228830	-0.653137	-0.008074	0.008298	0.005202	-0.721436	-0.579102	0.194580	0.356699	0.670980	-0.304597	0.574257	123.718568	-81.088951	0.339437	0.154898	0.000918	0.987930	-0.818432	-0.559972	0.128843	0.553332	-0.828511	-0.085988	0	0	0
57598	0	0	0	0	0	9.642580	1.208208	-0.632155	-0.004558	0.011825	-0.006018	-0.718262	-0.577637	0.201904	0.356759	0.670933	-0.304602	0.574273	123.674884	-81.091346	0.377232	0.154856	0.001020	0.987936	-0.818490	-0.559881	0.128874	0.553258	-0.828573	-0.085867	0	0	0
57599	0	0	0	0	0	9.651943	1.265571	-0.580468	0.004966	-0.001219	-0.000739	-0.714355	-0.583252	0.189697	0.356736	0.670946	-0.304607	0.574269	123.693020	-81.091205	0.360777	0.154859	0.000975	0.987936	-0.818475	-0.559908	0.128849	0.553279	-0.828554	-0.085909	0	0	0
57600	0	0	0	0	0	9.681655	1.270316	-0.626421	0.002781	-0.006398	-0.002350	-0.725098	-0.581543	0.197998	0.356731	0.670961	-0.304633	0.574242	123.716494	-81.089432	0.335328	0.154890	0.000907	0.987931	-0.818493	-0.559884	0.128839	0.553243	-0.828571	-0.085978	0	0	0
57601	0	0	0	0	0	9.788956	1.254042	-0.663311	0.002781	-0.006398	-0.002350	-0.724609	-0.579834	0.207031	0.356712	0.670987	-0.304648	0.574215	123.745839	-81.086875	0.306259	0.154934	0.000828	0.987924	-0.818488	-0.559893	0.128831	0.553238	-0.828565	-0.086069	0	0	0
57602	0	0	0	0	0	9.796180	1.213429	-0.689206	0.001206	0.000202	-0.004918	-0.717041	-0.580811	0.192627	0.356724	0.670986	-0.304655	0.574205	123.744603	-81.086039	0.305729	0.154949	0.000827	0.987922	-0.818503	-0.559867	0.128845	0.553212	-0.828582	-0.086074	0	0	0
57603	0	0	0	0	0	9.746120	1.189496	-0.711234	0.009849	0.001550	-0.002322	-0.720215	-0.580078	0.199951	0.356693	0.671003	-0.304635	0.574215	123.753901	-81.086024	0.301051	0.154949	0.000814	0.987922	-0.818459	-0.559935	0.128832	0.553277	-0.828536	-0.086095	0	0	0
57604	0	0	0	0	0	9.682993	1.177000	-0.661896	0.008909	0.005723	-0.004739	-0.727051	-0.571533	0.201416	0.356692	0.670997	-0.304614	0.574234	123.739283	-81.087024	0.317668	0.154932	0.000859	0.987925	-0.818440	-0.559961	0.128839	0.553310	-0.828519	-0.086053	0	0	0
57605	0	0	0	0	0	9.655389	1.222585	-0.648743	-0.000083	0.003988	-0.000844	-0.721680	-0.575439	0.195801	0.356694	0.670986	-0.304624	0.574239	123.738479	-81.088488	0.317456	0.154907	0.000858	0.987929	-0.818453	-0.559946	0.128819	0.553298	-0.828528	-0.086037	0	0	0
57606	0	0	0	0	0	9.685101	1.251260	-0.639448	0.011341	-0.001063	-0.000595	-0.723633	-0.579834	0.203369	0.356651	0.671002	-0.304612	0.574254	123.755576	-81.089533	0.305520	0.154889	0.000826	0.987932	-0.818407	-0.560023	0.128779	0.553371	-0.828477	-0.086065	0	0	0
57607	0	0	0	0	0	9.744589	1.284451	-0.675537	0.009663	0.008458	0.000369	-0.717041	-0.581543	0.203857	0.356624	0.670995	-0.304590	0.574291	123.749236	-81.092999	0.316563	0.154829	0.000855	0.987941	-0.818368	-0.560089	0.128739	0.553445	-0.828432	-0.086018	0	0	0
57608	0	0	0	0	0	9.735203	1.251328	-0.671857	-0.003064	-0.006060	0.001195	-0.722900	-0.584717	0.188965	0.356622	0.670996	-0.304638	0.574265	123.777121	-81.092942	0.284415	0.154830	0.000769	0.987941	-0.818413	-0.560033	0.128697	0.553379	-0.828470	-0.086081	0	0	0
57609	0	0	0	0	0	9.779434	1.222131	-0.659334	-0.006599	-0.002398	-0.001564	-0.722412	-0.579834	0.197510	0.356638	0.670994	-0.304676	0.574238	123.790528	-81.092029	0.266038	0.154846	0.000719	0.987938	-0.818461	-0.559965	0.128690	0.553303	-0.828516	-0.086120	0	0	0
57610	0	0	0	0	0	9.746052	1.214213	-0.655657	-0.014243	0.002298	-0.002011	-0.718994	-0.567383	0.196533	0.356709	0.670947	-0.304744	0.574212	123.777730	-81.093377	0.266050	0.154823	0.000719	0.987942	-0.818588	-0.559780	0.128690	0.553122	-0.828641	-0.086078	0	0	0
57611	0	0	0	0	0	9.706909	1.152927	-0.661044	-0.002574	0.000556	-0.004720	-0.723145	-0.587158	0.195068	0.356725	0.670948	-0.304754	0.574196	123.778054	-81.091903	0.263250	0.154848	0.000711	0.987938	-0.818608	-0.559744	0.128711	0.553084	-0.828665	-0.086093	0	0	0
57612	0	0	0	0	0	9.686515	1.181738	-0.618993	0.005211	0.002089	-0.003695	-0.723145	-0.576172	0.187012	0.356725	0.670945	-0.304750	0.574201	123.774719	-81.092379	0.266986	0.154840	0.000722	0.987939	-0.818605	-0.559749	0.128709	0.553091	-0.828662	-0.086081	0	0	0
57613	0	0	0	0	0	9.705354	1.224112	-0.680489	0.007089	0.009014	-0.004350	-0.721191	-0.581543	0.192139	0.356720	0.670939	-0.304719	0.574229	123.755623	-81.093775	0.289448	0.154816	0.000782	0.987943	-0.818573	-0.559794	0.128718	0.553145	-0.828631	-0.086025	0	0	0
57614	0	0	0	0	0	9.681421	1.249068	-0.679989	-0.000962	0.003107	0.001961	-0.727783	-0.583008	0.185791	0.356735	0.670907	-0.304759	0.574235	123.755671	-81.097411	0.284503	0.154753	0.000768	0.987953	-0.818629	-0.559724	0.128666	0.553080	-0.828679	-0.085990	0	0	0
57615	0	0	0	0	0	9.725733	1.195905	-0.721784	0.000656	-0.001360	-0.004226	-0.720703	-0.580566	0.201416	0.356736	0.670919	-0.304765	0.574217	123.764674	-81.095563	0.274791	0.154785	0.000742	0.987948	-0.818633	-0.559716	0.128679	0.553066	-0.828684	-0.086028	0	0	0
57616	0	0	0	0	0	9.742315	1.212430	-0.696409	0.005622	-0.002579	-0.004964	-0.717529	-0.577637	0.197754	0.356740	0.670927	-0.304774	0.574201	123.772333	-81.093985	0.265843	0.154812	0.000718	0.987944	-0.818643	-0.559699	0.128690	0.553043	-0.828696	-0.086060	0	0	0
57617	0	0	0	0	0	9.753175	1.175294	-0.680198	-0.001409	-0.001376	-0.000881	-0.721191	-0.575928	0.199707	0.356738	0.670930	-0.304797	0.574186	123.786992	-81.093725	0.249208	0.154817	0.000673	0.987943	-0.818663	-0.559673	0.128671	0.553012	-0.828713	-0.086096	0	0	0
57618	0	0	0	0	0	9.716154	1.187746	-0.663750	0.005435	0.004330	-0.002274	-0.714600	-0.583252	0.203369	0.356732	0.670922	-0.304789	0.574204	123.780582	-81.095484	0.257031	0.154787	0.000694	0.987948	-0.818653	-0.559692	0.128656	0.553036	-0.828700	-0.086064	0	0	0
57619	0	0	0	0	0	9.686389	1.183249	-0.618087	0.001186	-0.000865	-0.000540	-0.721680	-0.573242	0.202881	0.356721	0.670927	-0.304805	0.574196	123.795871	-81.095548	0.241264	0.154786	0.000652	0.987948	-0.818659	-0.559688	0.128632	0.553026	-0.828703	-0.086098	0	0	0
57620	0	0	0	0	0	9.712515	1.208190	-0.650792	0.003676	0.002568	0.003336	-0.718750	-0.579102	0.201904	0.356700	0.670915	-0.304822	0.574215	123.805965	-81.099258	0.231775	0.154722	0.000626	0.987958	-0.818663	-0.559698	0.128564	0.553039	-0.828696	-0.086085	0	0	0
57621	0	0	0	0	0	9.701635	1.245329	-0.667300	0.005273	-0.002965	0.001528	-0.720215	-0.580811	0.196289	0.356666	0.670930	-0.304836	0.574210	123.834195	-81.099636	0.205279	0.154716	0.000554	0.987959	-0.818650	-0.559728	0.128516	0.553060	-0.828676	-0.086145	0	0	0
57622	0	0	0	0	0	9.772004	1.241118	-0.687323	-0.006376	-0.000157	-0.000144	-0.717773	-0.585938	0.192383	0.356691	0.670908	-0.304882	0.574195	123.838683	-81.100917	0.194286	0.154694	0.000525	0.987962	-0.818717	-0.559636	0.128491	0.552967	-0.828738	-0.086143	0	0	0
57623	0	0	0	0	0	9.759015	1.204606	-0.725475	-0.010790	0.002623	-0.000098	-0.714844	-0.574463	0.199951	0.356725	0.670882	-0.304928	0.574181	123.837416	-81.102303	0.188331	0.154670	0.000508	0.987966	-0.818791	-0.559533	0.128473	0.552864	-0.828808	-0.086127	0	0	0
57624	0	0	0	0	0	9.725691	1.196483	-0.721400	-0.006235	0.006072	0.000434	-0.722656	-0.577637	0.201416	0.356761	0.670840	-0.304966	0.574187	123.823551	-81.105828	0.195519	0.154609	0.000528	0.987976	-0.818862	-0.559435	0.128443	0.552776	-0.828874	-0.086062	0	0	0
57625	0	0	0	0	0	9.682909	1.179455	-0.658752	-0.009136	0.007307	-0.002173	-0.720703	-0.579590	0.195557	0.356802	0.670806	-0.304992	0.574188	123.804754	-81.107721	0.208268	0.154576	0.000562	0.987981	-0.818923	-0.559345	0.128444	0.552694	-0.828935	-0.086001	0	0	0
57626	0	0	0	0	0	9.723533	1.170927	-0.632427	-0.002126	0.005038	-0.001877	-0.721924	-0.573242	0.193848	0.356824	0.670780	-0.305009	0.574195	123.792450	-81.109928	0.216971	0.154538	0.000585	0.987987	-0.818962	-0.559291	0.128431	0.552648	-0.828971	-0.085953	0	0	0
57627	0	0	0	0	0	9.699571	1.195999	-0.632093	0.006621	0.003465	-0.002812	-0.720947	-0.581055	0.191406	0.356808	0.670786	-0.304994	0.574206	123.793060	-81.110291	0.219213	0.154532	0.000591	0.987988	-0.818935	-0.559332	0.128425	0.552689	-0.828943	-0.085950	0	0	0
57628	0	0	0	0	0	9.721960	1.241862	-0.652451	0.010121	-0.009346	-0.004166	-0.716797	-0.580078	0.196533	0.356778	0.670823	-0.304998	0.574179	123.825823	-81.106977	0.188765	0.154589	0.000509	0.987979	-0.818909	-0.559371	0.128423	0.552712	-0.828917	-0.086056	0	0	0
57629	0	0	0	0	0	9.762575	1.209176	-0.682252	0.002678	-0.003476	0.001186	-0.727295	-0.580566	0.205078	0.356753	0.670836	-0.305020	0.574168	123.853440	-81.107028	0.161385	0.154589	0.000435	0.987979	-0.818910	-0.559379	0.128381	0.552711	-0.828912	-0.086117	0	0	0
57630	0	0	0	0	0	9.721949	1.218119	-0.707811	0.006866	0.006772	-0.005769	-0.722656	-0.577393	0.201416	0.356760	0.670827	-0.304996	0.574187	123.833391	-81.107861	0.183054	0.154574	0.000494	0.987981	-0.818893	-0.559399	0.128399	0.552739	-0.828898	-0.086064	0	0	0
57631	0	0	0	0	0	9.708882	1.206005	-0.690873	0.007723	0.006587	-0.004196	-0.725342	-0.575684	0.204834	0.356749	0.670828	-0.304968	0.574207	123.822315	-81.108562	0.197764	0.154562	0.000533	0.987983	-0.818858	-0.559449	0.128406	0.552795	-0.828865	-0.086033	0	0	0
57632	0	0	0	0	0	9.699413	1.197287	-0.632064	-0.005273	0.002965	-0.001528	-0.717529	-0.573486	0.198730	0.356771	0.670806	-0.304993	0.574207	123.816429	-81.110269	0.199474	0.154532	0.000538	0.987988	-0.818902	-0.559388	0.128390	0.552738	-0.828906	-0.086003	0	0	0
57633	0	0	0	0	0	9.768361	1.239714	-0.726235	-0.003312	0.005902	-0.001338	-0.721191	-0.582520	0.199219	0.356788	0.670785	-0.305007	0.574213	123.806933	-81.112112	0.206184	0.154501	0.000556	0.987993	-0.818932	-0.559347	0.128378	0.552702	-0.828934	-0.085964	0	0	0
57634	0	0	0	0	0	9.685041	1.207537	-0.743859	-0.001107	0.012146	-0.004104	-0.718506	-0.571777	0.197510	0.356822	0.670745	-0.304999	0.574242	123.769120	-81.115465	0.241617	0.154442	0.000651	0.988002	-0.818959	-0.559306	0.128387	0.552679	-0.828961	-0.085847	0	0	0
57635	0	0	0	0	0	9.740136	1.165220	-0.659277	-0.000223	-0.002241	-0.001421	-0.718506	-0.581543	0.202881	0.356817	0.670753	-0.305019	0.574226	123.786023	-81.114674	0.223400	0.154456	0.000602	0.987999	-0.818972	-0.559290	0.128373	0.552656	-0.828972	-0.085893	0	0	0
57636	0	0	0	0	0	9.760306	1.185255	-0.591681	0.006092	0.002969	-0.006497	-0.725830	-0.571289	0.196289	0.356817	0.670758	-0.304996	0.574233	123.775813	-81.113940	0.235715	0.154469	0.000635	0.987997	-0.818948	-0.559319	0.128398	0.552687	-0.828952	-0.085877	0	0	0
57637	0	0	0	0	0	9.712455	1.211161	-0.646148	0.002734	0.006740	0.000920	-0.723145	-0.573486	0.192139	0.356808	0.670742	-0.304998	0.574255	123.771817	-81.117124	0.240366	0.154414	0.000648	0.988006	-0.818949	-0.559327	0.128359	0.552702	-0.828947	-0.085837	0	0	0
57638	0	0	0	0	0	9.703072	1.178169	-0.642392	0.000963	-0.003106	-0.001961	-0.726563	-0.576172	0.195068	0.356804	0.670745	-0.305018	0.574244	123.785686	-81.116985	0.225154	0.154416	0.000607	0.988006	-0.818963	-0.559311	0.128340	0.552680	-0.828958	-0.085870	0	0	0
57639	0	0	0	0	0	9.732721	1.206957	-0.633533	0.003007	-0.004156	-0.000927	-0.713379	-0.572510	0.200928	0.356783	0.670764	-0.305033	0.574227	123.811278	-81.115818	0.200014	0.154437	0.000539	0.988003	-0.818959	-0.559321	0.128318	0.552680	-0.828951	-0.085938	0	0	0
57640	0	0	0	0	0	9.734828	1.257043	-0.666606	0.011036	0.000685	-0.002856	-0.726318	-0.576904	0.197510	0.356752	0.670778	-0.305011	0.574241	123.818050	-81.116220	0.198118	0.154430	0.000534	0.988004	-0.818913	-0.559392	0.128302	0.552750	-0.828903	-0.085950	0	0	0
57641	0	0	0	0	0	9.725405	1.224179	-0.663223	0.007339	-0.002949	-0.001815	-0.715088	-0.580322	0.194092	0.356721	0.670802	-0.305009	0.574234	123.840630	-81.115014	0.178540	0.154451	0.000481	0.988000	-0.818884	-0.559439	0.128286	0.552788	-0.828871	-0.086012	0	0	0
57642	0	0	0	0	0	9.742088	1.216432	-0.692599	0.008442	0.000173	-0.003198	-0.714600	-0.581543	0.200439	0.356708	0.670809	-0.305003	0.574237	123.845846	-81.115076	0.175043	0.154450	0.000472	0.988001	-0.818868	-0.559465	0.128277	0.552812	-0.828854	-0.086023	0	0	0
57643	0	0	0	0	0	9.728911	1.228271	-0.621332	0.001983	0.004002	-0.004188	-0.724365	-0.579346	0.193848	0.356712	0.670807	-0.304996	0.574240	123.839350	-81.114958	0.181788	0.154452	0.000490	0.988000	-0.818864	-0.559467	0.128289	0.552816	-0.828852	-0.086009	0	0	0
57644	0	0	0	0	0	9.705035	1.229246	-0.675761	-0.005602	0.003645	0.000583	-0.723145	-0.576416	0.197998	0.356742	0.670773	-0.305038	0.574239	123.833729	-81.117834	0.180901	0.154402	0.000487	0.988008	-0.818934	-0.559373	0.128256	0.552728	-0.828916	-0.085969	0	0	0
57645	0	0	0	0	0	9.723198	1.175181	-0.629679	-0.006988	0.003332	-0.004676	-0.722412	-0.576904	0.192383	0.356777	0.670758	-0.305057	0.574225	123.823132	-81.117270	0.186593	0.154412	0.000503	0.988006	-0.818979	-0.559301	0.128280	0.552658	-0.828964	-0.085951	0	0	0
57646	0	0	0	0	0	9.708679	1.209454	-0.687685	-0.001798	0.004355	-0.003990	-0.721924	-0.575439	0.192627	0.356805	0.670736	-0.305069	0.574227	123.808249	-81.118393	0.197874	0.154392	0.000533	0.988009	-0.819015	-0.559247	0.128286	0.552610	-0.829001	-0.085907	0	0	0
57647	0	0	0	0	0	9.732534	1.208973	-0.632552	-0.000306	0.001745	-0.002265	-0.726318	-0.574219	0.192139	0.356808	0.670734	-0.305078	0.574223	123.811234	-81.118471	0.193696	0.154391	0.000522	0.988010	-0.819027	-0.559231	0.128280	0.552592	-0.829012	-0.085913	0	0	0
57648	0	0	0	0	0	9.725296	1.225987	-0.661469	0.005106	0.005010	-0.000158	-0.721680	-0.580078	0.185791	0.356803	0.670715	-0.305083	0.574245	123.805779	-81.121756	0.199403	0.154334	0.000537	0.988019	-0.819031	-0.559233	0.128242	0.552602	-0.829010	-0.085869	0	0	0
57649	0	0	0	0	0	9.715916	1.193167	-0.657477	-0.011320	0.002124	-0.003788	-0.721924	-0.579590	0.201660	0.356848	0.670695	-0.305118	0.574222	123.798191	-81.121230	0.199538	0.154343	0.000538	0.988017	-0.819102	-0.559125	0.128260	0.552494	-0.829083	-0.085857	0	0	0
57650	0	0	0	0	0	9.719591	1.172986	-0.669726	0.003614	0.007620	-0.001884	-0.727051	-0.577148	0.200195	0.356862	0.670667	-0.305121	0.574244	123.780144	-81.124334	0.216082	0.154290	0.000582	0.988025	-0.819122	-0.559101	0.128243	0.552480	-0.829100	-0.085787	0	0	0
57651	0	0	0	0	0	9.705009	1.230973	-0.672986	0.011259	0.002927	-0.001432	-0.728271	-0.578125	0.200684	0.356826	0.670681	-0.305099	0.574262	123.787848	-81.125186	0.213834	0.154275	0.000576	0.988028	-0.819071	-0.559180	0.128219	0.552559	-0.829046	-0.085796	0	0	0
57652	0	0	0	0	0	9.738198	1.263579	-0.621847	0.002174	-0.002907	-0.006876	-0.716553	-0.581299	0.197021	0.356834	0.670693	-0.305100	0.574242	123.792617	-81.122593	0.208091	0.154320	0.000560	0.988021	-0.819075	-0.559167	0.128249	0.552540	-0.829055	-0.085831	0	0	0
57653	0	0	0	0	0	9.691836	1.219150	-0.656986	0.006153	-0.002083	-0.001274	-0.729736	-0.577881	0.193359	0.356807	0.670712	-0.305102	0.574236	123.812990	-81.121924	0.190059	0.154331	0.000512	0.988019	-0.819053	-0.559204	0.128228	0.552570	-0.829030	-0.085883	0	0	0
57654	0	0	0	0	0	9.728809	1.207232	-0.673492	0.005320	-0.000835	-0.007224	-0.731445	-0.578125	0.207520	0.356816	0.670721	-0.305096	0.574223	123.811136	-81.119794	0.191491	0.154368	0.000516	0.988013	-0.819052	-0.559198	0.128262	0.552561	-0.829034	-0.085900	0	0	0
57655	0	0	0	0	0	9.732402	1.187300	-0.686529	-0.001301	-0.004300	-0.004415	-0.723633	-0.582275	0.197266	0.356820	0.670737	-0.305112	0.574193	123.827570	-81.116922	0.173121	0.154418	0.000467	0.988006	-0.819067	-0.559173	0.128278	0.552526	-0.829051	-0.085964	0	0	0
57656	0	0	0	0	0	9.739584	1.170825	-0.657501	-0.006904	-0.000656	-0.003832	-0.724121	-0.577637	0.201416	0.356855	0.670722	-0.305148	0.574170	123.826577	-81.116403	0.167568	0.154427	0.000452	0.988004	-0.819129	-0.559079	0.128287	0.552430	-0.829114	-0.085967	0	0	0
57657	0	0	0	0	0	9.711910	1.216404	-0.644493	-0.011427	0.005045	-0.000255	-0.723877	-0.583008	0.204590	0.356894	0.670688	-0.305190	0.574163	123.817234	-81.118491	0.169417	0.154391	0.000457	0.988010	-0.819206	-0.558970	0.128271	0.552327	-0.829188	-0.085926	0	0	0
57658	0	0	0	0	0	9.708493	1.188936	-0.740535	-0.002763	0.007461	-0.002030	-0.724365	-0.570313	0.197510	0.356922	0.670655	-0.305204	0.574177	123.797621	-81.121313	0.185346	0.154342	0.000499	0.988017	-0.819246	-0.558914	0.128260	0.552281	-0.829225	-0.085855	0	0	0
