// General information: 
//  MT Manager version: 2022.2.0 
//  XDA version: 2022.2.0 build 7381 rev 124627 built on 2023-07-19
// Device information: 
//  DeviceId: 10B426EE
//  ProductCode: MTW2-3A7G6
//  Firmware Version: 4.14.0
//  Hardware Version: 3.0.0
// Device settings: 
//  Filter Profile: human(46.1)
//  Option Flags: Orientation Smoother Disabled, Position/Velocity Smoother Disabled, Continuous Zero Rotation Update Disabled, AHS Disabled, ICC Disabled
// Coordinate system: ENU
PacketCounter	SampleTimeFine	Year	Month	Day	Second	Acc_X	Acc_Y	Acc_Z	Gyr_X	Gyr_Y	Gyr_Z	Mag_X	Mag_Y	Mag_Z	Quat_q0	Quat_q1	Quat_q2	Quat_q3	Roll	Pitch	Yaw	Mat[1][1]	Mat[2][1]	Mat[3][1]	Mat[1][2]	Mat[2][2]	Mat[3][2]	Mat[1][3]	Mat[2][3]	Mat[3][3]	Vel_E	Vel_N	Vel_U
57202	0	0	0	0	0	4.457914	-2.740032	8.328334	-0.001969	-0.000605	0.005547	-0.594238	0.117432	-0.461426	0.070357	-0.244813	0.127996	-0.958506	-18.274303	-26.827077	-167.210484	-0.870233	-0.197545	0.451299	0.072204	-0.957334	-0.279818	0.487321	-0.210921	0.847367	0	0	0
57203	0	0	0	0	0	4.435473	-2.750271	8.328889	-0.001183	0.000727	0.003705	-0.598633	0.110596	-0.462402	0.070350	-0.244817	0.128004	-0.958504	-18.275188	-26.827473	-167.210943	-0.870231	-0.197537	0.451305	0.072187	-0.957332	-0.279830	0.487326	-0.210939	0.847360	0	0	0
57204	0	0	0	0	0	4.424050	-2.727001	8.306374	-0.001487	0.002683	0.009208	-0.608643	0.115234	-0.458496	0.070368	-0.244808	0.128021	-0.958503	-18.277715	-26.825952	-167.208400	-0.870234	-0.197578	0.451282	0.072215	-0.957318	-0.279872	0.487316	-0.210964	0.847359	0	0	0
57205	0	0	0	0	0	4.426213	-2.730151	8.355135	-0.000351	0.002008	0.003683	-0.587891	0.106689	-0.455078	0.070361	-0.244806	0.128026	-0.958503	-18.277983	-26.825751	-167.209242	-0.870239	-0.197566	0.451279	0.072200	-0.957317	-0.279876	0.487311	-0.210977	0.847359	0	0	0
57206	0	0	0	0	0	4.424659	-2.728993	8.330869	0.002394	0.000137	0.010827	-0.600098	0.110352	-0.458252	0.070394	-0.244808	0.128026	-0.958501	-18.278963	-26.825323	-167.205199	-0.870228	-0.197628	0.451272	0.072261	-0.957308	-0.279892	0.487321	-0.210960	0.847357	0	0	0
57207	0	0	0	0	0	4.425656	-2.730713	8.355247	-0.002461	0.001558	0.003772	-0.596191	0.109619	-0.461426	0.070384	-0.244807	0.128040	-0.958499	-18.280437	-26.825311	-167.205985	-0.870231	-0.197616	0.451272	0.072235	-0.957304	-0.279913	0.487320	-0.210991	0.847350	0	0	0
57208	0	0	0	0	0	4.447671	-2.721178	8.354693	-0.000256	0.001903	0.007322	-0.591553	0.107666	-0.458984	0.070395	-0.244804	0.128049	-0.958498	-18.281812	-26.824552	-167.204435	-0.870231	-0.197641	0.451260	0.072253	-0.957296	-0.279936	0.487316	-0.211004	0.847349	0	0	0
57209	0	0	0	0	0	4.422576	-2.728698	8.306602	-0.001922	-0.000657	0.007367	-0.597900	0.107666	-0.447510	0.070404	-0.244811	0.128064	-0.958494	-18.284152	-26.825047	-167.202628	-0.870221	-0.197667	0.451268	0.072261	-0.957286	-0.279969	0.487333	-0.211026	0.847334	0	0	0
57210	0	0	0	0	0	4.423700	-2.730451	8.330901	0.000142	-0.000156	0.005459	-0.596436	0.107666	-0.457764	0.070408	-0.244819	0.128068	-0.958491	-18.284972	-26.825743	-167.201799	-0.870213	-0.197679	0.451279	0.072265	-0.957282	-0.279979	0.487347	-0.211030	0.847325	0	0	0
57211	0	0	0	0	0	4.432043	-2.751694	8.304769	-0.001042	0.000571	0.009165	-0.592285	0.116211	-0.451660	0.070427	-0.244820	0.128082	-0.958487	-18.287216	-26.825403	-167.199087	-0.870206	-0.197721	0.451273	0.072293	-0.957270	-0.280013	0.487355	-0.211046	0.847316	0	0	0
57212	0	0	0	0	0	4.424518	-2.732585	8.355237	-0.001183	0.000727	0.003706	-0.597412	0.114746	-0.450439	0.070420	-0.244825	0.128090	-0.958486	-18.288233	-26.825934	-167.199504	-0.870204	-0.197713	0.451282	0.072274	-0.957268	-0.280027	0.487362	-0.211064	0.847307	0	0	0
57213	0	0	0	0	0	4.446684	-2.722944	8.354643	0.000142	-0.000156	0.005459	-0.594971	0.116211	-0.454834	0.070426	-0.244832	0.128094	-0.958483	-18.289003	-26.826612	-167.198504	-0.870195	-0.197727	0.451292	0.072281	-0.957264	-0.280037	0.487377	-0.211067	0.847299	0	0	0
57214	0	0	0	0	0	4.410292	-2.763997	8.329738	-0.002812	0.003566	0.007457	-0.596436	0.115479	-0.452637	0.070434	-0.244821	0.128116	-0.958482	-18.291727	-26.824924	-167.197207	-0.870204	-0.197750	0.451266	0.072288	-0.957251	-0.280081	0.487361	-0.211107	0.847298	0	0	0
57215	0	0	0	0	0	4.444806	-2.722307	8.330381	0.000094	-0.000104	0.003639	-0.593506	0.112793	-0.461670	0.070430	-0.244829	0.128118	-0.958480	-18.292009	-26.825869	-167.197365	-0.870197	-0.197746	0.451281	0.072278	-0.957251	-0.280083	0.487374	-0.211110	0.847289	0	0	0
57216	0	0	0	0	0	4.433371	-2.756079	8.353564	-0.000303	0.001955	0.005504	-0.593506	0.116211	-0.455322	0.070433	-0.244826	0.128125	-0.958480	-18.292905	-26.825409	-167.196934	-0.870199	-0.197753	0.451273	0.072280	-0.957247	-0.280097	0.487370	-0.211122	0.847288	0	0	0
57217	0	0	0	0	0	4.399782	-2.742477	8.331639	0.001419	-0.000988	0.005393	-0.596191	0.111328	-0.465820	0.070439	-0.244836	0.128122	-0.958477	-18.292937	-26.826432	-167.195973	-0.870188	-0.197766	0.451289	0.072291	-0.957246	-0.280095	0.487388	-0.211111	0.847281	0	0	0
57218	0	0	0	0	0	4.424396	-2.735531	8.379805	0.001855	0.002352	0.007235	-0.601074	0.112549	-0.459717	0.070452	-0.244829	0.128121	-0.958478	-18.293037	-26.825445	-167.194566	-0.870190	-0.197789	0.451274	0.072318	-0.957243	-0.280099	0.487379	-0.211104	0.847288	0	0	0
57219	0	0	0	0	0	4.443902	-2.722961	8.330649	-0.000445	0.002112	0.000045	-0.598633	0.111328	-0.458008	0.070427	-0.244828	0.128121	-0.958480	-18.292314	-26.825757	-167.197703	-0.870199	-0.197741	0.451279	0.072271	-0.957250	-0.280088	0.487371	-0.211118	0.847289	0	0	0
57220	0	0	0	0	0	4.431144	-2.755299	8.329531	0.001069	0.001019	0.009077	-0.595703	0.112793	-0.458008	0.070449	-0.244827	0.128126	-0.958478	-18.293492	-26.825163	-167.194905	-0.870194	-0.197785	0.451270	0.072310	-0.957242	-0.280107	0.487375	-0.211116	0.847287	0	0	0
57221	0	0	0	0	0	4.443207	-2.723142	8.330961	0.005537	0.005464	0.003463	-0.592529	0.125244	-0.448730	0.070446	-0.244806	0.128103	-0.958487	-18.290006	-26.823090	-167.196543	-0.870215	-0.197763	0.451237	0.072322	-0.957254	-0.280060	0.487334	-0.211078	0.847320	0	0	0
57222	0	0	0	0	0	4.431664	-2.756581	8.354304	0.000047	-0.000052	0.001820	-0.595947	0.118896	-0.456543	0.070432	-0.244815	0.128103	-0.958486	-18.289871	-26.824383	-167.197953	-0.870210	-0.197740	0.451257	0.072294	-0.957258	-0.280055	0.487348	-0.211084	0.847311	0	0	0
57223	0	0	0	0	0	4.421666	-2.734363	8.356165	0.003132	0.001520	0.007169	-0.600098	0.113037	-0.444092	0.070451	-0.244811	0.128095	-0.958486	-18.289355	-26.823786	-167.195984	-0.870208	-0.197771	0.451248	0.072334	-0.957257	-0.280049	0.487346	-0.211060	0.847318	0	0	0
57224	0	0	0	0	0	4.411626	-2.712221	8.358024	0.000141	-0.000156	0.005460	-0.603760	0.113037	-0.449219	0.070455	-0.244819	0.128099	-0.958483	-18.290176	-26.824482	-167.195155	-0.870200	-0.197782	0.451259	0.072338	-0.957253	-0.280059	0.487360	-0.211065	0.847309	0	0	0
57225	0	0	0	0	0	4.420000	-2.733290	8.331934	0.002299	0.000240	0.007191	-0.594238	0.114258	-0.458984	0.070470	-0.244823	0.128094	-0.958482	-18.290121	-26.824793	-167.193283	-0.870191	-0.197810	0.451264	0.072368	-0.957252	-0.280058	0.487371	-0.211047	0.847307	0	0	0
57226	0	0	0	0	0	4.419776	-2.733304	8.332048	0.003038	0.001624	0.003529	-0.597412	0.108887	-0.455078	0.070467	-0.244822	0.128083	-0.958484	-18.288590	-26.824868	-167.193989	-0.870193	-0.197799	0.451265	0.072369	-0.957258	-0.280035	0.487368	-0.211027	0.847314	0	0	0
57227	0	0	0	0	0	4.443080	-2.724806	8.355953	0.003132	0.001520	0.007170	-0.594727	0.109619	-0.454590	0.070482	-0.244818	0.128075	-0.958485	-18.287851	-26.824270	-167.192585	-0.870193	-0.197821	0.451256	0.072401	-0.957258	-0.280026	0.487363	-0.211005	0.847322	0	0	0
57228	0	0	0	0	0	4.428962	-2.755531	8.330615	0.002547	0.003788	0.001754	-0.593262	0.122314	-0.460693	0.070468	-0.244808	0.128064	-0.958490	-18.285915	-26.823487	-167.194809	-0.870206	-0.197789	0.451243	0.072384	-0.957268	-0.279999	0.487341	-0.210994	0.847337	0	0	0
57229	0	0	0	0	0	4.420164	-2.734683	8.356855	0.000141	-0.000156	0.005460	-0.605713	0.118896	-0.459717	0.070473	-0.244814	0.128068	-0.958487	-18.286651	-26.824060	-167.193913	-0.870199	-0.197802	0.451252	0.072390	-0.957264	-0.280008	0.487354	-0.210997	0.847329	0	0	0
57230	0	0	0	0	0	4.441169	-2.723416	8.331958	0.004760	-0.001320	0.003419	-0.607178	0.120361	-0.460205	0.070474	-0.244827	0.128047	-0.958487	-18.284370	-26.825757	-167.194093	-0.870186	-0.197796	0.451279	0.072399	-0.957275	-0.279970	0.487375	-0.210954	0.847328	0	0	0
57231	0	0	0	0	0	4.396260	-2.742980	8.333333	0.002103	0.005899	0.001799	-0.600342	0.120117	-0.457764	0.070460	-0.244807	0.128039	-0.958494	-18.282481	-26.823789	-167.196585	-0.870210	-0.197761	0.451248	0.072382	-0.957283	-0.279947	0.487335	-0.210951	0.847352	0	0	0
57232	0	0	0	0	0	4.432028	-2.702287	8.358471	0.002205	0.000344	0.003552	-0.602051	0.106201	-0.458984	0.070458	-0.244812	0.128031	-0.958494	-18.281549	-26.824556	-167.197019	-0.870206	-0.197753	0.451260	0.072379	-0.957288	-0.279932	0.487343	-0.210936	0.847350	0	0	0
57233	0	0	0	0	0	4.450269	-2.745538	8.330608	0.000094	-0.000104	0.003640	-0.592285	0.103271	-0.464600	0.070452	-0.244820	0.128032	-0.958492	-18.281750	-26.825515	-167.197417	-0.870200	-0.197746	0.451275	0.072366	-0.957288	-0.279932	0.487356	-0.210940	0.847342	0	0	0
57234	0	0	0	0	0	4.385872	-2.720808	8.335382	0.000927	0.001176	0.003618	-0.594971	0.108154	-0.454102	0.070448	-0.244821	0.128031	-0.958492	-18.281493	-26.825817	-167.197979	-0.870199	-0.197737	0.451280	0.072358	-0.957290	-0.279928	0.487358	-0.210939	0.847341	0	0	0
57235	0	0	0	0	0	4.441449	-2.724860	8.356803	0.001418	-0.000988	0.005394	-0.598389	0.108154	-0.454346	0.070451	-0.244831	0.128027	-0.958490	-18.281359	-26.826875	-167.197428	-0.870189	-0.197743	0.451296	0.072363	-0.957291	-0.279923	0.487375	-0.210929	0.847334	0	0	0
57236	0	0	0	0	0	4.440080	-2.723663	8.332458	-0.001184	0.000728	0.003707	-0.599365	0.119385	-0.453613	0.070445	-0.244835	0.128036	-0.958488	-18.282376	-26.827405	-167.197846	-0.870187	-0.197736	0.451304	0.072345	-0.957289	-0.279937	0.487382	-0.210948	0.847325	0	0	0
57237	0	0	0	0	0	4.439976	-2.723833	8.332458	0.000047	-0.000052	0.001820	-0.593262	0.115723	-0.458740	0.070431	-0.244844	0.128035	-0.958487	-18.282135	-26.828694	-167.199250	-0.870182	-0.197712	0.451324	0.072317	-0.957293	-0.279930	0.487395	-0.210951	0.847317	0	0	0
57238	0	0	0	0	0	4.428508	-2.757457	8.355689	0.001808	0.002404	0.005417	-0.594238	0.116211	-0.454346	0.070436	-0.244838	0.128033	-0.958489	-18.281757	-26.828005	-167.198963	-0.870186	-0.197718	0.451314	0.072329	-0.957293	-0.279926	0.487386	-0.210945	0.847324	0	0	0
57239	0	0	0	0	0	4.415965	-2.732525	8.308860	-0.001230	0.000780	0.001887	-0.597412	0.113281	-0.451904	0.070421	-0.244843	0.128039	-0.958488	-18.282214	-26.828727	-167.200417	-0.870185	-0.197695	0.451325	0.072297	-0.957294	-0.279931	0.487392	-0.210963	0.847316	0	0	0
57240	0	0	0	0	0	4.417153	-2.734029	8.333201	0.001371	-0.000936	0.003574	-0.599609	0.108398	-0.459473	0.070418	-0.244855	0.128034	-0.958486	-18.281882	-26.830186	-167.200580	-0.870175	-0.197690	0.451348	0.072290	-0.957297	-0.279923	0.487412	-0.210954	0.847307	0	0	0
57241	0	0	0	0	0	4.415771	-2.732614	8.308934	0.003038	0.001623	0.003530	-0.596924	0.113281	-0.454834	0.070415	-0.244853	0.128022	-0.958488	-18.280184	-26.830242	-167.201432	-0.870177	-0.197677	0.451349	0.072290	-0.957304	-0.279897	0.487407	-0.210932	0.847315	0	0	0
57242	0	0	0	0	0	4.440306	-2.725545	8.357187	0.000484	0.003288	0.003663	-0.599121	0.107178	-0.449463	0.070408	-0.244845	0.128023	-0.958490	-18.280001	-26.829387	-167.202391	-0.870187	-0.197663	0.451335	0.072280	-0.957305	-0.279897	0.487391	-0.210940	0.847322	0	0	0
57243	0	0	0	0	0	4.438766	-2.724259	8.332963	0.000927	0.001176	0.003619	-0.597656	0.104248	-0.455566	0.070403	-0.244847	0.128021	-0.958491	-18.279586	-26.829713	-167.203067	-0.870187	-0.197653	0.451340	0.072271	-0.957308	-0.279890	0.487393	-0.210938	0.847321	0	0	0
57244	0	0	0	0	0	4.438653	-2.724452	8.332960	-0.000693	-0.001435	0.005483	-0.596436	0.117676	-0.460693	0.070407	-0.244860	0.128029	-0.958486	-18.281008	-26.831100	-167.201965	-0.870172	-0.197667	0.451362	0.072270	-0.957303	-0.279907	0.487419	-0.210948	0.847304	0	0	0
57245	0	0	0	0	0	4.424720	-2.755331	8.307468	0.001714	0.002507	0.001777	-0.598145	0.111816	-0.453369	0.070393	-0.244856	0.128021	-0.958489	-18.279498	-26.830939	-167.204080	-0.870181	-0.197635	0.451359	0.072248	-0.957311	-0.279886	0.487407	-0.210941	0.847313	0	0	0
57246	0	0	0	0	0	4.439455	-2.726100	8.357458	-0.000256	0.001905	0.007326	-0.603760	0.104736	-0.453125	0.070404	-0.244852	0.128030	-0.958488	-18.280873	-26.830178	-167.202528	-0.870182	-0.197660	0.451348	0.072266	-0.957303	-0.279908	0.487403	-0.210953	0.847312	0	0	0
57247	0	0	0	0	0	4.437995	-2.724817	8.333191	0.003482	-0.000489	0.003487	-0.593262	0.108887	-0.455078	0.070402	-0.244861	0.128015	-0.958488	-18.279074	-26.831457	-167.203052	-0.870173	-0.197650	0.451368	0.072267	-0.957312	-0.279878	0.487417	-0.210924	0.847311	0	0	0
57248	0	0	0	0	0	4.425353	-2.756900	8.332080	0.000881	0.001228	0.001799	-0.596191	0.114502	-0.459473	0.070388	-0.244864	0.128011	-0.958489	-18.278338	-26.832058	-167.204734	-0.870175	-0.197623	0.451377	0.072242	-0.957317	-0.279866	0.487419	-0.210924	0.847310	0	0	0
57249	0	0	0	0	0	4.437696	-2.724836	8.333344	0.000974	0.001124	0.005440	-0.595215	0.112061	-0.462891	0.070392	-0.244863	0.128011	-0.958488	-18.278406	-26.831972	-167.204273	-0.870174	-0.197630	0.451376	0.072250	-0.957316	-0.279867	0.487419	-0.210921	0.847310	0	0	0
57250	0	0	0	0	0	4.437477	-2.724958	8.333421	0.000927	0.001176	0.003619	-0.599365	0.114014	-0.464844	0.070387	-0.244865	0.128010	-0.958489	-18.278149	-26.832274	-167.204834	-0.870173	-0.197621	0.451380	0.072241	-0.957318	-0.279862	0.487421	-0.210921	0.847309	0	0	0
57251	0	0	0	0	0	4.428727	-2.704042	8.359653	0.003038	0.001623	0.003531	-0.594238	0.112793	-0.458496	0.070384	-0.244862	0.127997	-0.958491	-18.276457	-26.832199	-167.205685	-0.870177	-0.197609	0.451379	0.072242	-0.957326	-0.279837	0.487415	-0.210900	0.847318	0	0	0
57252	0	0	0	0	0	4.437132	-2.725053	8.333574	-0.000694	-0.001435	0.005484	-0.596680	0.104004	-0.452393	0.070388	-0.244876	0.128005	-0.958486	-18.277879	-26.833586	-167.204583	-0.870162	-0.197623	0.451401	0.072241	-0.957320	-0.279855	0.487441	-0.210910	0.847301	0	0	0
57253	0	0	0	0	0	4.436872	-2.725358	8.333612	-0.000746	0.004069	0.005551	-0.592285	0.108887	-0.458496	0.070388	-0.244863	0.128014	-0.958489	-18.278651	-26.831928	-167.204755	-0.870176	-0.197623	0.451375	0.072240	-0.957316	-0.279871	0.487417	-0.210929	0.847309	0	0	0
57254	0	0	0	0	0	4.435308	-2.724241	8.309348	0.000140	-0.000155	0.005462	-0.599854	0.120850	-0.465576	0.070392	-0.244870	0.128018	-0.958486	-18.279473	-26.832623	-167.203925	-0.870168	-0.197635	0.451386	0.072243	-0.957313	-0.279881	0.487431	-0.210934	0.847300	0	0	0
57255	0	0	0	0	0	4.427811	-2.704945	8.359846	-0.001673	0.002893	0.001931	-0.595459	0.111084	-0.463135	0.070375	-0.244864	0.128027	-0.958487	-18.279965	-26.832151	-167.205895	-0.870178	-0.197605	0.451378	0.072208	-0.957313	-0.279889	0.487418	-0.210960	0.847301	0	0	0
57256	0	0	0	0	0	4.422257	-2.756948	8.308243	-0.002414	0.001510	0.005595	-0.597656	0.118652	-0.453857	0.070375	-0.244864	0.128044	-0.958485	-18.282136	-26.831916	-167.205319	-0.870178	-0.197615	0.451375	0.072201	-0.957304	-0.279922	0.487419	-0.210992	0.847292	0	0	0
57257	0	0	0	0	0	4.427296	-2.705896	8.359811	-0.005313	-0.000268	0.007526	-0.604492	0.116943	-0.465332	0.070383	-0.244872	0.128076	-0.958478	-18.286556	-26.832211	-167.203197	-0.870168	-0.197646	0.451379	0.072197	-0.957285	-0.279987	0.487437	-0.211047	0.847269	0	0	0
57258	0	0	0	0	0	4.421857	-2.758189	8.308043	-0.001924	-0.000654	0.007372	-0.602051	0.112061	-0.449219	0.070394	-0.244881	0.128093	-0.958473	-18.289132	-26.832834	-167.201102	-0.870156	-0.197677	0.451389	0.072207	-0.957274	-0.280023	0.487457	-0.211070	0.847251	0	0	0
57259	0	0	0	0	0	4.436748	-2.729460	8.357799	-0.005313	-0.000268	0.007526	-0.601318	0.112793	-0.460205	0.070402	-0.244889	0.128125	-0.958466	-18.293552	-26.833217	-167.199016	-0.870146	-0.197708	0.451395	0.072203	-0.957255	-0.280088	0.487476	-0.211125	0.847227	0	0	0
57260	0	0	0	0	0	4.422766	-2.760729	8.332186	-0.001184	0.000729	0.003708	-0.598145	0.107178	-0.462891	0.070395	-0.244893	0.128134	-0.958464	-18.294570	-26.833746	-167.199433	-0.870143	-0.197701	0.451403	0.072185	-0.957253	-0.280101	0.487483	-0.211144	0.847218	0	0	0
57261	0	0	0	0	0	4.436506	-2.730331	8.357643	-0.004176	-0.000945	0.001997	-0.597412	0.116943	-0.458252	0.070376	-0.244907	0.128153	-0.958459	-18.296782	-26.835418	-167.200804	-0.870135	-0.197677	0.451429	0.072135	-0.957248	-0.280130	0.487505	-0.211187	0.847195	0	0	0
57262	0	0	0	0	0	4.413941	-2.740413	8.358267	0.001319	0.004567	0.003643	-0.599121	0.106201	-0.459961	0.070370	-0.244892	0.128151	-0.958464	-18.295998	-26.833871	-167.202034	-0.870151	-0.197661	0.451405	0.072128	-0.957251	-0.280122	0.487477	-0.211190	0.847210	0	0	0
57263	0	0	0	0	0	4.458284	-2.720919	8.357218	0.000187	-0.000208	0.007284	-0.603027	0.113037	-0.458984	0.070382	-0.244898	0.128156	-0.958461	-18.297138	-26.834201	-167.200223	-0.870143	-0.197688	0.451410	0.072147	-0.957245	-0.280138	0.487490	-0.211192	0.847202	0	0	0
57264	0	0	0	0	0	4.402345	-2.717056	8.335895	0.001762	0.002454	0.003599	-0.597412	0.112061	-0.456787	0.070378	-0.244893	0.128151	-0.958463	-18.296281	-26.833811	-167.201054	-0.870149	-0.197676	0.451404	0.072143	-0.957248	-0.280127	0.487480	-0.211186	0.847209	0	0	0
57265	0	0	0	0	0	4.435489	-2.730908	8.357994	0.002204	0.000342	0.003554	-0.597656	0.109375	-0.463867	0.070375	-0.244898	0.128142	-0.958463	-18.295210	-26.834544	-167.201581	-0.870145	-0.197667	0.451416	0.072139	-0.957254	-0.280109	0.487488	-0.211170	0.847209	0	0	0
57266	0	0	0	0	0	4.425587	-2.708707	8.359806	0.000140	-0.000156	0.005463	-0.604980	0.113770	-0.459717	0.070379	-0.244905	0.128147	-0.958461	-18.296032	-26.835239	-167.200750	-0.870136	-0.197678	0.451426	0.072143	-0.957250	-0.280119	0.487502	-0.211175	0.847200	0	0	0
57267	0	0	0	0	0	4.432720	-2.728346	8.309383	0.000881	0.001227	0.001799	-0.598389	0.114502	-0.460693	0.070364	-0.244907	0.128142	-0.958462	-18.295124	-26.835773	-167.202618	-0.870139	-0.197649	0.451435	0.072117	-0.957257	-0.280105	0.487501	-0.211174	0.847200	0	0	0
57268	0	0	0	0	0	4.421231	-2.761795	8.332647	0.005686	-0.000149	0.007042	-0.594238	0.105469	-0.460205	0.070383	-0.244911	0.128122	-0.958462	-18.293202	-26.836180	-167.200825	-0.870130	-0.197675	0.451441	0.072161	-0.957262	-0.280075	0.487511	-0.211125	0.847206	0	0	0
57269	0	0	0	0	0	4.434784	-2.731013	8.358334	0.001809	0.002402	0.005420	-0.599854	0.116211	-0.450928	0.070386	-0.244904	0.128118	-0.958464	-18.292632	-26.835395	-167.200738	-0.870135	-0.197678	0.451429	0.072171	-0.957263	-0.280069	0.487500	-0.211117	0.847215	0	0	0
57270	0	0	0	0	0	4.433478	-2.729617	8.334025	0.003089	-0.003882	0.003465	-0.595215	0.115723	-0.451904	0.070386	-0.244930	0.128104	-0.958459	-18.291554	-26.838477	-167.200374	-0.870110	-0.197678	0.451477	0.072172	-0.957270	-0.280045	0.487544	-0.211086	0.847197	0	0	0
57271	0	0	0	0	0	4.433352	-2.729590	8.334100	0.001320	0.004567	0.003643	-0.597412	0.116211	-0.457275	0.070382	-0.244915	0.128102	-0.958464	-18.290717	-26.836935	-167.201457	-0.870126	-0.197664	0.451453	0.072168	-0.957273	-0.280037	0.487517	-0.211087	0.847213	0	0	0
57272	0	0	0	0	0	4.413196	-2.742336	8.383487	0.000140	-0.000156	0.005464	-0.593994	0.112061	-0.460938	0.070386	-0.244922	0.128106	-0.958461	-18.291540	-26.837630	-167.200625	-0.870118	-0.197676	0.451464	0.072172	-0.957269	-0.280047	0.487531	-0.211091	0.847204	0	0	0
57273	0	0	0	0	0	4.432860	-2.729798	8.334294	0.003039	0.001621	0.003533	-0.596436	0.116699	-0.463867	0.070383	-0.244920	0.128094	-0.958463	-18.289889	-26.837603	-167.201350	-0.870120	-0.197665	0.451463	0.072174	-0.957276	-0.280023	0.487526	-0.211070	0.847212	0	0	0
57274	0	0	0	0	0	4.432699	-2.729827	8.334370	0.000093	-0.000104	0.003643	-0.599854	0.107666	-0.461182	0.070378	-0.244929	0.128096	-0.958461	-18.290232	-26.838597	-167.201639	-0.870114	-0.197659	0.451479	0.072161	-0.957277	-0.280025	0.487540	-0.211075	0.847203	0	0	0
57275	0	0	0	0	0	4.423940	-2.709068	8.360561	0.001855	0.002351	0.007242	-0.601807	0.105225	-0.452148	0.070391	-0.244921	0.128094	-0.958463	-18.290167	-26.837499	-167.200382	-0.870118	-0.197680	0.451462	0.072188	-0.957274	-0.280027	0.487528	-0.211066	0.847211	0	0	0
57276	0	0	0	0	0	4.409902	-2.740043	8.335066	-0.000695	-0.001434	0.005486	-0.598877	0.118652	-0.460205	0.070395	-0.244934	0.128102	-0.958458	-18.291591	-26.838885	-167.199279	-0.870103	-0.197694	0.451483	0.072188	-0.957269	-0.280045	0.487554	-0.211076	0.847194	0	0	0
57277	0	0	0	0	0	4.432056	-2.730416	8.334519	0.001809	0.002402	0.005421	-0.593018	0.112549	-0.457031	0.070399	-0.244929	0.128098	-0.958460	-18.291072	-26.838188	-167.199079	-0.870108	-0.197698	0.451472	0.072199	-0.957270	-0.280039	0.487544	-0.211068	0.847202	0	0	0
57278	0	0	0	0	0	4.431737	-2.730814	8.334559	-0.004479	0.001014	0.007506	-0.596680	0.106445	-0.458984	0.070406	-0.244930	0.128127	-0.958455	-18.294997	-26.837880	-167.197238	-0.870104	-0.197727	0.451468	0.072198	-0.957253	-0.280098	0.487551	-0.211119	0.847185	0	0	0
57279	0	0	0	0	0	4.431595	-2.731173	8.334516	0.002693	-0.001822	0.005332	-0.596680	0.117432	-0.455078	0.070413	-0.244944	0.128117	-0.958452	-18.294283	-26.839428	-167.196333	-0.870089	-0.197738	0.451492	0.072212	-0.957256	-0.280083	0.487576	-0.211094	0.847177	0	0	0
57280	0	0	0	0	0	4.434025	-2.733941	8.383236	0.002204	0.000342	0.003555	-0.592773	0.107178	-0.456299	0.070410	-0.244949	0.128110	-0.958452	-18.293352	-26.840195	-167.196765	-0.870085	-0.197730	0.451504	0.072209	-0.957261	-0.280068	0.487584	-0.211080	0.847176	0	0	0
57281	0	0	0	0	0	4.409046	-2.741101	8.335171	-0.001184	0.000730	0.003709	-0.603760	0.110352	-0.453857	0.070404	-0.244953	0.128117	-0.958450	-18.294236	-26.840663	-167.197221	-0.870083	-0.197722	0.451511	0.072191	-0.957259	-0.280079	0.487591	-0.211097	0.847168	0	0	0
57282	0	0	0	0	0	4.432457	-2.732845	8.358970	0.000928	0.001175	0.003621	-0.600586	0.114990	-0.460449	0.070399	-0.244955	0.128116	-0.958451	-18.293979	-26.840966	-167.197781	-0.870082	-0.197713	0.451516	0.072183	-0.957261	-0.280075	0.487593	-0.211097	0.847167	0	0	0
57283	0	0	0	0	0	4.421323	-2.709376	8.336394	-0.000649	-0.001486	0.007308	-0.599121	0.114502	-0.461426	0.070411	-0.244967	0.128125	-0.958445	-18.295751	-26.842047	-167.195638	-0.870067	-0.197744	0.451532	0.072198	-0.957252	-0.280098	0.487618	-0.211104	0.847150	0	0	0
57284	0	0	0	0	0	4.453310	-2.722066	8.334039	0.000881	0.001227	0.001800	-0.588135	0.116455	-0.454590	0.070398	-0.244970	0.128122	-0.958446	-18.295014	-26.842649	-167.197319	-0.870068	-0.197717	0.451542	0.072174	-0.957258	-0.280086	0.487620	-0.211104	0.847149	0	0	0
57285	0	0	0	0	0	4.441808	-2.755826	8.357192	-0.001925	-0.000653	0.007374	-0.596436	0.112061	-0.453369	0.070410	-0.244978	0.128137	-0.958441	-18.297498	-26.843156	-167.195164	-0.870056	-0.197749	0.451550	0.072186	-0.957247	-0.280122	0.487638	-0.211126	0.847133	0	0	0
57286	0	0	0	0	0	4.431835	-2.733770	8.358997	0.004455	0.000631	0.008933	-0.594971	0.114746	-0.457275	0.070436	-0.244978	0.128125	-0.958441	-18.296731	-26.842799	-167.192376	-0.870050	-0.197792	0.451544	0.072241	-0.957246	-0.280111	0.487642	-0.211091	0.847140	0	0	0
57287	0	0	0	0	0	4.453919	-2.724159	8.358490	-0.002460	0.001564	0.003776	-0.605469	0.114502	-0.457275	0.070428	-0.244978	0.128140	-0.958439	-18.298306	-26.842812	-167.192922	-0.870051	-0.197784	0.451544	0.072218	-0.957240	-0.280134	0.487643	-0.211121	0.847132	0	0	0
57288	0	0	0	0	0	4.420270	-2.710642	8.336541	-0.001578	0.002791	0.005576	-0.597168	0.117188	-0.454346	0.070428	-0.244972	0.128153	-0.958439	-18.299876	-26.841883	-167.192616	-0.870057	-0.197790	0.451530	0.072214	-0.957233	-0.280160	0.487632	-0.211148	0.847131	0	0	0
57289	0	0	0	0	0	4.440709	-2.757018	8.357383	-0.001137	0.000678	0.005531	-0.606934	0.104736	-0.452637	0.070431	-0.244975	0.128163	-0.958437	-18.301295	-26.842103	-167.191853	-0.870053	-0.197801	0.451533	0.072214	-0.957227	-0.280180	0.487640	-0.211165	0.847123	0	0	0
57290	0	0	0	0	0	4.428284	-2.732250	8.310465	0.000186	-0.000208	0.007287	-0.602295	0.119629	-0.451172	0.070444	-0.244982	0.128169	-0.958433	-18.302598	-26.842498	-167.189899	-0.870043	-0.197830	0.451539	0.072234	-0.957220	-0.280199	0.487655	-0.211168	0.847113	0	0	0
57291	0	0	0	0	0	4.415374	-2.764623	8.309353	0.000533	0.003235	0.005488	-0.597900	0.110840	-0.455566	0.070446	-0.244973	0.128172	-0.958435	-18.302774	-26.841430	-167.189787	-0.870051	-0.197834	0.451523	0.072239	-0.957219	-0.280204	0.487640	-0.211174	0.847120	0	0	0
57292	0	0	0	0	0	4.420500	-2.713214	8.361036	-0.000696	-0.001434	0.005487	-0.602051	0.106201	-0.460938	0.070450	-0.244987	0.128180	-0.958430	-18.304199	-26.842816	-167.188683	-0.870037	-0.197848	0.451544	0.072239	-0.957213	-0.280221	0.487666	-0.211184	0.847103	0	0	0
57293	0	0	0	0	0	4.451314	-2.724528	8.334300	0.000046	-0.000052	0.001822	-0.597900	0.111816	-0.446045	0.070435	-0.244995	0.128179	-0.958429	-18.303853	-26.844082	-167.190349	-0.870033	-0.197821	0.451564	0.072208	-0.957218	-0.280213	0.487677	-0.211188	0.847095	0	0	0
57294	0	0	0	0	0	4.429930	-2.736041	8.359264	-0.002808	0.003573	0.007465	-0.587158	0.110596	-0.453125	0.070443	-0.244984	0.128201	-0.958428	-18.306576	-26.842388	-167.189050	-0.870041	-0.197843	0.451538	0.072215	-0.957205	-0.280258	0.487661	-0.211228	0.847095	0	0	0
57295	0	0	0	0	0	4.428435	-2.735068	8.334919	0.000626	-0.002320	0.007243	-0.600342	0.115967	-0.454346	0.070458	-0.245000	0.128203	-0.958423	-18.307679	-26.843933	-167.186697	-0.870021	-0.197876	0.451562	0.072237	-0.957199	-0.280270	0.487693	-0.211221	0.847078	0	0	0
57296	0	0	0	0	0	4.428329	-2.735372	8.334876	-0.001137	0.000678	0.005532	-0.597168	0.111816	-0.462402	0.070460	-0.245004	0.128214	-0.958420	-18.309176	-26.844161	-167.185992	-0.870017	-0.197887	0.451565	0.072235	-0.957193	-0.280292	0.487701	-0.211240	0.847069	0	0	0
57297	0	0	0	0	0	4.429344	-2.737012	8.359256	0.000975	0.001123	0.005444	-0.600342	0.103516	-0.458252	0.070464	-0.245004	0.128214	-0.958420	-18.309276	-26.844100	-167.185474	-0.870016	-0.197895	0.451564	0.072243	-0.957192	-0.280293	0.487702	-0.211237	0.847069	0	0	0
57298	0	0	0	0	0	4.427878	-2.735871	8.334951	-0.001137	0.000678	0.005532	-0.602051	0.116211	-0.454834	0.070467	-0.245008	0.128224	-0.958418	-18.310773	-26.844328	-167.184768	-0.870011	-0.197905	0.451568	0.072241	-0.957186	-0.280315	0.487710	-0.211255	0.847060	0	0	0
57299	0	0	0	0	0	4.459683	-2.748740	8.332639	-0.000255	0.001905	0.007333	-0.598633	0.109131	-0.459229	0.070477	-0.245003	0.128232	-0.958417	-18.311969	-26.843565	-167.183401	-0.870013	-0.197927	0.451556	0.072257	-0.957179	-0.280334	0.487706	-0.211266	0.847059	0	0	0
57300	0	0	0	0	0	4.418802	-2.715537	8.361179	0.000974	0.001123	0.005445	-0.593750	0.115479	-0.460693	0.070481	-0.245004	0.128233	-0.958416	-18.312192	-26.843568	-167.182839	-0.870011	-0.197936	0.451556	0.072265	-0.957177	-0.280338	0.487708	-0.211265	0.847058	0	0	0
57301	0	0	0	0	0	4.426953	-2.736669	8.335181	0.001903	0.002297	0.009068	-0.605469	0.111816	-0.460938	0.070503	-0.244996	0.128233	-0.958417	-18.312616	-26.842175	-167.180418	-0.870013	-0.197975	0.451534	0.072308	-0.957171	-0.280347	0.487698	-0.211256	0.847067	0	0	0
57302	0	0	0	0	0	4.415672	-2.713225	8.312686	-0.002506	0.001617	0.001955	-0.598389	0.110107	-0.457031	0.070485	-0.244998	0.128246	-0.958416	-18.313827	-26.842537	-167.182083	-0.870016	-0.197949	0.451540	0.072269	-0.957169	-0.280364	0.487698	-0.211289	0.847058	0	0	0
57303	0	0	0	0	0	4.426502	-2.737168	8.335256	0.002783	-0.001928	0.008979	-0.589355	0.106201	-0.454834	0.070510	-0.245010	0.128241	-0.958412	-18.314092	-26.843536	-167.178930	-0.869997	-0.197995	0.451556	0.072314	-0.957165	-0.280366	0.487724	-0.211264	0.847049	0	0	0
57304	0	0	0	0	0	4.438989	-2.705310	8.336442	-0.001137	0.000678	0.005533	-0.595215	0.119873	-0.453369	0.070512	-0.245013	0.128251	-0.958409	-18.315589	-26.843764	-167.178224	-0.869993	-0.198005	0.451559	0.072312	-0.957159	-0.280387	0.487732	-0.211282	0.847040	0	0	0
57305	0	0	0	0	0	4.448454	-2.727939	8.334711	-0.000301	0.001957	0.005512	-0.599854	0.115723	-0.470215	0.070515	-0.245010	0.128258	-0.958409	-18.316365	-26.843227	-167.177777	-0.869996	-0.198013	0.451551	0.072316	-0.957155	-0.280400	0.487727	-0.211293	0.847040	0	0	0
57306	0	0	0	0	0	4.446903	-2.726819	8.310447	-0.000301	0.001957	0.005512	-0.596680	0.117188	-0.451416	0.070517	-0.245007	0.128265	-0.958409	-18.317261	-26.842764	-167.177342	-0.869998	-0.198020	0.451544	0.072317	-0.957151	-0.280415	0.487723	-0.211306	0.847040	0	0	0
57307	0	0	0	0	0	4.426810	-2.739725	8.359710	-0.001973	-0.000600	0.005555	-0.604492	0.108643	-0.453125	0.070520	-0.245016	0.128278	-0.958404	-18.319266	-26.843575	-167.176339	-0.869988	-0.198034	0.451556	0.072313	-0.957143	-0.280442	0.487741	-0.211328	0.847024	0	0	0
57308	0	0	0	0	0	4.425395	-2.738747	8.335326	-0.001091	0.000626	0.007356	-0.599365	0.109863	-0.458496	0.070531	-0.245019	0.128291	-0.958401	-18.321244	-26.843503	-167.174511	-0.869982	-0.198062	0.451555	0.072327	-0.957133	-0.280472	0.487749	-0.211346	0.847015	0	0	0
57309	0	0	0	0	0	4.425245	-2.738994	8.335324	0.000046	-0.000052	0.001822	-0.593750	0.117676	-0.462891	0.070517	-0.245028	0.128290	-0.958400	-18.320920	-26.844818	-167.176129	-0.869978	-0.198035	0.451576	0.072297	-0.957138	-0.280464	0.487762	-0.211350	0.847006	0	0	0
57310	0	0	0	0	0	4.425002	-2.739154	8.335400	0.001903	0.002296	0.009069	-0.594482	0.107666	-0.455078	0.070538	-0.245020	0.128291	-0.958400	-18.321502	-26.843529	-167.173594	-0.869979	-0.198076	0.451556	0.072340	-0.957131	-0.280475	0.487753	-0.211342	0.847013	0	0	0
57311	0	0	0	0	0	4.424501	-2.739483	8.335558	-0.002017	0.004904	0.005623	-0.597900	0.114258	-0.454102	0.070537	-0.245003	0.128307	-0.958403	-18.322994	-26.841330	-167.173764	-0.869996	-0.198077	0.451521	0.072335	-0.957124	-0.280503	0.487723	-0.211376	0.847022	0	0	0
57312	0	0	0	0	0	4.424045	-2.739736	8.335717	0.001810	0.002400	0.005425	-0.597900	0.104980	-0.460693	0.070542	-0.244997	0.128304	-0.958404	-18.322616	-26.840641	-167.173471	-0.870001	-0.198083	0.451511	0.072347	-0.957124	-0.280499	0.487714	-0.211369	0.847029	0	0	0
57313	0	0	0	0	0	4.444791	-2.728713	8.310955	0.000535	0.003235	0.005491	-0.590820	0.112305	-0.462158	0.070543	-0.244987	0.128306	-0.958406	-18.322722	-26.839446	-167.173501	-0.870010	-0.198085	0.451492	0.072351	-0.957122	-0.280504	0.487696	-0.211375	0.847038	0	0	0
57314	0	0	0	0	0	4.424532	-2.741376	8.360374	0.001764	0.002452	0.003602	-0.596924	0.111816	-0.458252	0.070539	-0.244982	0.128302	-0.958408	-18.321863	-26.839057	-167.174330	-0.870016	-0.198073	0.451486	0.072346	-0.957126	-0.280492	0.487687	-0.211369	0.847045	0	0	0
57315	0	0	0	0	0	4.445308	-2.730188	8.335653	0.002600	0.003730	0.003581	-0.603516	0.114502	-0.457275	0.070534	-0.244970	0.128292	-0.958413	-18.320242	-26.837852	-167.175542	-0.870029	-0.198056	0.451467	0.072346	-0.957132	-0.280471	0.487663	-0.211356	0.847062	0	0	0
57316	0	0	0	0	0	4.421445	-2.738770	8.311960	-0.000606	-0.001538	0.009135	-0.604980	0.114502	-0.462891	0.070555	-0.244982	0.128304	-0.958407	-18.322628	-26.838637	-167.172193	-0.870012	-0.198106	0.451479	0.072378	-0.957120	-0.280504	0.487689	-0.211365	0.847044	0	0	0
57317	0	0	0	0	0	4.421256	-2.738965	8.311996	0.001718	0.002504	0.001780	-0.604492	0.108154	-0.454590	0.070542	-0.244978	0.128296	-0.958410	-18.321171	-26.838522	-167.174209	-0.870020	-0.198075	0.451478	0.072357	-0.957128	-0.280483	0.487679	-0.211358	0.847052	0	0	0
57318	0	0	0	0	0	4.422210	-2.740335	8.336494	0.004454	0.000626	0.008939	-0.596436	0.105957	-0.460693	0.070567	-0.244977	0.128284	-0.958410	-18.320407	-26.838165	-167.171416	-0.870013	-0.198119	0.451472	0.072412	-0.957127	-0.280473	0.487683	-0.211323	0.847059	0	0	0
57319	0	0	0	0	0	4.443063	-2.729285	8.311691	-0.000347	0.002009	0.003690	-0.593750	0.108887	-0.457520	0.070559	-0.244975	0.128288	-0.958411	-18.320596	-26.837996	-167.172405	-0.870017	-0.198104	0.451469	0.072394	-0.957127	-0.280476	0.487677	-0.211335	0.847059	0	0	0
57320	0	0	0	0	0	4.400499	-2.751831	8.361604	-0.000301	0.001957	0.005513	-0.592773	0.110352	-0.452148	0.070561	-0.244972	0.128295	-0.958410	-18.321491	-26.837532	-167.171969	-0.870019	-0.198111	0.451462	0.072396	-0.957123	-0.280490	0.487673	-0.211348	0.847058	0	0	0
57321	0	0	0	0	0	4.444992	-2.732456	8.360534	0.002250	0.000287	0.005381	-0.591553	0.108398	-0.460205	0.070567	-0.244976	0.128288	-0.958410	-18.320868	-26.837946	-167.171402	-0.870014	-0.198119	0.451469	0.072409	-0.957125	-0.280480	0.487680	-0.211331	0.847058	0	0	0
57322	0	0	0	0	0	4.422363	-2.742292	8.361222	0.001811	0.002400	0.005426	-0.598389	0.114014	-0.455078	0.070571	-0.244970	0.128285	-0.958411	-18.320489	-26.837257	-167.171109	-0.870019	-0.198125	0.451458	0.072420	-0.957125	-0.280476	0.487671	-0.211325	0.847065	0	0	0
57323	0	0	0	0	0	4.420843	-2.740899	8.337034	0.003040	0.001617	0.003537	-0.598145	0.113525	-0.459961	0.070568	-0.244968	0.128273	-0.958414	-18.318798	-26.837256	-167.171916	-0.870021	-0.198113	0.451458	0.072421	-0.957132	-0.280451	0.487666	-0.211303	0.847073	0	0	0
57324	0	0	0	0	0	4.419377	-2.739542	8.312805	0.000974	0.001122	0.005447	-0.597168	0.108887	-0.465576	0.070572	-0.244969	0.128274	-0.958413	-18.319021	-26.837258	-167.171352	-0.870019	-0.198121	0.451458	0.072429	-0.957131	-0.280454	0.487668	-0.211302	0.847072	0	0	0
57325	0	0	0	0	0	4.451158	-2.752111	8.310626	0.003877	0.002895	0.003516	-0.597656	0.113281	-0.458252	0.070569	-0.244960	0.128258	-0.958418	-18.316708	-26.836531	-167.172508	-0.870029	-0.198105	0.451447	0.072433	-0.957140	-0.280422	0.487650	-0.211276	0.847089	0	0	0
57326	0	0	0	0	0	4.442388	-2.731048	8.336928	0.001719	0.002504	0.001780	-0.603516	0.110107	-0.454590	0.070555	-0.244957	0.128251	-0.958421	-18.315369	-26.836442	-167.174458	-0.870036	-0.198075	0.451445	0.072412	-0.957147	-0.280402	0.487640	-0.211270	0.847096	0	0	0
57327	0	0	0	0	0	4.410133	-2.718541	8.339337	0.001459	-0.001042	0.007226	-0.600342	0.113525	-0.458740	0.070570	-0.244966	0.128250	-0.958417	-18.315860	-26.837296	-167.172469	-0.870023	-0.198104	0.451458	0.072437	-0.957144	-0.280407	0.487661	-0.211259	0.847087	0	0	0
57328	0	0	0	0	0	4.419639	-2.740965	8.337650	0.003086	0.001565	0.005361	-0.595703	0.112793	-0.461182	0.070576	-0.244964	0.128240	-0.958419	-18.314808	-26.837073	-167.172047	-0.870023	-0.198111	0.451455	0.072454	-0.957147	-0.280392	0.487658	-0.211238	0.847094	0	0	0
57329	0	0	0	0	0	4.432059	-2.708812	8.338992	0.003040	0.001617	0.003538	-0.594971	0.113281	-0.459229	0.070573	-0.244962	0.128228	-0.958421	-18.313142	-26.837068	-167.172817	-0.870026	-0.198099	0.451455	0.072455	-0.957154	-0.280368	0.487653	-0.211217	0.847102	0	0	0
57330	0	0	0	0	0	4.441519	-2.731181	8.337348	0.000974	0.001122	0.005448	-0.601074	0.107910	-0.465576	0.070577	-0.244963	0.128228	-0.958420	-18.313365	-26.837070	-167.172253	-0.870024	-0.198108	0.451455	0.072463	-0.957153	-0.280371	0.487655	-0.211216	0.847101	0	0	0
57331	0	0	0	0	0	4.420047	-2.742372	8.362420	0.002601	0.003730	0.003582	-0.599121	0.116211	-0.452881	0.070572	-0.244951	0.128219	-0.958425	-18.311719	-26.835889	-167.173552	-0.870038	-0.198090	0.451437	0.072461	-0.957159	-0.280350	0.487631	-0.211203	0.847118	0	0	0
57332	0	0	0	0	0	4.442048	-2.732745	8.362004	0.001066	0.001019	0.009095	-0.603271	0.116211	-0.460449	0.070594	-0.244950	0.128224	-0.958423	-18.312902	-26.835290	-167.170744	-0.870032	-0.198134	0.451427	0.072500	-0.957150	-0.280369	0.487634	-0.211201	0.847117	0	0	0
57333	0	0	0	0	0	4.419372	-2.742752	8.362652	-0.000347	0.002009	0.003691	-0.591797	0.108154	-0.447021	0.070588	-0.244948	0.128228	-0.958423	-18.313249	-26.835107	-167.171352	-0.870036	-0.198125	0.451424	0.072488	-0.957150	-0.280374	0.487630	-0.211213	0.847116	0	0	0
57334	0	0	0	0	0	4.448727	-2.752634	8.311755	0.001719	0.002503	0.001781	-0.600586	0.115967	-0.457031	0.070575	-0.244944	0.128221	-0.958426	-18.311910	-26.835018	-167.173302	-0.870043	-0.198095	0.451423	0.072467	-0.957157	-0.280355	0.487620	-0.211207	0.847124	0	0	0
57335	0	0	0	0	0	4.440098	-2.731708	8.337932	0.001413	-0.000991	0.005404	-0.594971	0.109863	-0.448975	0.070581	-0.244955	0.128218	-0.958424	-18.311946	-26.836181	-167.172339	-0.870031	-0.198108	0.451441	0.072478	-0.957157	-0.280352	0.487640	-0.211196	0.847115	0	0	0
57336	0	0	0	0	0	4.407848	-2.719186	8.340335	0.001765	0.002452	0.003604	-0.595459	0.110107	-0.464111	0.070576	-0.244950	0.128213	-0.958426	-18.311087	-26.835791	-167.173167	-0.870037	-0.198096	0.451435	0.072473	-0.957161	-0.280341	0.487630	-0.211190	0.847122	0	0	0
57337	0	0	0	0	0	4.426925	-2.763878	8.336980	0.001765	0.002452	0.003604	-0.604492	0.117676	-0.456299	0.070571	-0.244945	0.128207	-0.958428	-18.310057	-26.835347	-167.174130	-0.870044	-0.198082	0.451428	0.072468	-0.957165	-0.280327	0.487619	-0.211182	0.847130	0	0	0
57338	0	0	0	0	0	4.440530	-2.733183	8.362666	0.001765	0.002452	0.003604	-0.600586	0.116211	-0.458252	0.070567	-0.244940	0.128202	-0.958430	-18.309198	-26.834958	-167.174958	-0.870050	-0.198070	0.451422	0.072463	-0.957169	-0.280315	0.487609	-0.211176	0.847137	0	0	0
57339	0	0	0	0	0	4.460066	-2.720831	8.313567	-0.000740	0.004071	0.005559	-0.597900	0.122070	-0.457031	0.070569	-0.244927	0.128211	-0.958432	-18.310106	-26.833318	-167.174830	-0.870062	-0.198075	0.451397	0.072465	-0.957164	-0.280332	0.487587	-0.211196	0.847145	0	0	0
57340	0	0	0	0	0	4.428918	-2.710002	8.340273	-0.000609	-0.001536	0.009138	-0.597656	0.112793	-0.452637	0.070590	-0.244939	0.128223	-0.958426	-18.312493	-26.834102	-167.171480	-0.870044	-0.198125	0.451409	0.072497	-0.957152	-0.280366	0.487614	-0.211205	0.847128	0	0	0
57341	0	0	0	0	0	4.438369	-2.732617	8.338554	0.001811	0.002400	0.005428	-0.604004	0.110107	-0.451660	0.070596	-0.244933	0.128220	-0.958428	-18.312072	-26.833375	-167.171024	-0.870048	-0.198133	0.451397	0.072512	-0.957152	-0.280361	0.487605	-0.211196	0.847135	0	0	0
57342	0	0	0	0	0	4.436906	-2.731395	8.314286	0.000137	-0.000155	0.005470	-0.595703	0.110596	-0.458496	0.070600	-0.244940	0.128224	-0.958425	-18.312897	-26.834068	-167.170189	-0.870040	-0.198144	0.451408	0.072516	-0.957148	-0.280372	0.487619	-0.211200	0.847126	0	0	0
57343	0	0	0	0	0	4.414326	-2.741350	8.314893	-0.000347	0.002010	0.003691	-0.601563	0.107422	-0.457275	0.070593	-0.244938	0.128228	-0.958426	-18.313151	-26.833913	-167.171007	-0.870044	-0.198132	0.451406	0.072501	-0.957148	-0.280376	0.487614	-0.211212	0.847126	0	0	0
57344	0	0	0	0	0	4.436419	-2.731710	8.314443	0.001765	0.002451	0.003605	-0.596680	0.115967	-0.461182	0.070589	-0.244933	0.128223	-0.958428	-18.312293	-26.833524	-167.171834	-0.870050	-0.198120	0.451400	0.072496	-0.957152	-0.280364	0.487604	-0.211206	0.847133	0	0	0
57345	0	0	0	0	0	4.413732	-2.741592	8.315128	-0.000301	0.001958	0.005515	-0.604736	0.115967	-0.458252	0.070590	-0.244930	0.128229	-0.958428	-18.313031	-26.833003	-167.171527	-0.870053	-0.198126	0.451392	0.072497	-0.957149	-0.280376	0.487599	-0.211218	0.847133	0	0	0
57346	0	0	0	0	0	4.437105	-2.733485	8.338943	0.000137	-0.000155	0.005471	-0.595215	0.109131	-0.453613	0.070595	-0.244937	0.128233	-0.958425	-18.313856	-26.833696	-167.170691	-0.870045	-0.198137	0.451402	0.072501	-0.957145	-0.280387	0.487613	-0.211222	0.847124	0	0	0
57347	0	0	0	0	0	4.436961	-2.733603	8.338981	0.000883	0.001226	0.001802	-0.592285	0.108643	-0.462158	0.070581	-0.244939	0.128229	-0.958426	-18.312991	-26.834288	-167.172426	-0.870046	-0.198110	0.451412	0.072476	-0.957151	-0.280373	0.487614	-0.211220	0.847124	0	0	0
57348	0	0	0	0	0	4.435651	-2.732375	8.314634	-0.000700	-0.001432	0.005492	-0.597412	0.114990	-0.468262	0.070585	-0.244953	0.128237	-0.958421	-18.314418	-26.835672	-167.171320	-0.870032	-0.198124	0.451433	0.072476	-0.957146	-0.280390	0.487640	-0.211230	0.847107	0	0	0
57349	0	0	0	0	0	4.435613	-2.732565	8.314592	0.000046	-0.000052	0.001824	-0.599121	0.112549	-0.449951	0.070571	-0.244960	0.128236	-0.958420	-18.314098	-26.836789	-167.172909	-0.870028	-0.198098	0.451451	0.072447	-0.957150	-0.280383	0.487649	-0.211235	0.847100	0	0	0
57350	0	0	0	0	0	4.414325	-2.743658	8.339579	0.004361	0.000728	0.005298	-0.601563	0.113770	-0.460205	0.070579	-0.244962	0.128220	-0.958422	-18.312375	-26.837032	-167.172357	-0.870025	-0.198106	0.451454	0.072470	-0.957156	-0.280357	0.487653	-0.211200	0.847106	0	0	0
57351	0	0	0	0	0	4.437776	-2.735316	8.363431	0.000091	-0.000103	0.003647	-0.598633	0.112793	-0.460449	0.070574	-0.244970	0.128222	-0.958420	-18.312607	-26.838029	-167.172663	-0.870018	-0.198100	0.451470	0.072458	-0.957157	-0.280358	0.487666	-0.211204	0.847098	0	0	0
57352	0	0	0	0	0	4.437632	-2.735434	8.363469	0.000928	0.001174	0.003626	-0.597412	0.110840	-0.458496	0.070569	-0.244972	0.128220	-0.958420	-18.312350	-26.838331	-167.173220	-0.870018	-0.198091	0.451475	0.072449	-0.957159	-0.280353	0.487668	-0.211203	0.847097	0	0	0
57353	0	0	0	0	0	4.402943	-2.720142	8.317176	0.000928	0.001174	0.003626	-0.593018	0.119385	-0.458252	0.070564	-0.244973	0.128218	-0.958420	-18.311937	-26.838562	-167.173896	-0.870018	-0.198080	0.451478	0.072440	-0.957162	-0.280346	0.487669	-0.211201	0.847097	0	0	0
57354	0	0	0	0	0	4.436090	-2.734345	8.339201	-0.002021	-0.000545	0.003734	-0.594727	0.111816	-0.459473	0.070558	-0.244984	0.128230	-0.958416	-18.313556	-26.839779	-167.174040	-0.870009	-0.198076	0.451497	0.072418	-0.957157	-0.280367	0.487688	-0.211225	0.847080	0	0	0
57355	0	0	0	0	0	4.435963	-2.734554	8.339200	0.000928	0.001174	0.003626	-0.604004	0.114502	-0.455811	0.070554	-0.244984	0.128228	-0.958417	-18.313207	-26.839959	-167.174536	-0.870010	-0.198068	0.451500	0.072412	-0.957159	-0.280362	0.487688	-0.211223	0.847080	0	0	0
57356	0	0	0	0	0	4.435560	-2.734843	8.339319	-0.001968	0.004856	0.007450	-0.598389	0.112549	-0.460938	0.070562	-0.244967	0.128247	-0.958418	-18.315327	-26.837570	-167.173506	-0.870024	-0.198088	0.451463	0.072423	-0.957148	-0.280399	0.487660	-0.211258	0.847088	0	0	0
57357	0	0	0	0	0	4.449052	-2.704490	8.364970	-0.000347	0.002010	0.003692	-0.601563	0.114258	-0.459717	0.070555	-0.244965	0.128251	-0.958418	-18.315619	-26.837376	-167.174245	-0.870029	-0.198077	0.451460	0.072409	-0.957147	-0.280404	0.487655	-0.211270	0.847088	0	0	0
57358	0	0	0	0	0	4.425179	-2.713159	8.341232	-0.002413	0.001517	0.005603	-0.595459	0.107910	-0.456787	0.070556	-0.244965	0.128268	-0.958416	-18.317790	-26.837136	-167.173666	-0.870028	-0.198086	0.451456	0.072401	-0.957138	-0.280436	0.487656	-0.211302	0.847079	0	0	0
57359	0	0	0	0	0	4.434603	-2.735903	8.339480	-0.001139	0.000681	0.005537	-0.593506	0.116211	-0.460693	0.070557	-0.244968	0.128278	-0.958414	-18.319123	-26.837316	-167.173097	-0.870025	-0.198094	0.451459	0.072399	-0.957133	-0.280456	0.487663	-0.211319	0.847071	0	0	0
57360	0	0	0	0	0	4.443990	-2.758703	8.337729	-0.003688	0.002353	0.005669	-0.594482	0.113770	-0.457031	0.070556	-0.244964	0.128302	-0.958412	-18.321966	-26.836609	-167.172647	-0.870029	-0.198103	0.451448	0.072385	-0.957121	-0.280499	0.487658	-0.211364	0.847063	0	0	0
57361	0	0	0	0	0	4.442436	-2.757862	8.313386	-0.002368	0.001465	0.007427	-0.590088	0.115479	-0.459961	0.070566	-0.244962	0.128320	-0.958409	-18.324513	-26.835951	-167.170914	-0.870028	-0.198130	0.451438	0.072396	-0.957109	-0.280539	0.487658	-0.211394	0.847055	0	0	0
57362	0	0	0	0	0	4.433688	-2.737255	8.339523	-0.000347	0.002010	0.003693	-0.593018	0.115723	-0.457764	0.070560	-0.244960	0.128325	-0.958409	-18.324928	-26.835787	-167.171599	-0.870032	-0.198120	0.451435	0.072381	-0.957108	-0.280545	0.487654	-0.211408	0.847054	0	0	0
57363	0	0	0	0	0	4.434663	-2.738907	8.363907	-0.001139	0.000681	0.005538	-0.592285	0.118408	-0.457275	0.070563	-0.244963	0.128335	-0.958407	-18.326331	-26.835869	-167.170828	-0.870028	-0.198131	0.451436	0.072382	-0.957102	-0.280566	0.487659	-0.211424	0.847047	0	0	0
57364	0	0	0	0	0	4.396837	-2.778035	8.314708	0.002558	0.003779	0.001761	-0.601807	0.114502	-0.453857	0.070550	-0.244952	0.128325	-0.958412	-18.324390	-26.835090	-167.173047	-0.870042	-0.198099	0.451424	0.072365	-0.957111	-0.280539	0.487637	-0.211413	0.847062	0	0	0
57365	0	0	0	0	0	4.431707	-2.736160	8.315493	0.002203	0.000337	0.003562	-0.594482	0.113281	-0.451904	0.070548	-0.244957	0.128316	-0.958412	-18.323397	-26.835814	-167.173359	-0.870037	-0.198093	0.451435	0.072365	-0.957116	-0.280523	0.487645	-0.211397	0.847061	0	0	0
57366	0	0	0	0	0	4.442414	-2.759820	8.338200	0.004361	0.000726	0.005299	-0.599609	0.111816	-0.453857	0.070556	-0.244959	0.128300	-0.958413	-18.321674	-26.836058	-167.172806	-0.870034	-0.198101	0.451439	0.072388	-0.957122	-0.280497	0.487649	-0.211363	0.847068	0	0	0
57367	0	0	0	0	0	4.408852	-2.745581	8.316401	0.004671	0.004220	0.001675	-0.588135	0.116943	-0.452637	0.070545	-0.244946	0.128279	-0.958420	-18.318341	-26.835061	-167.175175	-0.870050	-0.198067	0.451424	0.072381	-0.957136	-0.280450	0.487622	-0.211331	0.847092	0	0	0
57368	0	0	0	0	0	4.454398	-2.727288	8.339936	0.004761	0.004116	0.005323	-0.595459	0.117676	-0.458252	0.070552	-0.244931	0.128262	-0.958426	-18.316087	-26.833456	-167.175291	-0.870062	-0.198068	0.451399	0.072406	-0.957143	-0.280420	0.487595	-0.211299	0.847115	0	0	0
57369	0	0	0	0	0	4.408015	-2.745035	8.317025	0.007265	0.002495	0.003368	-0.592041	0.112793	-0.453613	0.070554	-0.244924	0.128230	-0.958432	-18.311958	-26.832982	-167.176097	-0.870069	-0.198057	0.451391	0.072430	-0.957158	-0.280360	0.487580	-0.211239	0.847139	0	0	0
57370	0	0	0	0	0	4.422846	-2.715409	8.367171	0.003878	0.002891	0.003520	-0.591797	0.110596	-0.453369	0.070552	-0.244916	0.128215	-0.958436	-18.309825	-26.832369	-167.177065	-0.870077	-0.198043	0.451382	0.072435	-0.957167	-0.280330	0.487565	-0.211213	0.847154	0	0	0
57371	0	0	0	0	0	4.430963	-2.736089	8.341354	0.005945	0.003383	0.001610	-0.595703	0.105957	-0.459473	0.070542	-0.244907	0.128187	-0.958443	-18.305801	-26.831780	-167.179328	-0.870089	-0.198010	0.451373	0.072434	-0.957184	-0.280272	0.487543	-0.211167	0.847178	0	0	0
57372	0	0	0	0	0	4.440294	-2.758261	8.339844	0.003131	0.001511	0.007190	-0.595703	0.115234	-0.464844	0.070557	-0.244904	0.128180	-0.958443	-18.305232	-26.831256	-167.177780	-0.870088	-0.198034	0.451364	0.072467	-0.957183	-0.280265	0.487541	-0.211146	0.847184	0	0	0
57373	0	0	0	0	0	4.420805	-2.713488	8.343444	0.002112	0.000440	-0.000086	-0.596924	0.114746	-0.451416	0.070536	-0.244909	0.128167	-0.958445	-18.303147	-26.832505	-167.180664	-0.870088	-0.197988	0.451384	0.072431	-0.957196	-0.280231	0.487545	-0.211132	0.847185	0	0	0
57374	0	0	0	0	0	4.441063	-2.759512	8.364464	0.001329	0.004564	0.003651	-0.597900	0.117676	-0.451172	0.070530	-0.244895	0.128165	-0.958450	-18.302359	-26.830958	-167.181889	-0.870104	-0.197972	0.451360	0.072425	-0.957199	-0.280224	0.487517	-0.211134	0.847201	0	0	0
57375	0	0	0	0	0	4.419089	-2.711990	8.319409	0.004797	-0.001387	0.005257	-0.593994	0.110107	-0.456787	0.070541	-0.244907	0.128145	-0.958449	-18.300523	-26.832379	-167.180765	-0.870089	-0.197987	0.451382	0.072452	-0.957206	-0.280193	0.487540	-0.211089	0.847199	0	0	0
57376	0	0	0	0	0	4.429818	-2.735590	8.342126	0.003040	0.001614	0.003542	-0.599121	0.104248	-0.459717	0.070538	-0.244906	0.128134	-0.958451	-18.298993	-26.832456	-167.181462	-0.870091	-0.197976	0.451383	0.072453	-0.957212	-0.280170	0.487536	-0.211069	0.847206	0	0	0
57377	0	0	0	0	0	4.421117	-2.714547	8.368365	0.003086	0.001563	0.005366	-0.587891	0.112793	-0.455078	0.070542	-0.244903	0.128123	-0.958452	-18.297708	-26.832188	-167.181338	-0.870093	-0.197978	0.451379	0.072468	-0.957217	-0.280152	0.487531	-0.211048	0.847214	0	0	0
57378	0	0	0	0	0	4.429304	-2.735602	8.342395	0.000973	0.001123	0.005452	-0.596680	0.107422	-0.454590	0.070547	-0.244903	0.128124	-0.958452	-18.297932	-26.832189	-167.180771	-0.870091	-0.197987	0.451379	0.072475	-0.957215	-0.280155	0.487534	-0.211047	0.847213	0	0	0
57379	0	0	0	0	0	4.395983	-2.721588	8.320384	0.002594	-0.001725	0.001694	-0.598389	0.110840	-0.453613	0.070536	-0.244919	0.128110	-0.958450	-18.296286	-26.834356	-167.182030	-0.870079	-0.197964	0.451413	0.072458	-0.957225	-0.280125	0.487558	-0.211023	0.847205	0	0	0
57380	0	0	0	0	0	4.430318	-2.737070	8.366811	0.001063	0.001020	0.009101	-0.595947	0.116699	-0.463867	0.070558	-0.244918	0.128115	-0.958448	-18.297472	-26.833756	-167.179219	-0.870074	-0.198008	0.451403	0.072498	-0.957216	-0.280144	0.487561	-0.211021	0.847204	0	0	0
57381	0	0	0	0	0	4.428889	-2.735713	8.342579	0.004270	0.000829	0.001653	-0.603516	0.113037	-0.453613	0.070549	-0.244921	0.128094	-0.958451	-18.294668	-26.834527	-167.180940	-0.870074	-0.197980	0.451415	0.072489	-0.957230	-0.280101	0.487563	-0.210986	0.847212	0	0	0
57382	0	0	0	0	0	4.429827	-2.736807	8.367157	0.006036	0.003280	0.005260	-0.602295	0.105713	-0.462646	0.070557	-0.244909	0.128071	-0.958457	-18.291742	-26.833389	-167.180926	-0.870082	-0.197982	0.451398	0.072519	-0.957239	-0.280061	0.487543	-0.210941	0.847234	0	0	0
57383	0	0	0	0	0	4.418653	-2.712892	8.344778	0.003041	0.001614	0.003542	-0.593018	0.111328	-0.458740	0.070552	-0.244908	0.128058	-0.958459	-18.290020	-26.833483	-167.181854	-0.870085	-0.197968	0.451399	0.072518	-0.957247	-0.280035	0.487538	-0.210919	0.847242	0	0	0
57384	0	0	0	0	0	4.429328	-2.736431	8.367544	0.004270	0.000829	0.001653	-0.601318	0.113281	-0.449219	0.070543	-0.244912	0.128038	-0.958461	-18.287336	-26.834327	-167.183544	-0.870084	-0.197941	0.451412	0.072509	-0.957260	-0.279993	0.487541	-0.210886	0.847249	0	0	0
57385	0	0	0	0	0	4.427917	-2.734927	8.343353	0.001766	0.002451	0.003607	-0.592529	0.113770	-0.453125	0.070538	-0.244907	0.128032	-0.958464	-18.286357	-26.833933	-167.184388	-0.870090	-0.197929	0.451406	0.072505	-0.957264	-0.279980	0.487531	-0.210878	0.847257	0	0	0
57386	0	0	0	0	0	4.428851	-2.736252	8.367855	0.003041	0.001614	0.003542	-0.598145	0.116211	-0.452881	0.070536	-0.244906	0.128021	-0.958466	-18.284826	-26.834010	-167.185085	-0.870092	-0.197918	0.451407	0.072506	-0.957271	-0.279957	0.487527	-0.210858	0.847264	0	0	0
57387	0	0	0	0	0	4.418948	-2.713960	8.369701	0.001018	0.001072	0.007278	-0.596191	0.119629	-0.461426	0.070550	-0.244905	0.128023	-0.958464	-18.285463	-26.833686	-167.183277	-0.870088	-0.197946	0.451402	0.072532	-0.957266	-0.279967	0.487530	-0.210855	0.847263	0	0	0
57388	0	0	0	0	0	4.427229	-2.735225	8.343620	-0.000703	-0.001430	0.005495	-0.597168	0.108154	-0.460205	0.070554	-0.244919	0.128031	-0.958460	-18.286892	-26.835068	-167.182170	-0.870074	-0.197961	0.451424	0.072532	-0.957261	-0.279985	0.487556	-0.210865	0.847246	0	0	0
57389	0	0	0	0	0	4.449544	-2.725793	8.343016	0.000135	-0.000153	0.005474	-0.597900	0.110107	-0.452637	0.070558	-0.244925	0.128034	-0.958457	-18.287591	-26.835648	-167.181384	-0.870066	-0.197972	0.451433	0.072536	-0.957258	-0.279994	0.487568	-0.210868	0.847238	0	0	0
57390	0	0	0	0	0	4.426791	-2.735710	8.343694	0.001420	0.004462	0.007301	-0.597168	0.112061	-0.454346	0.070570	-0.244909	0.128036	-0.958460	-18.287764	-26.833500	-167.180364	-0.870079	-0.197991	0.451399	0.072562	-0.957253	-0.280001	0.487541	-0.210869	0.847253	0	0	0
57391	0	0	0	0	0	4.425249	-2.734545	8.319462	0.001454	-0.001042	0.007234	-0.600342	0.115234	-0.452637	0.070584	-0.244918	0.128035	-0.958457	-18.288258	-26.834370	-167.178343	-0.870066	-0.198020	0.451413	0.072588	-0.957250	-0.280007	0.487562	-0.210857	0.847244	0	0	0
57392	0	0	0	0	0	4.416454	-2.713892	8.345616	-0.001967	0.004859	0.007452	-0.594238	0.115723	-0.455322	0.070592	-0.244901	0.128053	-0.958458	-18.290377	-26.831978	-167.177311	-0.870081	-0.198040	0.451376	0.072598	-0.957238	-0.280044	0.487534	-0.210892	0.847252	0	0	0
57393	0	0	0	0	0	4.424464	-2.735218	8.319659	0.000973	0.001123	0.005454	-0.599121	0.116455	-0.452148	0.070597	-0.244902	0.128053	-0.958458	-18.290536	-26.831961	-167.176632	-0.870078	-0.198050	0.451375	0.072608	-0.957237	-0.280046	0.487536	-0.210889	0.847251	0	0	0
57394	0	0	0	0	0	4.426517	-2.738147	8.368470	-0.000782	0.004125	0.003738	-0.601074	0.106689	-0.456787	0.070589	-0.244890	0.128061	-0.958460	-18.291021	-26.830637	-167.177715	-0.870092	-0.198036	0.451355	0.072592	-0.957235	-0.280057	0.487514	-0.210910	0.847259	0	0	0
57395	0	0	0	0	0	4.424938	-2.737030	8.344243	-0.000301	0.001960	0.005519	-0.597656	0.109619	-0.458252	0.070591	-0.244887	0.128067	-0.958460	-18.291778	-26.830196	-167.177355	-0.870094	-0.198042	0.451348	0.072594	-0.957231	-0.280069	0.487510	-0.210921	0.847258	0	0	0
57396	0	0	0	0	0	4.425790	-2.738593	8.368708	0.000492	0.003288	0.003673	-0.599854	0.111816	-0.447021	0.070585	-0.244879	0.128069	-0.958463	-18.291592	-26.829339	-167.178309	-0.870104	-0.198029	0.451335	0.072584	-0.957232	-0.280068	0.487494	-0.210929	0.847266	0	0	0
57397	0	0	0	0	0	4.424337	-2.737402	8.344440	0.000134	-0.000153	0.005475	-0.602295	0.112549	-0.458008	0.070589	-0.244886	0.128072	-0.958460	-18.292273	-26.830068	-167.177554	-0.870096	-0.198039	0.451346	0.072587	-0.957229	-0.280077	0.487508	-0.210932	0.847257	0	0	0
57398	0	0	0	0	0	4.423009	-2.736138	8.320130	0.002202	0.000337	0.003565	-0.594971	0.117188	-0.463135	0.070586	-0.244891	0.128064	-0.958460	-18.291345	-26.830836	-167.177980	-0.870092	-0.198032	0.451358	0.072584	-0.957234	-0.280061	0.487516	-0.210917	0.847256	0	0	0
57399	0	0	0	0	0	4.445269	-2.726570	8.319610	-0.001185	0.000735	0.003715	-0.593262	0.111328	-0.459961	0.070580	-0.244895	0.128072	-0.958458	-18.292252	-26.831266	-167.178414	-0.870090	-0.198024	0.451365	0.072567	-0.957232	-0.280073	0.487522	-0.210935	0.847248	0	0	0
57400	0	0	0	0	0	4.436728	-2.705867	8.345646	-0.002023	-0.000541	0.003736	-0.599854	0.117432	-0.458740	0.070573	-0.244906	0.128085	-0.958454	-18.293872	-26.832481	-167.178559	-0.870081	-0.198020	0.451383	0.072545	-0.957227	-0.280094	0.487541	-0.210959	0.847231	0	0	0
57401	0	0	0	0	0	4.423854	-2.738204	8.344433	0.000134	-0.000154	0.005475	-0.599609	0.116943	-0.460205	0.070578	-0.244912	0.128088	-0.958452	-18.294585	-26.833074	-167.177736	-0.870074	-0.198031	0.451393	0.072550	-0.957224	-0.280103	0.487553	-0.210962	0.847223	0	0	0
57402	0	0	0	0	0	4.414092	-2.716065	8.346159	0.000134	-0.000154	0.005475	-0.598877	0.101807	-0.457031	0.070582	-0.244919	0.128092	-0.958449	-18.295412	-26.833765	-167.176898	-0.870065	-0.198043	0.451403	0.072554	-0.957221	-0.280114	0.487567	-0.210966	0.847214	0	0	0
57403	0	0	0	0	0	4.444784	-2.727745	8.319484	-0.001934	-0.000644	0.007386	-0.591797	0.104248	-0.467285	0.070592	-0.244928	0.128108	-0.958444	-18.297792	-26.834345	-167.175032	-0.870055	-0.198070	0.451413	0.072562	-0.957211	-0.280148	0.487586	-0.210988	0.847198	0	0	0
57404	0	0	0	0	0	4.432889	-2.761548	8.342696	0.000582	0.003185	0.007324	-0.592529	0.115479	-0.459473	0.070603	-0.244918	0.128113	-0.958445	-18.298567	-26.832887	-167.173741	-0.870061	-0.198092	0.451390	0.072584	-0.957204	-0.280163	0.487570	-0.210995	0.847205	0	0	0
57405	0	0	0	0	0	4.414428	-2.718483	8.370618	-0.000256	0.001909	0.007345	-0.594482	0.115479	-0.456055	0.070613	-0.244912	0.128121	-0.958445	-18.299724	-26.831934	-167.172433	-0.870064	-0.198114	0.451375	0.072600	-0.957198	-0.280182	0.487563	-0.211006	0.847206	0	0	0
57406	0	0	0	0	0	4.443791	-2.728762	8.319681	-0.002503	0.001624	0.001955	-0.588623	0.114258	-0.455078	0.070596	-0.244914	0.128134	-0.958444	-18.300932	-26.832292	-167.174100	-0.870067	-0.198088	0.451381	0.072561	-0.957196	-0.280199	0.487564	-0.211040	0.847198	0	0	0
57407	0	0	0	0	0	4.444859	-2.730340	8.344026	0.001408	-0.000991	0.005411	-0.598145	0.114990	-0.453857	0.070603	-0.244924	0.128131	-0.958441	-18.301000	-26.833347	-167.173043	-0.870055	-0.198102	0.451397	0.072573	-0.957195	-0.280198	0.487583	-0.211028	0.847190	0	0	0
57408	0	0	0	0	0	4.413927	-2.719188	8.370653	0.000134	-0.000154	0.005476	-0.597656	0.111084	-0.461182	0.070607	-0.244931	0.128136	-0.958439	-18.301828	-26.834038	-167.172205	-0.870047	-0.198114	0.451408	0.072576	-0.957192	-0.280208	0.487597	-0.211033	0.847180	0	0	0
57409	0	0	0	0	0	4.413755	-2.719473	8.370651	-0.001140	0.000684	0.005541	-0.603271	0.115967	-0.448242	0.070609	-0.244934	0.128146	-0.958436	-18.303197	-26.834214	-167.171550	-0.870044	-0.198123	0.451410	0.072575	-0.957186	-0.280228	0.487604	-0.211049	0.847172	0	0	0
57410	0	0	0	0	0	4.419527	-2.738045	8.295921	-0.000301	0.001960	0.005520	-0.595703	0.118408	-0.459717	0.070612	-0.244931	0.128153	-0.958436	-18.304093	-26.833747	-167.171111	-0.870046	-0.198131	0.451403	0.072577	-0.957182	-0.280242	0.487600	-0.211062	0.847171	0	0	0
57411	0	0	0	0	0	4.444017	-2.731494	8.344097	-0.001050	0.000581	0.009192	-0.600342	0.111084	-0.458008	0.070633	-0.244933	0.128167	-0.958432	-18.306521	-26.833372	-167.167979	-0.870038	-0.198179	0.451397	0.072610	-0.957168	-0.280279	0.487609	-0.211077	0.847162	0	0	0
57412	0	0	0	0	0	4.410576	-2.717670	8.322072	0.000884	0.001225	0.001805	-0.595947	0.111328	-0.464844	0.070620	-0.244936	0.128163	-0.958433	-18.305783	-26.833973	-167.169656	-0.870039	-0.198153	0.451407	0.072585	-0.957174	-0.280267	0.487610	-0.211077	0.847161	0	0	0
57413	0	0	0	0	0	4.453147	-2.754298	8.342484	-0.000256	0.001909	0.007346	-0.593994	0.105713	-0.458740	0.070630	-0.244931	0.128172	-0.958432	-18.306972	-26.833113	-167.168297	-0.870041	-0.198175	0.451393	0.072602	-0.957167	-0.280286	0.487604	-0.211088	0.847162	0	0	0
57414	0	0	0	0	0	4.410008	-2.718114	8.322228	-0.000345	0.002011	0.003695	-0.593018	0.105225	-0.459229	0.070624	-0.244929	0.128177	-0.958433	-18.307388	-26.832947	-167.168981	-0.870044	-0.198165	0.451391	0.072588	-0.957166	-0.280293	0.487600	-0.211102	0.847161	0	0	0
57415	0	0	0	0	0	4.442930	-2.732424	8.344371	-0.000301	0.001960	0.005521	-0.599365	0.114258	-0.465332	0.070624	-0.244925	0.128182	-0.958433	-18.308000	-26.832395	-167.168943	-0.870048	-0.198166	0.451382	0.072586	-0.957163	-0.280303	0.487593	-0.211113	0.847162	0	0	0
57416	0	0	0	0	0	4.420239	-2.742305	8.345002	0.000973	0.001122	0.005456	-0.607666	0.119873	-0.450684	0.070628	-0.244925	0.128183	-0.958432	-18.308225	-26.832395	-167.168374	-0.870046	-0.198175	0.451382	0.072594	-0.957162	-0.280307	0.487595	-0.211112	0.847161	0	0	0
57417	0	0	0	0	0	4.410406	-2.720177	8.346768	-0.001140	0.000684	0.005542	-0.591797	0.120850	-0.460449	0.070631	-0.244929	0.128193	-0.958430	-18.309669	-26.832613	-167.167571	-0.870042	-0.198187	0.451386	0.072594	-0.957155	-0.280328	0.487603	-0.211129	0.847153	0	0	0
57418	0	0	0	0	0	4.442253	-2.733178	8.344485	0.000134	-0.000154	0.005477	-0.598145	0.117676	-0.456055	0.070635	-0.244936	0.128197	-0.958427	-18.310497	-26.833303	-167.166732	-0.870034	-0.198198	0.451396	0.072597	-0.957152	-0.280338	0.487617	-0.211133	0.847143	0	0	0
57419	0	0	0	0	0	4.440807	-2.731985	8.320216	0.000494	0.003287	0.003675	-0.597656	0.111328	-0.452637	0.070631	-0.244927	0.128198	-0.958429	-18.310289	-26.832325	-167.167463	-0.870044	-0.198189	0.451381	0.072592	-0.957153	-0.280337	0.487600	-0.211139	0.847152	0	0	0
57420	0	0	0	0	0	4.410855	-2.722276	8.371269	-0.001095	0.000633	0.007368	-0.601074	0.110840	-0.455078	0.070643	-0.244930	0.128211	-0.958426	-18.312270	-26.832247	-167.165630	-0.870038	-0.198217	0.451380	0.072606	-0.957143	-0.280367	0.487608	-0.211157	0.847143	0	0	0
57421	0	0	0	0	0	4.452172	-2.757630	8.367337	0.001812	0.002398	0.005436	-0.600830	0.119629	-0.462402	0.070646	-0.244924	0.128207	-0.958428	-18.311740	-26.831591	-167.165432	-0.870042	-0.198221	0.451370	0.072617	-0.957144	-0.280361	0.487599	-0.211149	0.847150	0	0	0
57422	0	0	0	0	0	4.430415	-2.710310	8.322135	0.000612	-0.002319	0.007259	-0.593262	0.114014	-0.450928	0.070661	-0.244940	0.128211	-0.958422	-18.312982	-26.833138	-167.163070	-0.870022	-0.198254	0.451394	0.072638	-0.957138	-0.280375	0.487632	-0.211144	0.847132	0	0	0
57423	0	0	0	0	0	4.431438	-2.711837	8.346519	0.000450	0.003338	0.001849	-0.593994	0.108887	-0.452637	0.070647	-0.244933	0.128209	-0.958425	-18.312252	-26.832519	-167.165025	-0.870034	-0.198225	0.451384	0.072615	-0.957143	-0.280366	0.487615	-0.211151	0.847141	0	0	0
57424	0	0	0	0	0	4.439669	-2.733023	8.320483	-0.000706	-0.001430	0.005498	-0.595459	0.115967	-0.453125	0.070651	-0.244946	0.128217	-0.958421	-18.313683	-26.833900	-167.163916	-0.870020	-0.198240	0.451406	0.072615	-0.957137	-0.280384	0.487640	-0.211161	0.847123	0	0	0
57425	0	0	0	0	0	4.440626	-2.734772	8.344829	-0.001530	0.002747	0.007412	-0.602539	0.112061	-0.447754	0.070661	-0.244939	0.128232	-0.958420	-18.315606	-26.832649	-167.162494	-0.870024	-0.198264	0.451386	0.072628	-0.957127	-0.280415	0.487630	-0.211185	0.847123	0	0	0
57426	0	0	0	0	0	4.417848	-2.744773	8.345457	0.001017	0.001070	0.007283	-0.600586	0.120117	-0.456055	0.070674	-0.244938	0.128235	-0.958419	-18.316313	-26.832348	-167.160801	-0.870021	-0.198290	0.451381	0.072652	-0.957122	-0.280426	0.487633	-0.211183	0.847122	0	0	0
57427	0	0	0	0	0	4.425899	-2.766004	8.319499	0.000539	0.003236	0.005501	-0.595703	0.115723	-0.449951	0.070678	-0.244930	0.128237	-0.958420	-18.316557	-26.831253	-167.160495	-0.870028	-0.198296	0.451364	0.072660	-0.957120	-0.280433	0.487619	-0.211188	0.847129	0	0	0
57428	0	0	0	0	0	4.449178	-2.757774	8.343453	0.003041	0.001610	0.003546	-0.594482	0.111328	-0.455078	0.070675	-0.244929	0.128226	-0.958422	-18.315027	-26.831332	-167.161189	-0.870030	-0.198286	0.451366	0.072661	-0.957126	-0.280410	0.487615	-0.211168	0.847136	0	0	0
57429	0	0	0	0	0	4.406098	-2.721283	8.323264	0.001812	0.002397	0.005437	-0.599609	0.114502	-0.457031	0.070680	-0.244923	0.128222	-0.958424	-18.314544	-26.830629	-167.160855	-0.870034	-0.198292	0.451355	0.072674	-0.957127	-0.280405	0.487606	-0.211160	0.847144	0	0	0
57430	0	0	0	0	0	4.430759	-2.714474	8.371444	0.000523	-0.002216	0.003608	-0.601563	0.107910	-0.459229	0.070677	-0.244941	0.128221	-0.958419	-18.314823	-26.832777	-167.160739	-0.870017	-0.198290	0.451388	0.072663	-0.957128	-0.280403	0.487637	-0.211156	0.847126	0	0	0
57431	0	0	0	0	0	4.416541	-2.745350	8.345959	-0.000734	0.004074	0.005566	-0.596680	0.109619	-0.452393	0.070677	-0.244928	0.128230	-0.958422	-18.315610	-26.831133	-167.160876	-0.870030	-0.198291	0.451362	0.072662	-0.957123	-0.280419	0.487614	-0.211176	0.847135	0	0	0
57432	0	0	0	0	0	4.437461	-2.734604	8.321141	0.000133	-0.000154	0.005478	-0.600830	0.115234	-0.459473	0.070681	-0.244935	0.128235	-0.958419	-18.316439	-26.831823	-167.160037	-0.870022	-0.198302	0.451373	0.072666	-0.957120	-0.280430	0.487628	-0.211181	0.847125	0	0	0
57433	0	0	0	0	0	4.437347	-2.734797	8.321139	0.000089	-0.000103	0.003652	-0.593750	0.113770	-0.453857	0.070676	-0.244943	0.128236	-0.958417	-18.316642	-26.832799	-167.160402	-0.870016	-0.198295	0.451388	0.072653	-0.957121	-0.280430	0.487641	-0.211184	0.847117	0	0	0
57434	0	0	0	0	0	4.448017	-2.758731	8.343756	0.001451	-0.001044	0.007240	-0.600342	0.116455	-0.458496	0.070691	-0.244953	0.128236	-0.958414	-18.317282	-26.833656	-167.158308	-0.870002	-0.198325	0.451402	0.072679	-0.957117	-0.280438	0.487662	-0.211174	0.847108	0	0	0
57435	0	0	0	0	0	4.406210	-2.723834	8.347792	-0.000300	0.001960	0.005523	-0.600586	0.107666	-0.450928	0.070694	-0.244949	0.128242	-0.958413	-18.318084	-26.833136	-167.157828	-0.870004	-0.198334	0.451394	0.072682	-0.957113	-0.280451	0.487657	-0.211185	0.847108	0	0	0
57436	0	0	0	0	0	4.435675	-2.734128	8.296822	-0.000707	-0.001429	0.005499	-0.595215	0.111572	-0.454346	0.070698	-0.244963	0.128250	-0.958409	-18.319516	-26.834516	-167.156718	-0.869990	-0.198348	0.451415	0.072682	-0.957107	-0.280468	0.487683	-0.211195	0.847090	0	0	0
57437	0	0	0	0	0	4.415437	-2.746574	8.346140	0.003882	0.002885	0.003526	-0.588867	0.112305	-0.458008	0.070694	-0.244956	0.128234	-0.958413	-18.317202	-26.833939	-167.157836	-0.869998	-0.198332	0.451406	0.072686	-0.957117	-0.280436	0.487668	-0.211168	0.847106	0	0	0
57438	0	0	0	0	0	4.426923	-2.713228	8.323043	0.000611	-0.002319	0.007261	-0.592041	0.116455	-0.457520	0.070709	-0.244972	0.128237	-0.958407	-18.318445	-26.835486	-167.155473	-0.869978	-0.198365	0.451430	0.072707	-0.957111	-0.280450	0.487700	-0.211163	0.847088	0	0	0
57439	0	0	0	0	0	4.436391	-2.735811	8.321315	-0.000389	0.002063	0.001870	-0.594727	0.111816	-0.455811	0.070695	-0.244969	0.128239	-0.958409	-18.318258	-26.835468	-167.157273	-0.869984	-0.198338	0.451430	0.072679	-0.957114	-0.280447	0.487693	-0.211175	0.847089	0	0	0
57440	0	0	0	0	0	4.437382	-2.737369	8.345703	-0.001185	0.000736	0.003717	-0.595947	0.111328	-0.455566	0.070688	-0.244974	0.128248	-0.958407	-18.319276	-26.835991	-167.157686	-0.869982	-0.198331	0.451438	0.072661	-0.957111	-0.280461	0.487701	-0.211194	0.847080	0	0	0
57441	0	0	0	0	0	4.405228	-2.724863	8.347975	0.000133	-0.000154	0.005479	-0.599609	0.113037	-0.456543	0.070692	-0.244981	0.128251	-0.958404	-18.319945	-26.836632	-167.156952	-0.869974	-0.198341	0.451448	0.072665	-0.957109	-0.280470	0.487713	-0.211197	0.847072	0	0	0
57442	0	0	0	0	0	4.427428	-2.715477	8.347464	-0.000300	0.001960	0.005523	-0.598389	0.111084	-0.452393	0.070694	-0.244978	0.128258	-0.958404	-18.320842	-26.836165	-167.156511	-0.869976	-0.198348	0.451441	0.072666	-0.957104	-0.280484	0.487709	-0.211210	0.847071	0	0	0
57443	0	0	0	0	0	4.435596	-2.736750	8.321430	0.000133	-0.000154	0.005479	-0.595459	0.114258	-0.452637	0.070698	-0.244985	0.128262	-0.958401	-18.321527	-26.836864	-167.155750	-0.869968	-0.198359	0.451452	0.072670	-0.957101	-0.280492	0.487723	-0.211213	0.847063	0	0	0
57444	0	0	0	0	0	4.427009	-2.716052	8.347499	-0.001096	0.000634	0.007371	-0.600342	0.118408	-0.448975	0.070709	-0.244987	0.128274	-0.958398	-18.323509	-26.836785	-167.153915	-0.869963	-0.198387	0.451451	0.072684	-0.957092	-0.280522	0.487731	-0.211230	0.847054	0	0	0
57445	0	0	0	0	0	4.413894	-2.748381	8.346361	-0.000344	0.002011	0.003697	-0.591797	0.109375	-0.451660	0.070704	-0.244986	0.128279	-0.958398	-18.323880	-26.836647	-167.154428	-0.869966	-0.198379	0.451448	0.072673	-0.957091	-0.280528	0.487728	-0.211241	0.847053	0	0	0
57446	0	0	0	0	0	4.435987	-2.738923	8.345935	-0.000822	0.004177	0.001915	-0.594971	0.115479	-0.458984	0.070688	-0.244975	0.128285	-0.958402	-18.323881	-26.835623	-167.156634	-0.869981	-0.198347	0.451432	0.072641	-0.957093	-0.280530	0.487705	-0.211263	0.847061	0	0	0
57447	0	0	0	0	0	4.457013	-2.728046	8.321118	0.002723	-0.001883	0.007177	-0.597656	0.105469	-0.446533	0.070704	-0.244988	0.128277	-0.958398	-18.323704	-26.836873	-167.154471	-0.869964	-0.198378	0.451452	0.072673	-0.957092	-0.280525	0.487731	-0.211238	0.847052	0	0	0
57448	0	0	0	0	0	4.402467	-2.724998	8.323970	0.000929	0.001173	0.003633	-0.596436	0.104248	-0.453125	0.070700	-0.244989	0.128276	-0.958398	-18.323448	-26.837175	-167.155024	-0.869964	-0.198369	0.451457	0.072664	-0.957094	-0.280520	0.487733	-0.211237	0.847051	0	0	0
57449	0	0	0	0	0	4.459044	-2.730867	8.369962	0.003042	0.001609	0.003548	-0.594482	0.113525	-0.452881	0.070695	-0.244988	0.128263	-0.958401	-18.321659	-26.837340	-167.156044	-0.869966	-0.198353	0.451459	0.072662	-0.957102	-0.280493	0.487729	-0.211216	0.847059	0	0	0
57450	0	0	0	0	0	4.433910	-2.737719	8.322010	0.002653	0.003672	0.005419	-0.591309	0.107178	-0.452881	0.070699	-0.244976	0.128256	-0.958404	-18.320679	-26.835960	-167.156013	-0.869976	-0.198356	0.451438	0.072677	-0.957104	-0.280482	0.487708	-0.211204	0.847074	0	0	0
57451	0	0	0	0	0	4.412324	-2.748786	8.347058	0.002290	0.000231	0.007222	-0.592529	0.118164	-0.456543	0.070714	-0.244979	0.128251	-0.958403	-18.320546	-26.836090	-167.154295	-0.869969	-0.198382	0.451440	0.072706	-0.957102	-0.280480	0.487716	-0.211186	0.847073	0	0	0
57452	0	0	0	0	0	4.434590	-2.739326	8.346545	0.001450	-0.001044	0.007242	-0.596191	0.104736	-0.455322	0.070728	-0.244989	0.128251	-0.958399	-18.321187	-26.836947	-167.152200	-0.869956	-0.198412	0.451453	0.072732	-0.957098	-0.280487	0.487737	-0.211176	0.847064	0	0	0
57453	0	0	0	0	0	4.455723	-2.728424	8.321684	0.002202	0.000334	0.003569	-0.591553	0.115479	-0.456299	0.070725	-0.244994	0.128242	-0.958400	-18.320096	-26.837647	-167.152734	-0.869952	-0.198403	0.451464	0.072729	-0.957104	-0.280469	0.487744	-0.211160	0.847064	0	0	0
57454	0	0	0	0	0	4.410840	-2.747713	8.322775	0.000521	-0.002217	0.003610	-0.596191	0.106201	-0.455811	0.070722	-0.245012	0.128242	-0.958395	-18.320376	-26.839796	-167.152617	-0.869935	-0.198401	0.451497	0.072718	-0.957105	-0.280468	0.487776	-0.211157	0.847046	0	0	0
57455	0	0	0	0	0	4.448356	-2.708926	8.372132	0.000496	0.003287	0.003677	-0.599609	0.110107	-0.450195	0.070715	-0.245003	0.128242	-0.958398	-18.320011	-26.838865	-167.153706	-0.869946	-0.198386	0.451483	0.072708	-0.957107	-0.280465	0.487758	-0.211163	0.847055	0	0	0
57456	0	0	0	0	0	4.423292	-2.715901	8.324101	0.002246	0.000282	0.005396	-0.591309	0.114502	-0.458008	0.070721	-0.245007	0.128236	-0.958397	-18.319566	-26.839333	-167.153005	-0.869940	-0.198396	0.451490	0.072721	-0.957108	-0.280457	0.487766	-0.211148	0.847054	0	0	0
57457	0	0	0	0	0	4.433844	-2.739861	8.346765	-0.001140	0.000686	0.005545	-0.591797	0.106934	-0.447021	0.070724	-0.245010	0.128246	-0.958395	-18.320930	-26.839522	-167.152340	-0.869936	-0.198406	0.451493	0.072719	-0.957102	-0.280477	0.487773	-0.211165	0.847046	0	0	0
57458	0	0	0	0	0	4.422849	-2.716273	8.324216	0.001769	0.002448	0.003613	-0.588135	0.114258	-0.451660	0.070719	-0.245006	0.128241	-0.958397	-18.320070	-26.839133	-167.153162	-0.869942	-0.198394	0.451487	0.072715	-0.957106	-0.280465	0.487764	-0.211159	0.847053	0	0	0
57459	0	0	0	0	0	4.433272	-2.740066	8.347002	0.000452	0.003338	0.001850	-0.595947	0.105225	-0.457520	0.070704	-0.244998	0.128240	-0.958401	-18.319253	-26.838556	-167.155265	-0.869954	-0.198363	0.451478	0.072689	-0.957111	-0.280455	0.487746	-0.211165	0.847061	0	0	0
57460	0	0	0	0	0	4.431913	-2.738874	8.322694	-0.000708	-0.001428	0.005501	-0.602295	0.109863	-0.454346	0.070708	-0.245011	0.128247	-0.958396	-18.320686	-26.839935	-167.154154	-0.869939	-0.198378	0.451500	0.072689	-0.957106	-0.280472	0.487772	-0.211175	0.847044	0	0	0
57461	0	0	0	0	0	4.433007	-2.740507	8.346998	0.000132	-0.000154	0.005481	-0.597900	0.110840	-0.455322	0.070711	-0.245018	0.128250	-0.958393	-18.321279	-26.840632	-167.153618	-0.869932	-0.198384	0.451510	0.072690	-0.957104	-0.280479	0.487785	-0.211178	0.847036	0	0	0
57462	0	0	0	0	0	4.431554	-2.739462	8.322691	-0.002890	0.003690	0.003827	-0.597900	0.114258	-0.450684	0.070701	-0.245009	0.128268	-0.958394	-18.323035	-26.839529	-167.154561	-0.869944	-0.198372	0.451493	0.072664	-0.957097	-0.280508	0.487768	-0.211219	0.847035	0	0	0
57463	0	0	0	0	0	4.408926	-2.749264	8.323277	0.001317	-0.000891	0.001763	-0.590576	0.109375	-0.458984	0.070689	-0.245022	0.128261	-0.958393	-18.322106	-26.841299	-167.155863	-0.869935	-0.198349	0.451521	0.072642	-0.957104	-0.280490	0.487787	-0.211209	0.847027	0	0	0
57464	0	0	0	0	0	4.452564	-2.728773	8.297836	0.000132	-0.000154	0.005481	-0.596191	0.111084	-0.454346	0.070693	-0.245029	0.128266	-0.958390	-18.322936	-26.841989	-167.155022	-0.869927	-0.198361	0.451532	0.072646	-0.957101	-0.280500	0.487802	-0.211213	0.847018	0	0	0
57465	0	0	0	0	0	4.441810	-2.763770	8.345395	-0.000300	0.001961	0.005525	-0.596191	0.105957	-0.450684	0.070695	-0.245025	0.128272	-0.958390	-18.323643	-26.841431	-167.154747	-0.869930	-0.198366	0.451523	0.072647	-0.957097	-0.280512	0.487795	-0.211224	0.847018	0	0	0
57466	0	0	0	0	0	4.430899	-2.740176	8.322805	0.000044	-0.000051	0.001827	-0.595459	0.119141	-0.462646	0.070681	-0.245034	0.128272	-0.958389	-18.323508	-26.842723	-167.156154	-0.869925	-0.198342	0.451543	0.072618	-0.957101	-0.280507	0.487809	-0.211230	0.847009	0	0	0
57467	0	0	0	0	0	4.401171	-2.730271	8.373762	0.000132	-0.000154	0.005481	-0.591309	0.108643	-0.461426	0.070685	-0.245041	0.128275	-0.958386	-18.324195	-26.843343	-167.155383	-0.869917	-0.198353	0.451553	0.072622	-0.957098	-0.280516	0.487821	-0.211233	0.847001	0	0	0
57468	0	0	0	0	0	4.421006	-2.717976	8.324638	0.002566	0.003773	0.001766	-0.594238	0.102783	-0.452881	0.070672	-0.245030	0.128265	-0.958391	-18.322250	-26.842566	-167.157599	-0.869931	-0.198321	0.451541	0.072606	-0.957107	-0.280489	0.487799	-0.211222	0.847017	0	0	0
57469	0	0	0	0	0	4.408868	-2.751438	8.348010	-0.000732	0.004075	0.005569	-0.598389	0.113525	-0.459961	0.070671	-0.245016	0.128273	-0.958394	-18.322934	-26.840859	-167.157932	-0.869945	-0.198319	0.451514	0.072603	-0.957103	-0.280503	0.487775	-0.211241	0.847026	0	0	0
57470	0	0	0	0	0	4.454715	-2.733803	8.371309	0.000520	-0.002217	0.003610	-0.604736	0.111328	-0.459473	0.070668	-0.245034	0.128273	-0.958389	-18.323215	-26.843007	-167.157815	-0.869928	-0.198317	0.451547	0.072592	-0.957104	-0.280502	0.487806	-0.211238	0.847009	0	0	0
57471	0	0	0	0	0	4.439285	-2.763036	8.321557	0.003407	0.005048	0.001746	-0.597656	0.116943	-0.454102	0.070654	-0.245017	0.128257	-0.958397	-18.320510	-26.841497	-167.160446	-0.869949	-0.198279	0.451524	0.072578	-0.957116	-0.280466	0.487771	-0.211220	0.847033	0	0	0
57472	0	0	0	0	0	4.428183	-2.739042	8.299202	0.003839	0.002934	0.001702	-0.600098	0.117676	-0.455078	0.070642	-0.245011	0.128240	-0.958402	-18.317894	-26.841187	-167.162531	-0.869959	-0.198248	0.451519	0.072567	-0.957128	-0.280428	0.487756	-0.211195	0.847048	0	0	0
57473	0	0	0	0	0	4.420703	-2.719107	8.349846	0.005156	0.002043	0.003465	-0.592529	0.115967	-0.451904	0.070643	-0.245007	0.128218	-0.958406	-18.315057	-26.841021	-167.163188	-0.869962	-0.198238	0.451516	0.072581	-0.957139	-0.280386	0.487747	-0.211154	0.847063	0	0	0
57474	0	0	0	0	0	4.428866	-2.739907	8.323975	0.004315	0.000768	0.003485	-0.593262	0.110840	-0.455322	0.070642	-0.245009	0.128200	-0.958407	-18.312857	-26.841569	-167.163750	-0.869960	-0.198229	0.451525	0.072588	-0.957149	-0.280353	0.487751	-0.211120	0.847070	0	0	0
57475	0	0	0	0	0	4.428707	-2.739702	8.324128	0.004315	0.000768	0.003486	-0.597168	0.105469	-0.448975	0.070642	-0.245011	0.128182	-0.958409	-18.310550	-26.842052	-167.164273	-0.869958	-0.198220	0.451533	0.072596	-0.957158	-0.280317	0.487753	-0.211085	0.847078	0	0	0
57476	0	0	0	0	0	4.441405	-2.707544	8.325449	0.003042	0.001608	0.003550	-0.599365	0.103760	-0.458740	0.070640	-0.245010	0.128170	-0.958411	-18.309020	-26.842131	-167.164964	-0.869960	-0.198210	0.451534	0.072597	-0.957165	-0.280294	0.487749	-0.211065	0.847085	0	0	0
57477	0	0	0	0	0	4.405788	-2.749022	8.325019	0.003883	0.002883	0.003529	-0.593262	0.107666	-0.459473	0.070634	-0.245003	0.128154	-0.958416	-18.306610	-26.841562	-167.166317	-0.869969	-0.198190	0.451525	0.072598	-0.957175	-0.280260	0.487733	-0.211038	0.847101	0	0	0
57478	0	0	0	0	0	4.451574	-2.730902	8.348512	0.006428	0.001203	0.003401	-0.591309	0.115723	-0.456787	0.070635	-0.245002	0.128126	-0.958420	-18.303136	-26.841888	-167.167017	-0.869969	-0.198179	0.451530	0.072614	-0.957189	-0.280208	0.487731	-0.210985	0.847115	0	0	0
57479	0	0	0	0	0	4.419341	-2.717910	8.350956	0.001770	0.002448	0.003614	-0.595215	0.105469	-0.461426	0.070631	-0.244996	0.128120	-0.958422	-18.302115	-26.841367	-167.167935	-0.869976	-0.198166	0.451522	0.072610	-0.957193	-0.280194	0.487719	-0.210977	0.847124	0	0	0
57480	0	0	0	0	0	4.428552	-2.740254	8.349445	0.002567	0.003773	0.001766	-0.590576	0.101807	-0.449951	0.070618	-0.244986	0.128109	-0.958427	-18.300169	-26.840589	-167.170151	-0.869990	-0.198133	0.451510	0.072593	-0.957202	-0.280167	0.487697	-0.210966	0.847139	0	0	0
57481	0	0	0	0	0	4.419933	-2.719123	8.375657	0.002201	0.000333	0.003571	-0.592529	0.109131	-0.460449	0.070612	-0.244991	0.128100	-0.958428	-18.298940	-26.841311	-167.171000	-0.869987	-0.198119	0.451521	0.072586	-0.957209	-0.280147	0.487702	-0.210950	0.847140	0	0	0
57482	0	0	0	0	0	4.450600	-2.730589	8.349134	0.002245	0.000282	0.005398	-0.594238	0.113281	-0.448730	0.070618	-0.244995	0.128094	-0.958427	-18.298496	-26.841778	-167.170298	-0.869981	-0.198129	0.451528	0.072600	-0.957210	-0.280140	0.487711	-0.210935	0.847139	0	0	0
57483	0	0	0	0	0	4.427864	-2.740077	8.349868	0.006041	0.003267	0.005273	-0.592041	0.115967	-0.458008	0.070626	-0.244983	0.128070	-0.958433	-18.295426	-26.840583	-167.170329	-0.869990	-0.198131	0.451510	0.072631	-0.957220	-0.280097	0.487690	-0.210888	0.847163	0	0	0
57484	0	0	0	0	0	4.426472	-2.738738	8.325634	-0.000710	-0.001427	0.005503	-0.596680	0.113037	-0.457275	0.070630	-0.244997	0.128078	-0.958428	-18.296859	-26.841962	-167.169219	-0.869976	-0.198145	0.451531	0.072631	-0.957215	-0.280115	0.487716	-0.210898	0.847145	0	0	0
57485	0	0	0	0	0	4.435971	-2.761337	8.323887	0.000044	-0.000051	0.001828	-0.596680	0.105713	-0.463623	0.070617	-0.245005	0.128077	-0.958427	-18.296627	-26.843142	-167.170583	-0.869972	-0.198122	0.451549	0.072604	-0.957219	-0.280109	0.487727	-0.210902	0.847138	0	0	0
57486	0	0	0	0	0	4.426261	-2.738980	8.325666	0.004446	0.000616	0.008969	-0.602051	0.114990	-0.454834	0.070643	-0.245005	0.128065	-0.958427	-18.295875	-26.842786	-167.167771	-0.869965	-0.198166	0.451544	0.072659	-0.957218	-0.280098	0.487732	-0.210867	0.847144	0	0	0
57487	0	0	0	0	0	4.449507	-2.730742	8.349666	0.001295	0.004613	0.001830	-0.591064	0.113281	-0.454102	0.070627	-0.244990	0.128060	-0.958432	-18.294414	-26.841487	-167.170317	-0.869983	-0.198129	0.451524	0.072635	-0.957225	-0.280080	0.487702	-0.210868	0.847161	0	0	0
57488	0	0	0	0	0	4.417194	-2.717861	8.352108	0.003042	0.001608	0.003551	-0.598877	0.106445	-0.448242	0.070624	-0.244989	0.128049	-0.958434	-18.292884	-26.841566	-167.171009	-0.869985	-0.198119	0.451525	0.072636	-0.957231	-0.280057	0.487698	-0.210848	0.847168	0	0	0
57489	0	0	0	0	0	4.418071	-2.719210	8.376611	0.001814	0.002397	0.005442	-0.594482	0.110596	-0.452148	0.070628	-0.244983	0.128045	-0.958436	-18.292356	-26.840892	-167.170778	-0.869990	-0.198123	0.451514	0.072648	-0.957232	-0.280051	0.487689	-0.210840	0.847175	0	0	0
57490	0	0	0	0	0	4.440220	-2.709745	8.376185	0.000972	0.001122	0.005463	-0.597656	0.115234	-0.458984	0.070633	-0.244984	0.128045	-0.958435	-18.292583	-26.840891	-167.170205	-0.869988	-0.198132	0.451514	0.072656	-0.957231	-0.280054	0.487691	-0.210839	0.847174	0	0	0
57491	0	0	0	0	0	4.425922	-2.740515	8.350754	0.000929	0.001173	0.003635	-0.585938	0.113281	-0.455811	0.070629	-0.244985	0.128043	-0.958436	-18.292211	-26.841140	-167.170763	-0.869988	-0.198123	0.451518	0.072648	-0.957233	-0.280048	0.487692	-0.210837	0.847174	0	0	0
57492	0	0	0	0	0	4.437458	-2.707157	8.327680	0.003042	0.001607	0.003551	-0.596191	0.101563	-0.455322	0.070626	-0.244984	0.128032	-0.958438	-18.290681	-26.841218	-167.171454	-0.869989	-0.198113	0.451520	0.072649	-0.957240	-0.280026	0.487689	-0.210817	0.847181	0	0	0
57493	0	0	0	0	0	4.445595	-2.728364	8.301705	0.000218	-0.000253	0.009139	-0.595947	0.112061	-0.457520	0.070646	-0.244988	0.128039	-0.958434	-18.292253	-26.841219	-167.168593	-0.869979	-0.198156	0.451520	0.072684	-0.957230	-0.280049	0.487702	-0.210818	0.847173	0	0	0
57494	0	0	0	0	0	4.447853	-2.731320	8.350358	0.000518	-0.002216	0.003612	-0.608887	0.108154	-0.454834	0.070643	-0.245007	0.128038	-0.958430	-18.292533	-26.843367	-167.168476	-0.869963	-0.198154	0.451553	0.072673	-0.957231	-0.280048	0.487733	-0.210815	0.847156	0	0	0
57495	0	0	0	0	0	4.414540	-2.717425	8.328249	-0.001529	0.002752	0.007419	-0.600830	0.114502	-0.449951	0.070652	-0.244999	0.128053	-0.958429	-18.294414	-26.842159	-167.167216	-0.869967	-0.198175	0.451534	0.072684	-0.957222	-0.280078	0.487723	-0.210840	0.847156	0	0	0
57496	0	0	0	0	0	4.424934	-2.741550	8.350938	-0.001185	0.000739	0.003719	-0.601074	0.114746	-0.452637	0.070645	-0.245004	0.128062	-0.958427	-18.295431	-26.842680	-167.167630	-0.869965	-0.198168	0.451542	0.072666	-0.957219	-0.280092	0.487730	-0.210859	0.847147	0	0	0
57497	0	0	0	0	0	4.455482	-2.753337	8.324387	-0.000256	0.001912	0.007355	-0.597412	0.114990	-0.452637	0.070658	-0.245000	0.128070	-0.958426	-18.296755	-26.841972	-167.165951	-0.869965	-0.198195	0.451531	0.072686	-0.957211	-0.280113	0.487728	-0.210869	0.847146	0	0	0
57498	0	0	0	0	0	4.414773	-2.719803	8.352756	-0.001572	0.002803	0.005591	-0.595947	0.113037	-0.458984	0.070658	-0.244994	0.128084	-0.958426	-18.298321	-26.841033	-167.165639	-0.869971	-0.198201	0.451517	0.072682	-0.957204	-0.280139	0.487717	-0.210895	0.847145	0	0	0
57499	0	0	0	0	0	4.432418	-2.763548	8.325047	0.000087	-0.000101	0.003656	-0.596924	0.110107	-0.460449	0.070654	-0.245002	0.128085	-0.958424	-18.298573	-26.841967	-167.165887	-0.869964	-0.198196	0.451531	0.072672	-0.957204	-0.280140	0.487730	-0.210899	0.847137	0	0	0
57500	0	0	0	0	0	4.411998	-2.717598	8.304134	0.001060	0.001021	0.009120	-0.595215	0.106689	-0.457520	0.070676	-0.245000	0.128090	-0.958422	-18.299765	-26.841363	-167.163064	-0.869959	-0.198240	0.451522	0.072712	-0.957196	-0.280159	0.487733	-0.210896	0.847136	0	0	0
57501	0	0	0	0	0	4.446019	-2.733366	8.350665	0.002288	0.000231	0.007228	-0.598145	0.103271	-0.458740	0.070690	-0.245003	0.128085	-0.958421	-18.299581	-26.841446	-167.161503	-0.869953	-0.198263	0.451523	0.072739	-0.957195	-0.280157	0.487740	-0.210880	0.847136	0	0	0
57502	0	0	0	0	0	4.412578	-2.719312	8.328673	-0.000817	0.004179	0.001915	-0.593750	0.115479	-0.449951	0.070673	-0.244992	0.128091	-0.958424	-18.299578	-26.840421	-167.163710	-0.869969	-0.198232	0.451507	0.072707	-0.957196	-0.280159	0.487717	-0.210902	0.847144	0	0	0
57503	0	0	0	0	0	4.421787	-2.741871	8.327092	0.002288	0.000231	0.007229	-0.591064	0.120605	-0.449707	0.070687	-0.244995	0.128086	-0.958423	-18.299440	-26.840568	-167.162030	-0.869962	-0.198257	0.451509	0.072735	-0.957195	-0.280157	0.487725	-0.210885	0.847143	0	0	0
57504	0	0	0	0	0	4.434553	-2.709932	8.328325	0.002201	0.000332	0.003572	-0.597412	0.107178	-0.455566	0.070684	-0.245000	0.128078	-0.958423	-18.298514	-26.841336	-167.162451	-0.869957	-0.198249	0.451521	0.072733	-0.957200	-0.280141	0.487734	-0.210870	0.847142	0	0	0
57505	0	0	0	0	0	4.443902	-2.732510	8.326664	-0.001142	0.000689	0.005548	-0.591553	0.114990	-0.460449	0.070688	-0.245003	0.128088	-0.958421	-18.299933	-26.841518	-167.161646	-0.869953	-0.198261	0.451524	0.072733	-0.957193	-0.280162	0.487741	-0.210887	0.847134	0	0	0
57506	0	0	0	0	0	4.444902	-2.734133	8.351009	0.001446	-0.001043	0.007249	-0.603027	0.112793	-0.450439	0.070703	-0.245013	0.128088	-0.958417	-18.300577	-26.842374	-167.159549	-0.869939	-0.198291	0.451538	0.072759	-0.957189	-0.280169	0.487762	-0.210877	0.847124	0	0	0
57507	0	0	0	0	0	4.464876	-2.722134	8.301768	-0.001141	0.000689	0.005548	-0.590820	0.116943	-0.454834	0.070705	-0.245016	0.128098	-0.958415	-18.301980	-26.842551	-167.158807	-0.869935	-0.198302	0.451540	0.072758	-0.957183	-0.280189	0.487769	-0.210893	0.847116	0	0	0
57508	0	0	0	0	0	4.423221	-2.745575	8.375931	0.000972	0.001122	0.005465	-0.595703	0.111816	-0.458252	0.070710	-0.245017	0.128098	-0.958414	-18.302207	-26.842550	-167.158234	-0.869933	-0.198311	0.451540	0.072766	-0.957182	-0.280193	0.487771	-0.210892	0.847115	0	0	0
57509	0	0	0	0	0	4.420710	-2.743067	8.327270	0.000130	-0.000152	0.005485	-0.599609	0.114990	-0.449463	0.070715	-0.245023	0.128102	-0.958412	-18.302941	-26.843128	-167.157338	-0.869926	-0.198324	0.451549	0.072772	-0.957179	-0.280202	0.487784	-0.210895	0.847107	0	0	0
57510	0	0	0	0	0	4.434634	-2.712742	8.352773	0.000217	-0.000253	0.009142	-0.601807	0.112549	-0.455322	0.070737	-0.245029	0.128110	-0.958408	-18.304738	-26.843213	-167.154246	-0.869914	-0.198370	0.451551	0.072808	-0.957168	-0.280228	0.487799	-0.210898	0.847097	0	0	0
57511	0	0	0	0	0	4.443805	-2.735474	8.351154	-0.000773	0.004128	0.003744	-0.591797	0.113037	-0.454590	0.070729	-0.245017	0.128117	-0.958410	-18.305133	-26.841933	-167.155282	-0.869928	-0.198357	0.451531	0.072793	-0.957167	-0.280237	0.487777	-0.210918	0.847105	0	0	0
57512	0	0	0	0	0	4.409208	-2.720178	8.304770	0.000174	-0.000203	0.007314	-0.594482	0.110596	-0.450928	0.070742	-0.245023	0.128124	-0.958407	-18.306447	-26.842319	-167.153314	-0.869918	-0.198386	0.451537	0.072813	-0.957160	-0.280256	0.487792	-0.210922	0.847096	0	0	0
57513	0	0	0	0	0	4.420746	-2.745649	8.351809	-0.001571	0.002803	0.005593	-0.595215	0.105957	-0.449219	0.070743	-0.245016	0.128136	-0.958407	-18.307884	-26.841337	-167.153015	-0.869925	-0.198392	0.451521	0.072810	-0.957153	-0.280280	0.487780	-0.210947	0.847096	0	0	0
57514	0	0	0	0	0	4.450129	-2.756115	8.300915	0.000130	-0.000152	0.005486	-0.594727	0.108887	-0.458740	0.070747	-0.245024	0.128140	-0.958404	-18.308715	-26.842025	-167.152172	-0.869916	-0.198404	0.451532	0.072814	-0.957150	-0.280290	0.487794	-0.210951	0.847087	0	0	0
57515	0	0	0	0	0	4.409685	-2.722408	8.329193	0.000130	-0.000152	0.005486	-0.594482	0.115967	-0.445801	0.070750	-0.245030	0.128143	-0.958402	-18.309326	-26.842695	-167.151570	-0.869909	-0.198412	0.451543	0.072816	-0.957147	-0.280298	0.487807	-0.210954	0.847079	0	0	0
57516	0	0	0	0	0	4.442614	-2.736826	8.351344	0.000972	0.001122	0.005466	-0.595459	0.111084	-0.457031	0.070754	-0.245031	0.128144	-0.958401	-18.309553	-26.842693	-167.150996	-0.869907	-0.198421	0.451543	0.072824	-0.957146	-0.280301	0.487810	-0.210953	0.847078	0	0	0
57517	0	0	0	0	0	4.410464	-2.724152	8.353615	0.000130	-0.000152	0.005486	-0.595459	0.108398	-0.457520	0.070759	-0.245038	0.128147	-0.958398	-18.310297	-26.843371	-167.150077	-0.869899	-0.198433	0.451553	0.072829	-0.957143	-0.280310	0.487824	-0.210955	0.847069	0	0	0
57518	0	0	0	0	0	4.442358	-2.737147	8.351375	0.002674	-0.001834	0.005359	-0.593750	0.116699	-0.455322	0.070767	-0.245053	0.128139	-0.958395	-18.309789	-26.844996	-167.148972	-0.869883	-0.198447	0.451578	0.072844	-0.957145	-0.280299	0.487850	-0.210932	0.847059	0	0	0
57519	0	0	0	0	0	4.431572	-2.713472	8.328759	-0.000343	0.002013	0.003701	-0.592285	0.107666	-0.457031	0.070761	-0.245050	0.128143	-0.958396	-18.310068	-26.844742	-167.149700	-0.869887	-0.198437	0.451574	0.072831	-0.957145	-0.280303	0.487844	-0.210944	0.847060	0	0	0
57520	0	0	0	0	0	4.418476	-2.745554	8.327636	0.002674	-0.001834	0.005359	-0.598389	0.108154	-0.459229	0.070769	-0.245064	0.128134	-0.958393	-18.309560	-26.846368	-167.148595	-0.869871	-0.198451	0.451600	0.072846	-0.957147	-0.280292	0.487871	-0.210920	0.847050	0	0	0
57521	0	0	0	0	0	4.408862	-2.723214	8.329366	0.000973	0.001122	0.005466	-0.599854	0.102051	-0.456055	0.070771	-0.245064	0.128134	-0.958393	-18.309553	-26.846288	-167.148306	-0.869870	-0.198455	0.451598	0.072851	-0.957146	-0.280292	0.487871	-0.210918	0.847051	0	0	0
57522	0	0	0	0	0	4.418143	-2.745876	8.327706	0.000174	-0.000203	0.007315	-0.598633	0.104004	-0.445801	0.070784	-0.245070	0.128140	-0.958389	-18.310868	-26.846674	-167.146338	-0.869861	-0.198484	0.451605	0.072871	-0.957139	-0.280310	0.487886	-0.210922	0.847042	0	0	0
57523	0	0	0	0	0	4.441520	-2.737840	8.351594	0.001772	0.002446	0.003617	-0.597412	0.114746	-0.460938	0.070777	-0.245066	0.128134	-0.958392	-18.309722	-26.846384	-167.147570	-0.869867	-0.198466	0.451600	0.072862	-0.957145	-0.280294	0.487876	-0.210914	0.847049	0	0	0
57524	0	0	0	0	0	4.417515	-2.746180	8.327939	0.000587	0.003186	0.007339	-0.604004	0.111572	-0.449463	0.070788	-0.245055	0.128139	-0.958393	-18.310497	-26.844922	-167.146271	-0.869874	-0.198488	0.451577	0.072884	-0.957139	-0.280309	0.487860	-0.210921	0.847056	0	0	0
57525	0	0	0	0	0	4.407683	-2.723952	8.329748	0.002288	0.000230	0.007232	-0.595215	0.117920	-0.459961	0.070803	-0.245059	0.128134	-0.958392	-18.310429	-26.845090	-167.144463	-0.869866	-0.198516	0.451580	0.072914	-0.957137	-0.280308	0.487869	-0.210904	0.847056	0	0	0
57526	0	0	0	0	0	4.439512	-2.736813	8.327592	0.002114	0.000432	-0.000084	-0.600098	0.116943	-0.459961	0.070783	-0.245066	0.128123	-0.958393	-18.308537	-26.846462	-167.147133	-0.869865	-0.198473	0.451601	0.072879	-0.957149	-0.280277	0.487877	-0.210891	0.847055	0	0	0
57527	0	0	0	0	0	4.416803	-2.746276	8.328285	0.002658	0.003669	0.005426	-0.593994	0.105713	-0.455566	0.070789	-0.245053	0.128115	-0.958397	-18.307501	-26.844955	-167.146982	-0.869876	-0.198478	0.451578	0.072897	-0.957151	-0.280265	0.487854	-0.210877	0.847071	0	0	0
57528	0	0	0	0	0	4.440074	-2.738173	8.352254	0.000973	0.001122	0.005467	-0.595459	0.113281	-0.448486	0.070793	-0.245054	0.128116	-0.958396	-18.307728	-26.844953	-167.146408	-0.869874	-0.198486	0.451578	0.072905	-0.957149	-0.280268	0.487857	-0.210876	0.847070	0	0	0
57529	0	0	0	0	0	4.429227	-2.714499	8.329672	0.002244	0.000280	0.005403	-0.596680	0.108887	-0.456055	0.070799	-0.245058	0.128109	-0.958396	-18.307119	-26.845415	-167.145812	-0.869868	-0.198495	0.451585	0.072918	-0.957151	-0.280258	0.487865	-0.210859	0.847069	0	0	0
57530	0	0	0	0	0	4.440836	-2.739697	8.376754	0.000929	0.001172	0.003638	-0.596924	0.111816	-0.462891	0.070794	-0.245060	0.128108	-0.958396	-18.306863	-26.845715	-167.146363	-0.869868	-0.198486	0.451590	0.072909	-0.957153	-0.280254	0.487867	-0.210859	0.847068	0	0	0
57531	0	0	0	0	0	4.428771	-2.714654	8.329863	0.001815	0.002395	0.005447	-0.605957	0.116211	-0.453369	0.070797	-0.245053	0.128104	-0.958398	-18.306296	-26.844928	-167.146251	-0.869874	-0.198489	0.451577	0.072920	-0.957154	-0.280247	0.487855	-0.210851	0.847077	0	0	0
57532	0	0	0	0	0	4.460473	-2.727598	8.327753	0.000886	0.001223	0.001809	-0.591309	0.119141	-0.457520	0.070784	-0.245056	0.128101	-0.958398	-18.305556	-26.845530	-167.147927	-0.869875	-0.198462	0.451587	0.072895	-0.957160	-0.280235	0.487857	-0.210851	0.847076	0	0	0
57533	0	0	0	0	0	4.415241	-2.746798	8.328941	0.001902	0.002294	0.009105	-0.597168	0.109375	-0.456787	0.070808	-0.245048	0.128101	-0.958399	-18.306122	-26.844188	-167.145181	-0.869876	-0.198506	0.451566	0.072943	-0.957153	-0.280246	0.487848	-0.210841	0.847083	0	0	0
57534	0	0	0	0	0	4.438395	-2.738886	8.352912	-0.000728	0.004078	0.005574	-0.594971	0.107910	-0.453125	0.070809	-0.245035	0.128111	-0.958401	-18.307083	-26.842559	-167.145137	-0.869888	-0.198510	0.451540	0.072943	-0.957147	-0.280265	0.487826	-0.210862	0.847091	0	0	0
57535	0	0	0	0	0	4.436964	-2.737755	8.328640	0.001401	-0.000993	0.005424	-0.593994	0.111084	-0.455566	0.070814	-0.245045	0.128108	-0.958398	-18.307046	-26.843687	-167.144364	-0.869877	-0.198520	0.451558	0.072951	-0.957148	-0.280261	0.487845	-0.210851	0.847083	0	0	0
57536	0	0	0	0	0	4.414422	-2.747298	8.329210	0.002157	0.000381	0.001746	-0.599609	0.107910	-0.454834	0.070802	-0.245051	0.128098	-0.958399	-18.305637	-26.844758	-167.145909	-0.869874	-0.198494	0.451575	0.072932	-0.957156	-0.280238	0.487853	-0.210837	0.847081	0	0	0
57537	0	0	0	0	0	4.404789	-2.724763	8.331014	0.003043	0.001604	0.003555	-0.600342	0.116455	-0.451416	0.070798	-0.245050	0.128085	-0.958401	-18.303924	-26.844811	-167.146765	-0.869876	-0.198481	0.451575	0.072932	-0.957163	-0.280212	0.487848	-0.210816	0.847089	0	0	0
57538	0	0	0	0	0	4.458898	-2.728277	8.328374	-0.001570	0.002805	0.005594	-0.596924	0.109863	-0.458740	0.070799	-0.245043	0.128099	-0.958401	-18.305490	-26.843871	-167.146452	-0.869882	-0.198488	0.451561	0.072928	-0.957156	-0.280238	0.487838	-0.210842	0.847089	0	0	0
57539	0	0	0	0	0	4.436054	-2.738171	8.328988	-0.000256	0.001913	0.007360	-0.593750	0.113525	-0.455322	0.070811	-0.245039	0.128107	-0.958400	-18.306760	-26.843076	-167.144890	-0.869883	-0.198513	0.451548	0.072947	-0.957149	-0.280259	0.487834	-0.210853	0.847089	0	0	0
57540	0	0	0	0	0	4.404961	-2.726735	8.355676	0.003043	0.001604	0.003555	-0.594482	0.115967	-0.455078	0.070808	-0.245038	0.128096	-0.958402	-18.305231	-26.843157	-167.145578	-0.869885	-0.198502	0.451550	0.072949	-0.957155	-0.280236	0.487831	-0.210833	0.847095	0	0	0
57541	0	0	0	0	0	4.412996	-2.747822	8.329793	0.001815	0.002395	0.005448	-0.594238	0.105957	-0.458496	0.070814	-0.245032	0.128092	-0.958403	-18.304771	-26.842379	-167.145188	-0.869890	-0.198509	0.451538	0.072963	-0.957156	-0.280231	0.487820	-0.210825	0.847104	0	0	0
57542	0	0	0	0	0	4.435191	-2.738277	8.329413	0.004358	0.000712	0.005322	-0.590088	0.104736	-0.458740	0.070822	-0.245034	0.128076	-0.958405	-18.303056	-26.842627	-167.144620	-0.869886	-0.198518	0.451541	0.072986	-0.957162	-0.280205	0.487824	-0.210790	0.847110	0	0	0
57543	0	0	0	0	0	4.426637	-2.717086	8.355603	0.001729	0.002496	0.001789	-0.603760	0.115967	-0.446045	0.070806	-0.245028	0.128068	-0.958408	-18.301428	-26.842425	-167.146949	-0.869895	-0.198483	0.451538	0.072962	-0.957170	-0.280181	0.487810	-0.210784	0.847120	0	0	0
57544	0	0	0	0	0	4.434805	-2.738082	8.329683	0.003472	-0.000511	0.003512	-0.599609	0.107422	-0.457764	0.070805	-0.245037	0.128054	-0.958408	-18.299833	-26.843663	-167.147237	-0.869887	-0.198476	0.451558	0.072964	-0.957178	-0.280155	0.487825	-0.210755	0.847118	0	0	0
57545	0	0	0	0	0	4.424040	-2.714313	8.307091	0.000972	0.001122	0.005468	-0.594238	0.117188	-0.450928	0.070809	-0.245039	0.128053	-0.958407	-18.299944	-26.843733	-167.146701	-0.869884	-0.198484	0.451559	0.072972	-0.957177	-0.280156	0.487828	-0.210752	0.847117	0	0	0
57546	0	0	0	0	0	4.420319	-2.768784	8.304332	0.002200	0.000331	0.003576	-0.592529	0.116943	-0.449707	0.070806	-0.245044	0.128045	-0.958407	-18.299018	-26.844503	-167.147120	-0.869880	-0.198476	0.451571	0.072969	-0.957182	-0.280141	0.487836	-0.210738	0.847116	0	0	0
57547	0	0	0	0	0	4.424849	-2.715625	8.331631	0.003001	0.001654	0.001726	-0.598389	0.113525	-0.448730	0.070797	-0.245044	0.128031	-0.958410	-18.296997	-26.844849	-167.148660	-0.869883	-0.198452	0.451576	0.072959	-0.957191	-0.280110	0.487833	-0.210716	0.847123	0	0	0
57548	0	0	0	0	0	4.433991	-2.738117	8.330104	0.000587	0.003187	0.007341	-0.597656	0.110107	-0.450439	0.070809	-0.245034	0.128037	-0.958411	-18.297773	-26.843387	-167.147359	-0.869889	-0.198475	0.451553	0.072981	-0.957185	-0.280125	0.487818	-0.210723	0.847130	0	0	0
57549	0	0	0	0	0	4.425375	-2.717143	8.356253	0.002200	0.000330	0.003576	-0.590820	0.112549	-0.460205	0.070806	-0.245039	0.128028	-0.958411	-18.296742	-26.844215	-167.147760	-0.869884	-0.198467	0.451566	0.072979	-0.957191	-0.280108	0.487827	-0.210706	0.847129	0	0	0
57550	0	0	0	0	0	4.424125	-2.715873	8.331934	0.002757	-0.001936	0.009022	-0.598633	0.109863	-0.456055	0.070832	-0.245052	0.128023	-0.958406	-18.297204	-26.845237	-167.144401	-0.869865	-0.198516	0.451582	0.073027	-0.957186	-0.280112	0.487855	-0.210682	0.847119	0	0	0
57551	0	0	0	0	0	4.434528	-2.739763	8.354678	0.000459	0.003338	0.001853	-0.598877	0.112793	-0.458740	0.070816	-0.245043	0.128022	-0.958410	-18.296361	-26.844571	-167.146604	-0.869878	-0.198484	0.451572	0.073000	-0.957191	-0.280101	0.487836	-0.210689	0.847128	0	0	0
57552	0	0	0	0	0	4.433079	-2.738435	8.330485	0.003087	0.001553	0.005386	-0.591064	0.116699	-0.458740	0.070823	-0.245041	0.128013	-0.958411	-18.295315	-26.844350	-167.146165	-0.869878	-0.198491	0.451568	0.073018	-0.957194	-0.280086	0.487833	-0.210668	0.847135	0	0	0
57553	0	0	0	0	0	4.425617	-2.718669	8.381021	0.001773	0.002446	0.003619	-0.598389	0.108643	-0.454590	0.070819	-0.245036	0.128007	-0.958414	-18.294354	-26.843829	-167.146959	-0.869885	-0.198480	0.451560	0.073015	-0.957198	-0.280073	0.487821	-0.210661	0.847144	0	0	0
57554	0	0	0	0	0	4.432510	-2.738648	8.330718	-0.001099	0.000641	0.007382	-0.592773	0.107178	-0.451172	0.070830	-0.245038	0.128020	-0.958410	-18.296339	-26.843745	-167.145120	-0.869879	-0.198508	0.451559	0.073029	-0.957188	-0.280103	0.487829	-0.210679	0.847135	0	0	0
57555	0	0	0	0	0	4.422832	-2.716568	8.332394	0.000172	-0.000201	0.007319	-0.598389	0.109375	-0.448730	0.070842	-0.245044	0.128025	-0.958407	-18.297453	-26.844129	-167.143349	-0.869870	-0.198534	0.451565	0.073047	-0.957182	-0.280118	0.487843	-0.210681	0.847126	0	0	0
57556	0	0	0	0	0	4.455694	-2.731207	8.354530	-0.001099	0.000641	0.007382	-0.592529	0.112305	-0.457275	0.070853	-0.245047	0.128037	-0.958404	-18.299438	-26.844044	-167.141510	-0.869864	-0.198562	0.451564	0.073062	-0.957172	-0.280148	0.487851	-0.210699	0.847117	0	0	0
57557	0	0	0	0	0	4.410438	-2.750353	8.355710	0.003887	0.002876	0.003537	-0.593994	0.111084	-0.457031	0.070850	-0.245039	0.128021	-0.958408	-18.297158	-26.843416	-167.142534	-0.869872	-0.198548	0.451554	0.073067	-0.957181	-0.280116	0.487835	-0.210671	0.847133	0	0	0
57558	0	0	0	0	0	4.431392	-2.739413	8.331061	0.003973	0.002775	0.007197	-0.592529	0.108154	-0.453369	0.070866	-0.245029	0.128010	-0.958411	-18.295991	-26.842204	-167.141238	-0.869877	-0.198570	0.451535	0.073104	-0.957183	-0.280102	0.487821	-0.210645	0.847148	0	0	0
57559	0	0	0	0	0	4.441734	-2.763142	8.353888	0.002157	0.000380	0.001747	-0.595459	0.110840	-0.453613	0.070853	-0.245035	0.127999	-0.958412	-18.294400	-26.843201	-167.142928	-0.869875	-0.198542	0.451550	0.073085	-0.957192	-0.280076	0.487827	-0.210629	0.847148	0	0	0
57560	0	0	0	0	0	4.423777	-2.719540	8.381709	0.001773	0.002445	0.003620	-0.590088	0.101563	-0.456055	0.070849	-0.245030	0.127994	-0.958414	-18.293539	-26.842812	-167.143746	-0.869881	-0.198531	0.451544	0.073080	-0.957196	-0.280064	0.487818	-0.210623	0.847155	0	0	0
57561	0	0	0	0	0	4.422405	-2.718105	8.357512	0.004315	0.000761	0.003494	-0.594238	0.106934	-0.450439	0.070846	-0.245032	0.127975	-0.958417	-18.291095	-26.843304	-167.144593	-0.869880	-0.198517	0.451552	0.073085	-0.957206	-0.280026	0.487818	-0.210588	0.847163	0	0	0
57562	0	0	0	0	0	4.399776	-2.727623	8.358117	0.000128	-0.000151	0.005490	-0.594727	0.118896	-0.458008	0.070851	-0.245039	0.127980	-0.958414	-18.291927	-26.843991	-167.143748	-0.869872	-0.198528	0.451563	0.073089	-0.957203	-0.280037	0.487832	-0.210592	0.847154	0	0	0
57563	0	0	0	0	0	4.444684	-2.708714	8.357051	0.001314	-0.000893	0.001767	-0.598633	0.116699	-0.461914	0.070839	-0.245051	0.127972	-0.958413	-18.291015	-26.845689	-167.145000	-0.869863	-0.198506	0.451589	0.073067	-0.957210	-0.280019	0.487851	-0.210582	0.847146	0	0	0
57564	0	0	0	0	0	4.421014	-2.717095	8.333188	-0.000630	-0.001524	0.009170	-0.594971	0.113525	-0.464111	0.070861	-0.245063	0.127984	-0.958406	-18.293420	-26.846461	-167.141635	-0.869846	-0.198556	0.451601	0.073099	-0.957197	-0.280053	0.487878	-0.210591	0.847128	0	0	0
57565	0	0	0	0	0	4.444448	-2.709126	8.357043	0.001730	0.002495	0.001790	-0.596680	0.110596	-0.454834	0.070848	-0.245057	0.127977	-0.958410	-18.291962	-26.846197	-167.143605	-0.869855	-0.198527	0.451597	0.073080	-0.957205	-0.280032	0.487865	-0.210585	0.847138	0	0	0
57566	0	0	0	0	0	4.431215	-2.741161	8.355977	0.000128	-0.000150	0.005490	-0.589844	0.111084	-0.449219	0.070853	-0.245065	0.127981	-0.958407	-18.292795	-26.846884	-167.142760	-0.869847	-0.198538	0.451608	0.073084	-0.957202	-0.280043	0.487879	-0.210589	0.847128	0	0	0
57567	0	0	0	0	0	4.429776	-2.740184	8.331667	-0.002840	0.003650	0.005659	-0.586182	0.111816	-0.457764	0.070852	-0.245054	0.128000	-0.958407	-18.294890	-26.845442	-167.142613	-0.869857	-0.198543	0.451585	0.073075	-0.957192	-0.280077	0.487861	-0.210627	0.847129	0	0	0
57568	0	0	0	0	0	4.422263	-2.720839	8.382087	-0.002456	0.001585	0.003786	-0.596436	0.107422	-0.460938	0.070843	-0.245055	0.128015	-0.958406	-18.296576	-26.845491	-167.143157	-0.869859	-0.198535	0.451586	0.073052	-0.957187	-0.280102	0.487862	-0.210660	0.847120	0	0	0
57569	0	0	0	0	0	4.429183	-2.741010	8.331711	-0.001100	0.000642	0.007384	-0.595947	0.114014	-0.452393	0.070854	-0.245056	0.128027	-0.958403	-18.298355	-26.845245	-167.141515	-0.869855	-0.198560	0.451582	0.073065	-0.957178	-0.280129	0.487867	-0.210677	0.847113	0	0	0
57570	0	0	0	0	0	4.428901	-2.741460	8.331713	-0.003727	0.002427	0.003849	-0.599854	0.114746	-0.451904	0.070844	-0.245053	0.128049	-0.958402	-18.300710	-26.844824	-167.142190	-0.869860	-0.198551	0.451576	0.073036	-0.957169	-0.280165	0.487861	-0.210723	0.847105	0	0	0
57571	0	0	0	0	0	4.420362	-2.720719	8.357742	-0.001185	0.000742	0.003723	-0.596436	0.114990	-0.447754	0.070838	-0.245058	0.128057	-0.958400	-18.301660	-26.845353	-167.142500	-0.869857	-0.198545	0.451584	0.073020	-0.957167	-0.280178	0.487869	-0.210740	0.847096	0	0	0
57572	0	0	0	0	0	4.437936	-2.764677	8.330000	-0.003257	0.000262	0.005636	-0.600830	0.119629	-0.459473	0.070839	-0.245064	0.128077	-0.958395	-18.304435	-26.845789	-167.141649	-0.869851	-0.198557	0.451591	0.073009	-0.957156	-0.280218	0.487882	-0.210778	0.847080	0	0	0
57573	0	0	0	0	0	4.442412	-2.712053	8.357176	-0.000256	0.001914	0.007364	-0.590088	0.117676	-0.450928	0.070852	-0.245060	0.128086	-0.958394	-18.305797	-26.844996	-167.139870	-0.869851	-0.198586	0.451578	0.073030	-0.957148	-0.280240	0.487879	-0.210788	0.847079	0	0	0
57574	0	0	0	0	0	4.417441	-2.719205	8.309003	-0.002029	-0.000530	0.003743	-0.596680	0.115479	-0.456787	0.070845	-0.245071	0.128098	-0.958390	-18.307419	-26.846203	-167.140013	-0.869842	-0.198581	0.451597	0.073008	-0.957144	-0.280261	0.487898	-0.210812	0.847062	0	0	0
57575	0	0	0	0	0	4.406377	-2.754168	8.356596	-0.002038	0.004973	0.003810	-0.593262	0.112793	-0.456055	0.070837	-0.245055	0.128112	-0.958393	-18.308524	-26.844319	-167.141037	-0.869860	-0.198569	0.451568	0.072991	-0.957139	-0.280282	0.487868	-0.210846	0.847071	0	0	0
57576	0	0	0	0	0	4.449821	-2.734112	8.331314	-0.000341	0.002015	0.003704	-0.603760	0.113037	-0.455566	0.070831	-0.245053	0.128117	-0.958393	-18.308937	-26.844149	-167.141718	-0.869864	-0.198559	0.451565	0.072977	-0.957138	-0.280288	0.487864	-0.210859	0.847070	0	0	0
57577	0	0	0	0	0	4.428176	-2.745175	8.356271	-0.000299	0.001964	0.005534	-0.593994	0.109863	-0.450195	0.070833	-0.245050	0.128123	-0.958393	-18.309709	-26.843646	-167.141314	-0.869866	-0.198566	0.451557	0.072979	-0.957134	-0.280301	0.487859	-0.210870	0.847070	0	0	0
57578	0	0	0	0	0	4.440938	-2.713463	8.357502	-0.000341	0.002015	0.003704	-0.591553	0.107422	-0.455078	0.070827	-0.245048	0.128129	-0.958393	-18.310122	-26.843476	-167.141995	-0.869870	-0.198556	0.451555	0.072965	-0.957133	-0.280307	0.487855	-0.210883	0.847069	0	0	0
57579	0	0	0	0	0	4.450080	-2.736151	8.355904	-0.000299	0.001964	0.005535	-0.597412	0.117676	-0.448242	0.070829	-0.245044	0.128135	-0.958393	-18.310824	-26.842970	-167.141715	-0.869873	-0.198561	0.451547	0.072966	-0.957130	-0.280319	0.487849	-0.210894	0.847069	0	0	0
57580	0	0	0	0	0	4.447473	-2.733534	8.307362	0.002575	0.003767	0.001771	-0.596680	0.114502	-0.457031	0.070816	-0.245034	0.128124	-0.958398	-18.308874	-26.842194	-167.143927	-0.869887	-0.198529	0.451535	0.072950	-0.957139	-0.280292	0.487827	-0.210883	0.847085	0	0	0
57581	0	0	0	0	0	4.417416	-2.723301	8.358459	0.001901	0.002293	0.009113	-0.592285	0.112549	-0.455078	0.070839	-0.245027	0.128124	-0.958399	-18.309423	-26.840882	-167.141201	-0.869887	-0.198573	0.451514	0.072997	-0.957132	-0.280303	0.487819	-0.210873	0.847092	0	0	0
57582	0	0	0	0	0	4.417206	-2.723301	8.358570	0.004741	-0.001357	0.003453	-0.601563	0.107910	-0.449463	0.070840	-0.245039	0.128104	-0.958398	-18.307162	-26.842591	-167.141355	-0.869875	-0.198567	0.451541	0.073005	-0.957142	-0.280266	0.487840	-0.210831	0.847090	0	0	0
57583	0	0	0	0	0	4.413742	-2.719163	8.285591	0.000887	0.001222	0.001811	-0.591797	0.119873	-0.448975	0.070826	-0.245042	0.128099	-0.958399	-18.306262	-26.843209	-167.143136	-0.869876	-0.198539	0.451551	0.072980	-0.957149	-0.280251	0.487842	-0.210829	0.847090	0	0	0
57584	0	0	0	0	0	4.460760	-2.702782	8.333398	0.005201	0.001980	0.005307	-0.597900	0.108887	-0.457031	0.070835	-0.245037	0.128080	-0.958402	-18.303943	-26.842769	-167.142832	-0.869878	-0.198544	0.451544	0.073007	-0.957156	-0.280218	0.487834	-0.210789	0.847105	0	0	0
57585	0	0	0	0	0	4.436809	-2.710872	8.309763	0.001816	0.002394	0.005453	-0.601318	0.107666	-0.450195	0.070840	-0.245031	0.128076	-0.958404	-18.303486	-26.842035	-167.142435	-0.869883	-0.198552	0.451532	0.073021	-0.957157	-0.280213	0.487824	-0.210781	0.847112	0	0	0
57586	0	0	0	0	0	4.471751	-2.727996	8.380776	0.001859	0.002344	0.007283	-0.597168	0.104980	-0.456787	0.070853	-0.245025	0.128075	-0.958405	-18.303593	-26.841041	-167.141000	-0.869885	-0.198575	0.451517	0.073049	-0.957153	-0.280217	0.487815	-0.210774	0.847119	0	0	0
57587	0	0	0	0	0	4.403975	-2.756557	8.382463	0.000929	0.001172	0.003642	-0.591553	0.114014	-0.447998	0.070847	-0.245026	0.128072	-0.958405	-18.303092	-26.841388	-167.141868	-0.869886	-0.198562	0.451522	0.073037	-0.957157	-0.280209	0.487816	-0.210771	0.847119	0	0	0
57588	0	0	0	0	0	4.425111	-2.745992	8.357626	-0.001101	0.000642	0.007386	-0.585693	0.108887	-0.458496	0.070858	-0.245029	0.128085	-0.958402	-18.305078	-26.841301	-167.140027	-0.869880	-0.198590	0.451521	0.073052	-0.957147	-0.280238	0.487824	-0.210789	0.847110	0	0	0
57589	0	0	0	0	0	4.425025	-2.746260	8.357583	0.000511	-0.002216	0.003618	-0.595947	0.112549	-0.449707	0.070855	-0.245046	0.128083	-0.958398	-18.305220	-26.843334	-167.139930	-0.869864	-0.198588	0.451552	0.073042	-0.957148	-0.280235	0.487854	-0.210784	0.847094	0	0	0
57590	0	0	0	0	0	4.389658	-2.729256	8.286758	0.004357	0.000707	0.005328	-0.597412	0.114014	-0.448242	0.070863	-0.245048	0.128068	-0.958399	-18.303507	-26.843583	-167.139357	-0.869860	-0.198596	0.451556	0.073065	-0.957154	-0.280209	0.487857	-0.210750	0.847101	0	0	0
57591	0	0	0	0	0	4.458044	-2.702076	8.309691	0.001732	0.002494	0.001792	-0.597900	0.107666	-0.452148	0.070851	-0.245044	0.128060	-0.958402	-18.302083	-26.843543	-167.141207	-0.869867	-0.198568	0.451556	0.073047	-0.957162	-0.280188	0.487848	-0.210742	0.847108	0	0	0
57592	0	0	0	0	0	4.444759	-2.734111	8.308624	-0.001185	0.000743	0.003724	-0.595215	0.110107	-0.448242	0.070844	-0.245049	0.128068	-0.958400	-18.303101	-26.844061	-167.141618	-0.869864	-0.198561	0.451564	0.073029	-0.957159	-0.280202	0.487856	-0.210761	0.847099	0	0	0
57593	0	0	0	0	0	4.437320	-2.714539	8.359074	0.001859	0.002344	0.007284	-0.594727	0.113281	-0.454590	0.070857	-0.245042	0.128066	-0.958401	-18.303033	-26.843115	-167.140316	-0.869867	-0.198582	0.451549	0.073055	-0.957157	-0.280203	0.487847	-0.210752	0.847107	0	0	0
57594	0	0	0	0	0	4.457878	-2.762394	8.404638	-0.001150	0.006196	0.005622	-0.588623	0.111816	-0.454346	0.070856	-0.245020	0.128079	-0.958405	-18.304056	-26.840325	-167.140671	-0.869890	-0.198582	0.451506	0.073054	-0.957150	-0.280225	0.487806	-0.210781	0.847122	0	0	0
57595	0	0	0	0	0	4.401827	-2.757751	8.383198	0.001816	0.002394	0.005454	-0.598389	0.116943	-0.454590	0.070861	-0.245013	0.128075	-0.958407	-18.303552	-26.839532	-167.140369	-0.869895	-0.198588	0.451493	0.073067	-0.957151	-0.280220	0.487795	-0.210773	0.847131	0	0	0
57596	0	0	0	0	0	4.391094	-2.734146	8.360552	-0.000718	-0.001423	0.005513	-0.596680	0.108887	-0.454590	0.070865	-0.245027	0.128083	-0.958402	-18.304991	-26.840907	-167.139254	-0.869880	-0.198602	0.451515	0.073067	-0.957146	-0.280238	0.487821	-0.210783	0.847113	0	0	0
57597	0	0	0	0	0	4.411319	-2.722293	8.311244	0.000595	-0.002316	0.007281	-0.594727	0.110352	-0.456787	0.070880	-0.245042	0.128086	-0.958397	-18.306128	-26.842419	-167.136901	-0.869861	-0.198635	0.451538	0.073089	-0.957140	-0.280251	0.487853	-0.210777	0.847097	0	0	0
57598	0	0	0	0	0	4.433792	-2.713002	8.310678	0.000042	-0.000050	0.001831	-0.592773	0.111816	-0.447754	0.070866	-0.245051	0.128086	-0.958395	-18.305993	-26.843709	-167.138307	-0.869855	-0.198612	0.451558	0.073061	-0.957144	-0.280246	0.487866	-0.210782	0.847088	0	0	0
57599	0	0	0	0	0	4.467790	-2.728835	8.357227	0.001014	0.001071	0.007305	-0.585693	0.104492	-0.463379	0.070880	-0.245051	0.128088	-0.958394	-18.306561	-26.843371	-167.136657	-0.869852	-0.198637	0.451553	0.073085	-0.957139	-0.280255	0.487868	-0.210779	0.847087	0	0	0
57600	0	0	0	0	0	4.411824	-2.724182	8.335744	0.001434	0.004459	0.007328	-0.598877	0.108887	-0.456787	0.070891	-0.245034	0.128089	-0.958397	-18.306732	-26.841218	-167.135621	-0.869865	-0.198657	0.451520	0.073111	-0.957135	-0.280263	0.487841	-0.210780	0.847103	0	0	0
57601	0	0	0	0	0	4.445415	-2.740170	8.382458	-0.001994	0.004924	0.005642	-0.596680	0.110107	-0.445801	0.070888	-0.245016	0.128105	-0.958400	-18.308078	-26.838964	-167.136092	-0.869884	-0.198653	0.451484	0.073103	-0.957128	-0.280288	0.487809	-0.210814	0.847113	0	0	0
57602	0	0	0	0	0	4.389523	-2.735740	8.360855	-0.001946	-0.000629	0.007407	-0.592529	0.108398	-0.456787	0.070899	-0.245025	0.128121	-0.958395	-18.310670	-26.839566	-167.133982	-0.869872	-0.198684	0.451494	0.073113	-0.957117	-0.280325	0.487828	-0.210837	0.847096	0	0	0
57603	0	0	0	0	0	4.411934	-2.726677	8.360254	-0.000718	-0.001423	0.005513	-0.595459	0.109375	-0.453613	0.070903	-0.245038	0.128128	-0.958391	-18.311934	-26.840944	-167.132992	-0.869858	-0.198697	0.451515	0.073112	-0.957112	-0.280340	0.487854	-0.210845	0.847079	0	0	0
57604	0	0	0	0	0	4.432083	-2.714956	8.310952	-0.003258	0.000265	0.005639	-0.604736	0.121826	-0.451660	0.070903	-0.245044	0.128149	-0.958386	-18.314709	-26.841378	-167.132140	-0.869852	-0.198709	0.451522	0.073101	-0.957101	-0.280380	0.487867	-0.210883	0.847062	0	0	0
57605	0	0	0	0	0	4.418788	-2.747207	8.309800	0.002284	0.000227	0.007243	-0.597412	0.114990	-0.455078	0.070919	-0.245048	0.128144	-0.958385	-18.314704	-26.841563	-167.130177	-0.869844	-0.198739	0.451525	0.073133	-0.957099	-0.280380	0.487876	-0.210865	0.847061	0	0	0
57606	0	0	0	0	0	4.465792	-2.731265	8.357501	-0.002413	0.001537	0.005619	-0.595947	0.112061	-0.449219	0.070920	-0.245048	0.128161	-0.958382	-18.316874	-26.841308	-167.129593	-0.869844	-0.198748	0.451521	0.073125	-0.957090	-0.280413	0.487878	-0.210897	0.847052	0	0	0
57607	0	0	0	0	0	4.421534	-2.751874	8.382971	0.000589	0.003187	0.007349	-0.589844	0.108398	-0.451172	0.070932	-0.245038	0.128166	-0.958383	-18.317555	-26.839837	-167.128241	-0.869850	-0.198771	0.451498	0.073149	-0.957084	-0.280426	0.487862	-0.210902	0.847060	0	0	0
57608	0	0	0	0	0	4.442505	-2.741267	8.358258	0.001817	0.002393	0.005455	-0.596680	0.104736	-0.461426	0.070937	-0.245032	0.128163	-0.958385	-18.317178	-26.839146	-167.127931	-0.869855	-0.198777	0.451487	0.073161	-0.957085	-0.280422	0.487853	-0.210896	0.847067	0	0	0
57609	0	0	0	0	0	4.411445	-2.729800	8.384873	-0.001143	0.000693	0.005557	-0.596191	0.109619	-0.451904	0.070937	-0.245034	0.128172	-0.958383	-18.318416	-26.839280	-167.127554	-0.869852	-0.198783	0.451489	0.073156	-0.957080	-0.280440	0.487858	-0.210913	0.847060	0	0	0
57610	0	0	0	0	0	4.397027	-2.760685	8.359370	-0.001186	0.000743	0.003726	-0.592285	0.122070	-0.459961	0.070930	-0.245039	0.128181	-0.958381	-18.319434	-26.839798	-167.127965	-0.869850	-0.198775	0.451497	0.073138	-0.957077	-0.280454	0.487865	-0.210931	0.847051	0	0	0
57611	0	0	0	0	0	4.422063	-2.695734	8.337278	0.000551	-0.002267	0.005451	-0.596436	0.102295	-0.458496	0.070938	-0.245055	0.128182	-0.958376	-18.320137	-26.841531	-167.126608	-0.869832	-0.198793	0.451524	0.073146	-0.957075	-0.280460	0.487896	-0.210926	0.847035	0	0	0
57612	0	0	0	0	0	4.440680	-2.740966	8.333939	-0.001568	0.002809	0.005601	-0.596680	0.112549	-0.465088	0.070938	-0.245049	0.128196	-0.958376	-18.321701	-26.840587	-167.126293	-0.869838	-0.198799	0.451510	0.073143	-0.957067	-0.280486	0.487886	-0.210952	0.847034	0	0	0
57613	0	0	0	0	0	4.429942	-2.717511	8.311258	-0.002031	-0.000528	0.003745	-0.594971	0.108398	-0.460449	0.070929	-0.245058	0.128207	-0.958373	-18.323047	-26.841664	-167.126839	-0.869831	-0.198789	0.451526	0.073117	-0.957064	-0.280503	0.487901	-0.210976	0.847019	0	0	0
57614	0	0	0	0	0	4.440247	-2.741666	8.333940	-0.000256	0.001915	0.007370	-0.602783	0.107422	-0.462891	0.070941	-0.245054	0.128216	-0.958372	-18.324428	-26.840888	-167.125265	-0.869832	-0.198814	0.451514	0.073135	-0.957056	-0.280525	0.487897	-0.210988	0.847018	0	0	0
57615	0	0	0	0	0	4.417426	-2.751387	8.334532	0.002326	0.000176	0.009076	-0.597168	0.110840	-0.448242	0.070962	-0.245055	0.128213	-0.958370	-18.324696	-26.840654	-167.122683	-0.869825	-0.198854	0.451511	0.073177	-0.957052	-0.280530	0.487904	-0.210971	0.847019	0	0	0
57616	0	0	0	0	0	4.406203	-2.786184	8.382198	0.000548	0.003237	0.005519	-0.592773	0.110840	-0.455811	0.070965	-0.245046	0.128216	-0.958372	-18.324986	-26.839492	-167.122504	-0.869833	-0.198859	0.451493	0.073183	-0.957049	-0.280537	0.487888	-0.210979	0.847026	0	0	0
57617	0	0	0	0	0	4.417929	-2.753015	8.359115	0.002199	0.000327	0.003581	-0.596436	0.113770	-0.451172	0.070962	-0.245051	0.128207	-0.958372	-18.323917	-26.840252	-167.122981	-0.869829	-0.198850	0.451504	0.073181	-0.957055	-0.280519	0.487896	-0.210962	0.847026	0	0	0
57618	0	0	0	0	0	4.442766	-2.687843	8.337220	0.002663	0.003664	0.005437	-0.587891	0.107178	-0.449707	0.070966	-0.245039	0.128201	-0.958376	-18.322934	-26.838872	-167.122938	-0.869839	-0.198853	0.451483	0.073197	-0.957057	-0.280508	0.487875	-0.210950	0.847041	0	0	0
57619	0	0	0	0	0	4.428175	-2.718510	8.311873	0.000972	0.001121	0.005476	-0.593750	0.115234	-0.448242	0.070971	-0.245039	0.128200	-0.958375	-18.323017	-26.838849	-167.122398	-0.869838	-0.198862	0.451483	0.073205	-0.957056	-0.280509	0.487877	-0.210947	0.847041	0	0	0
57620	0	0	0	0	0	4.414846	-2.750636	8.310760	-0.001186	0.000744	0.003726	-0.592529	0.110840	-0.449707	0.070964	-0.245044	0.128209	-0.958374	-18.324035	-26.839366	-167.122809	-0.869835	-0.198854	0.451491	0.073187	-0.957053	-0.280523	0.487884	-0.210966	0.847032	0	0	0
57621	0	0	0	0	0	4.438213	-2.742844	8.334636	-0.000256	0.001915	0.007371	-0.592529	0.109131	-0.460205	0.070977	-0.245040	0.128217	-0.958373	-18.325332	-26.838590	-167.121135	-0.869835	-0.198881	0.451479	0.073208	-0.957045	-0.280544	0.487880	-0.210976	0.847031	0	0	0
57622	0	0	0	0	0	4.415477	-2.752538	8.335185	0.002749	-0.001940	0.009034	-0.589844	0.103516	-0.459473	0.071002	-0.245053	0.128213	-0.958368	-18.325801	-26.839611	-167.117768	-0.869816	-0.198931	0.451495	0.073255	-0.957040	-0.280549	0.487908	-0.210951	0.847021	0	0	0
57623	0	0	0	0	0	4.407118	-2.731446	8.361237	0.000846	0.001271	-0.000019	-0.591553	0.115723	-0.448975	0.070978	-0.245054	0.128206	-0.958370	-18.324290	-26.840356	-167.120954	-0.869821	-0.198881	0.451506	0.073211	-0.957051	-0.280525	0.487905	-0.210951	0.847023	0	0	0
57624	0	0	0	0	0	4.437630	-2.743218	8.334823	0.000548	0.003237	0.005520	-0.596436	0.110107	-0.452148	0.070980	-0.245045	0.128210	-0.958372	-18.324581	-26.839194	-167.120775	-0.869829	-0.198886	0.451488	0.073217	-0.957048	-0.280532	0.487890	-0.210958	0.847030	0	0	0
57625	0	0	0	0	0	4.429148	-2.722200	8.360917	0.001353	-0.000945	0.003601	-0.594238	0.109375	-0.455566	0.070978	-0.245057	0.128204	-0.958370	-18.324169	-26.840641	-167.120855	-0.869819	-0.198882	0.451511	0.073212	-0.957051	-0.280522	0.487910	-0.210947	0.847022	0	0	0
57626	0	0	0	0	0	4.436055	-2.742038	8.310664	0.002663	0.003664	0.005438	-0.597656	0.116211	-0.457275	0.070983	-0.245045	0.128198	-0.958374	-18.323186	-26.839262	-167.120811	-0.869829	-0.198885	0.451489	0.073228	-0.957053	-0.280511	0.487889	-0.210935	0.847037	0	0	0
57627	0	0	0	0	0	4.417964	-2.698433	8.338578	0.002663	0.003664	0.005438	-0.595215	0.110840	-0.461670	0.070988	-0.245032	0.128190	-0.958377	-18.322074	-26.837805	-167.120813	-0.869840	-0.198887	0.451466	0.073244	-0.957056	-0.280498	0.487866	-0.210921	0.847053	0	0	0
57628	0	0	0	0	0	4.412850	-2.751518	8.311528	0.001353	-0.000945	0.003602	-0.592529	0.110596	-0.458008	0.070985	-0.245044	0.128186	-0.958375	-18.321756	-26.839263	-167.120959	-0.869829	-0.198883	0.451489	0.073238	-0.957059	-0.280490	0.487886	-0.210912	0.847044	0	0	0
57629	0	0	0	0	0	4.405475	-2.731854	8.361969	0.001901	0.002292	0.009122	-0.600586	0.111328	-0.448486	0.071006	-0.245035	0.128186	-0.958376	-18.322157	-26.837822	-167.118579	-0.869832	-0.198921	0.451467	0.073281	-0.957053	-0.280499	0.487875	-0.210903	0.847053	0	0	0
57630	0	0	0	0	0	4.434891	-2.742400	8.311165	0.000042	-0.000050	0.001832	-0.595703	0.113037	-0.448242	0.070993	-0.245044	0.128187	-0.958375	-18.322022	-26.839112	-167.119984	-0.869827	-0.198898	0.451487	0.073253	-0.957056	-0.280494	0.487888	-0.210909	0.847044	0	0	0
57631	0	0	0	0	0	4.425446	-2.719930	8.312862	0.003510	-0.000569	0.005352	-0.593750	0.114258	-0.447266	0.071001	-0.245052	0.128173	-0.958373	-18.320821	-26.840129	-167.119096	-0.869816	-0.198909	0.451503	0.073273	-0.957061	-0.280474	0.487904	-0.210878	0.847042	0	0	0
57632	0	0	0	0	0	4.446157	-2.767637	8.358358	0.000548	0.003237	0.005520	-0.593750	0.115967	-0.453125	0.071004	-0.245043	0.128177	-0.958375	-18.321112	-26.838967	-167.118916	-0.869825	-0.198914	0.451484	0.073279	-0.957058	-0.280481	0.487889	-0.210885	0.847049	0	0	0
57633	0	0	0	0	0	4.427084	-2.722851	8.361798	0.000972	0.001121	0.005477	-0.593506	0.108887	-0.455078	0.071010	-0.245044	0.128177	-0.958375	-18.321291	-26.838942	-167.118165	-0.869822	-0.198926	0.451484	0.073290	-0.957057	-0.280484	0.487891	-0.210882	0.847048	0	0	0
57634	0	0	0	0	0	4.425692	-2.721732	8.337523	-0.000298	0.001966	0.005540	-0.595215	0.118896	-0.454102	0.071012	-0.245041	0.128184	-0.958374	-18.322188	-26.838468	-167.117717	-0.869824	-0.198933	0.451477	0.073292	-0.957052	-0.280498	0.487887	-0.210894	0.847048	0	0	0
57635	0	0	0	0	0	4.433726	-2.743004	8.311587	0.002199	0.000326	0.003583	-0.593750	0.109619	-0.447754	0.071010	-0.245046	0.128175	-0.958374	-18.321163	-26.839163	-167.118095	-0.869820	-0.198926	0.451488	0.073291	-0.957057	-0.280481	0.487895	-0.210878	0.847047	0	0	0
57636	0	0	0	0	0	4.401657	-2.730007	8.313836	0.000972	0.001121	0.005478	-0.600830	0.118164	-0.454346	0.071015	-0.245046	0.128176	-0.958374	-18.321392	-26.839159	-167.117514	-0.869818	-0.198935	0.451487	0.073299	-0.957056	-0.280485	0.487897	-0.210877	0.847046	0	0	0
57637	0	0	0	0	0	4.455706	-2.733634	8.311347	0.003426	0.005035	0.001755	-0.595215	0.115234	-0.459961	0.071002	-0.245030	0.128161	-0.958381	-18.318753	-26.837713	-167.119917	-0.869838	-0.198901	0.451465	0.073288	-0.957067	-0.280449	0.487864	-0.210858	0.847070	0	0	0
57638	0	0	0	0	0	4.446006	-2.710983	8.313239	0.004356	0.000702	0.005334	-0.598633	0.114746	-0.457520	0.071011	-0.245032	0.128145	-0.958382	-18.317042	-26.837963	-167.119340	-0.869834	-0.198910	0.451469	0.073311	-0.957073	-0.280423	0.487867	-0.210824	0.847077	0	0	0
57639	0	0	0	0	0	4.426590	-2.724543	8.386882	-0.001102	0.000645	0.007392	-0.587158	0.117676	-0.454102	0.071022	-0.245033	0.128157	-0.958379	-18.318926	-26.837762	-167.117491	-0.869829	-0.198938	0.451466	0.073327	-0.957063	-0.280452	0.487874	-0.210840	0.847069	0	0	0
57640	0	0	0	0	0	4.433429	-2.744619	8.336597	0.001818	0.002392	0.005459	-0.597656	0.112061	-0.455566	0.071027	-0.245028	0.128154	-0.958380	-18.318550	-26.837070	-167.117178	-0.869833	-0.198944	0.451455	0.073339	-0.957063	-0.280448	0.487864	-0.210834	0.847076	0	0	0
57641	0	0	0	0	0	4.433126	-2.744632	8.336754	0.001734	0.002492	0.001794	-0.589844	0.110107	-0.458496	0.071015	-0.245023	0.128146	-0.958384	-18.317116	-26.836877	-167.119041	-0.869841	-0.198916	0.451452	0.073321	-0.957071	-0.280427	0.487853	-0.210826	0.847084	0	0	0
57642	0	0	0	0	0	4.410278	-2.754095	8.337422	0.001859	0.002342	0.007292	-0.587158	0.107422	-0.453125	0.071028	-0.245017	0.128145	-0.958384	-18.317225	-26.835882	-167.117601	-0.869844	-0.198940	0.451436	0.073349	-0.957068	-0.280431	0.487844	-0.210819	0.847091	0	0	0
57643	0	0	0	0	0	4.410034	-2.754256	8.337498	0.000083	-0.000100	0.003665	-0.595947	0.110352	-0.457764	0.071022	-0.245023	0.128146	-0.958383	-18.317358	-26.836730	-167.118083	-0.869839	-0.198931	0.451450	0.073335	-0.957069	-0.280431	0.487855	-0.210823	0.847084	0	0	0
57644	0	0	0	0	0	4.422970	-2.722366	8.338760	0.002581	0.003763	0.001775	-0.597168	0.113037	-0.455566	0.071009	-0.245013	0.128136	-0.958388	-18.315406	-26.835956	-167.120293	-0.869853	-0.198899	0.451438	0.073319	-0.957078	-0.280404	0.487833	-0.210811	0.847100	0	0	0
57645	0	0	0	0	0	4.422569	-2.722421	8.338955	0.001901	0.002292	0.009125	-0.595215	0.112549	-0.462646	0.071031	-0.245005	0.128136	-0.958388	-18.315842	-26.834595	-167.117839	-0.869854	-0.198938	0.451416	0.073363	-0.957072	-0.280414	0.487823	-0.210802	0.847108	0	0	0
57646	0	0	0	0	0	4.432684	-2.746330	8.361809	0.001734	0.002492	0.001794	-0.594238	0.114258	-0.459961	0.071018	-0.245001	0.128129	-0.958391	-18.314496	-26.834508	-167.119781	-0.869862	-0.198909	0.451415	0.073342	-0.957079	-0.280394	0.487813	-0.210797	0.847115	0	0	0
57647	0	0	0	0	0	4.444517	-2.713113	8.338718	0.000930	0.001171	0.003646	-0.598633	0.116943	-0.457520	0.071013	-0.245001	0.128127	-0.958392	-18.314090	-26.834641	-167.120425	-0.869863	-0.198899	0.451417	0.073334	-0.957081	-0.280388	0.487812	-0.210795	0.847116	0	0	0
57648	0	0	0	0	0	4.424040	-2.725338	8.387970	0.000125	-0.000150	0.005498	-0.596924	0.108887	-0.464844	0.071017	-0.245008	0.128131	-0.958389	-18.314926	-26.835325	-167.119576	-0.869855	-0.198911	0.451428	0.073338	-0.957078	-0.280399	0.487826	-0.210799	0.847107	0	0	0
57649	0	0	0	0	0	4.453538	-2.735922	8.337139	0.000930	0.001171	0.003646	-0.598145	0.111328	-0.448975	0.071012	-0.245009	0.128129	-0.958390	-18.314513	-26.835503	-167.120254	-0.869856	-0.198900	0.451431	0.073329	-0.957081	-0.280392	0.487825	-0.210798	0.847107	0	0	0
57650	0	0	0	0	0	4.389554	-2.709894	8.341538	0.002323	0.000176	0.009082	-0.601807	0.111816	-0.451416	0.071036	-0.245011	0.128127	-0.958388	-18.315046	-26.835364	-167.117285	-0.869847	-0.198945	0.451428	0.073375	-0.957075	-0.280400	0.487835	-0.210782	0.847106	0	0	0
57651	0	0	0	0	0	4.431552	-2.746877	8.362230	0.002623	0.003713	0.003608	-0.602783	0.111816	-0.450928	0.071032	-0.245001	0.128118	-0.958392	-18.313456	-26.834370	-167.118397	-0.869858	-0.198930	0.451413	0.073375	-0.957081	-0.280379	0.487815	-0.210768	0.847121	0	0	0
