// General information: 
//  MT Manager version: 2022.2.0 
//  XDA version: 2022.2.0 build 7381 rev 124627 built on 2023-07-19
// Device information: 
//  DeviceId: 10B426F5
//  ProductCode: MTW2-3A7G6
//  Firmware Version: 4.14.0
//  Hardware Version: 3.0.0
// Device settings: 
//  Filter Profile: human(46.1)
//  Option Flags: Orientation Smoother Disabled, Position/Velocity Smoother Disabled, Continuous Zero Rotation Update Disabled, AHS Disabled, ICC Disabled
// Coordinate system: ENU
PacketCounter	SampleTimeFine	Year	Month	Day	Second	Acc_X	Acc_Y	Acc_Z	Gyr_X	Gyr_Y	Gyr_Z	Mag_X	Mag_Y	Mag_Z	Quat_q0	Quat_q1	Quat_q2	Quat_q3	Roll	Pitch	Yaw	Mat[1][1]	Mat[2][1]	Mat[3][1]	Mat[1][2]	Mat[2][2]	Mat[3][2]	Mat[1][3]	Mat[2][3]	Mat[3][3]	Vel_E	Vel_N	Vel_U
57202	0	0	0	0	0	9.735334	-0.007284	-1.203976	0.008782	-0.002500	-0.005071	-0.860352	0.290039	-0.208496	0.590409	-0.328089	-0.677444	-0.291280	176.888180	-82.337241	131.039080	-0.087549	0.100575	0.991070	0.788473	0.615026	0.007238	-0.608806	0.782066	-0.133145	0	0	0
57203	0	0	0	0	0	9.737001	-0.036010	-1.222508	0.009853	-0.001619	-0.007154	-0.868408	0.287842	-0.207764	0.590432	-0.328051	-0.677450	-0.291265	176.881994	-82.339186	131.050222	-0.087546	0.100532	0.991075	0.788420	0.615095	0.007251	-0.608876	0.782018	-0.133111	0	0	0
57204	0	0	0	0	0	9.734926	-0.000841	-1.180585	0.006613	-0.002588	-0.005308	-0.875732	0.294189	-0.199951	0.590436	-0.328038	-0.677452	-0.291264	176.876380	-82.339684	131.057049	-0.087553	0.100516	0.991076	0.788406	0.615112	0.007264	-0.608893	0.782006	-0.133102	0	0	0
57205	0	0	0	0	0	9.734913	-0.000295	-1.180690	0.007624	0.000437	-0.007626	-0.856934	0.285400	-0.201172	0.590459	-0.328004	-0.677450	-0.291261	176.866556	-82.342659	131.070327	-0.087542	0.100456	0.991083	0.788368	0.615161	0.007284	-0.608943	0.781976	-0.133049	0	0	0
57206	0	0	0	0	0	9.736587	-0.028704	-1.199207	0.001252	-0.004353	-0.009959	-0.866699	0.287109	-0.205322	0.590442	-0.327994	-0.677457	-0.291290	176.838490	-82.342000	131.096709	-0.087596	0.100425	0.991081	0.788383	0.615141	0.007349	-0.608916	0.781996	-0.133057	0	0	0
57207	0	0	0	0	0	9.760903	-0.026729	-1.199642	0.005603	-0.005612	-0.002989	-0.865234	0.286621	-0.208984	0.590449	-0.327990	-0.677462	-0.291270	176.848281	-82.341684	131.089067	-0.087586	0.100440	0.991080	0.788361	0.615169	0.007327	-0.608946	0.781971	-0.133064	0	0	0
57208	0	0	0	0	0	9.739155	-0.075163	-1.189221	0.003405	-0.004028	-0.007634	-0.860107	0.283447	-0.202393	0.590440	-0.327981	-0.677468	-0.291285	176.831271	-82.341284	131.105538	-0.087619	0.100421	0.991079	0.788365	0.615164	0.007367	-0.608936	0.781978	-0.133068	0	0	0
57209	0	0	0	0	0	9.762145	-0.049442	-1.195018	0.005559	-0.003704	-0.005309	-0.863525	0.283447	-0.194824	0.590450	-0.327964	-0.677471	-0.291275	176.830403	-82.342049	131.108815	-0.087617	0.100406	0.991081	0.788339	0.615197	0.007368	-0.608970	0.781954	-0.133055	0	0	0
57210	0	0	0	0	0	9.737729	-0.050380	-1.195422	0.005559	-0.003704	-0.005309	-0.860107	0.285645	-0.203369	0.590449	-0.327956	-0.677475	-0.291276	176.824444	-82.341908	131.115381	-0.087630	0.100397	0.991081	0.788332	0.615206	0.007382	-0.608978	0.781948	-0.133057	0	0	0
57211	0	0	0	0	0	9.712964	-0.045866	-1.171978	0.006614	-0.002587	-0.005306	-0.859375	0.292969	-0.201660	0.590463	-0.327938	-0.677477	-0.291266	176.823991	-82.343121	131.118405	-0.087621	0.100377	0.991084	0.788304	0.615241	0.007382	-0.609014	0.781923	-0.133036	0	0	0
57212	0	0	0	0	0	9.737654	-0.049535	-1.196074	0.008843	-0.004642	-0.004832	-0.863525	0.290771	-0.197510	0.590464	-0.327924	-0.677488	-0.291253	176.822162	-82.342457	131.122701	-0.087636	0.100379	0.991082	0.788278	0.615275	0.007387	-0.609047	0.781895	-0.133047	0	0	0
57213	0	0	0	0	0	9.737974	-0.054605	-1.220159	0.007668	-0.001470	-0.005303	-0.860596	0.292480	-0.202393	0.590484	-0.327902	-0.677486	-0.291241	176.823517	-82.344347	131.124404	-0.087618	0.100352	0.991087	0.788245	0.615317	0.007382	-0.609092	0.781866	-0.133014	0	0	0
57214	0	0	0	0	0	9.737593	-0.048829	-1.196600	0.007713	-0.003378	-0.002982	-0.863525	0.290771	-0.197021	0.590491	-0.327896	-0.677489	-0.291229	176.828615	-82.344466	131.121058	-0.087610	0.100355	0.991087	0.788227	0.615341	0.007370	-0.609116	0.781847	-0.133013	0	0	0
57215	0	0	0	0	0	9.736187	-0.024638	-1.202541	0.003465	-0.006173	-0.007396	-0.862549	0.288086	-0.206543	0.590484	-0.327886	-0.677498	-0.291230	176.819666	-82.343598	131.130739	-0.087637	0.100352	0.991085	0.788218	0.615352	0.007392	-0.609124	0.781839	-0.133027	0	0	0
57216	0	0	0	0	0	9.762201	-0.051866	-1.221351	0.002335	-0.004909	-0.005547	-0.861572	0.291504	-0.198242	0.590474	-0.327889	-0.677502	-0.291240	176.811134	-82.342759	131.138037	-0.087660	0.100352	0.991083	0.788230	0.615336	0.007412	-0.609105	0.781851	-0.133040	0	0	0
57217	0	0	0	0	0	9.760445	-0.022163	-1.203460	0.005559	-0.003703	-0.005306	-0.863770	0.288574	-0.213867	0.590483	-0.327875	-0.677504	-0.291231	176.811277	-82.343444	131.139974	-0.087655	0.100340	0.991085	0.788208	0.615364	0.007411	-0.609134	0.781830	-0.133028	0	0	0
57218	0	0	0	0	0	9.737045	-0.041381	-1.174481	0.005499	-0.001559	-0.005541	-0.867188	0.288330	-0.203613	0.590489	-0.327864	-0.677503	-0.291237	176.803788	-82.344523	131.148049	-0.087657	0.100313	0.991087	0.788201	0.615373	0.007428	-0.609143	0.781827	-0.133009	0	0	0
57219	0	0	0	0	0	9.738374	-0.064645	-1.169256	0.003390	-0.003793	-0.005544	-0.863770	0.283936	-0.203857	0.590496	-0.327852	-0.677503	-0.291234	176.801141	-82.345310	131.152001	-0.087655	0.100297	0.991089	0.788187	0.615391	0.007433	-0.609162	0.781815	-0.132995	0	0	0
57220	0	0	0	0	0	9.737333	-0.045947	-1.198828	0.010952	-0.002408	-0.004826	-0.861328	0.288086	-0.204102	0.590509	-0.327828	-0.677511	-0.291217	176.800021	-82.345926	131.156801	-0.087656	0.100282	0.991090	0.788147	0.615442	0.007435	-0.609213	0.781777	-0.132984	0	0	0
57221	0	0	0	0	0	9.761998	-0.049824	-1.223059	0.012173	-0.007486	-0.002031	-0.857178	0.299072	-0.193604	0.590521	-0.327810	-0.677529	-0.291170	176.817994	-82.344579	131.144741	-0.087651	0.100318	0.991087	0.788085	0.615521	0.007394	-0.609294	0.781710	-0.133010	0	0	0
57222	0	0	0	0	0	9.712836	-0.046878	-1.199876	0.012082	-0.003672	-0.006672	-0.860596	0.295166	-0.202881	0.590529	-0.327778	-0.677545	-0.291153	176.809966	-82.344413	131.157165	-0.087674	0.100301	0.991087	0.788037	0.615583	0.007413	-0.609352	0.781663	-0.133012	0	0	0
57223	0	0	0	0	0	9.735801	-0.021340	-1.205726	0.013182	-0.004462	-0.004348	-0.864746	0.288330	-0.192627	0.590548	-0.327751	-0.677558	-0.291115	176.820390	-82.344604	131.152697	-0.087664	0.100305	0.991087	0.787975	0.615664	0.007389	-0.609435	0.781599	-0.133010	0	0	0
57224	0	0	0	0	0	9.736101	-0.026517	-1.229900	0.009898	-0.003524	-0.004824	-0.866943	0.288330	-0.197266	0.590556	-0.327731	-0.677567	-0.291100	176.818942	-82.344582	131.157221	-0.087672	0.100298	0.991087	0.787941	0.615706	0.007392	-0.609477	0.781567	-0.133010	0	0	0
57225	0	0	0	0	0	9.735348	-0.015326	-1.182809	0.011059	-0.006458	-0.002265	-0.860352	0.288086	-0.204346	0.590566	-0.327719	-0.677581	-0.291061	176.835403	-82.343538	131.145384	-0.087664	0.100330	0.991085	0.787893	0.615768	0.007355	-0.609540	0.781514	-0.133030	0	0	0
57226	0	0	0	0	0	9.735629	-0.020715	-1.207118	0.010998	-0.004314	-0.002500	-0.864014	0.283203	-0.200195	0.590576	-0.327705	-0.677590	-0.291034	176.844661	-82.343137	131.139741	-0.087658	0.100344	0.991084	0.787855	0.615817	0.007334	-0.609590	0.781474	-0.133038	0	0	0
57227	0	0	0	0	0	9.761669	-0.048415	-1.225741	0.009883	-0.003287	-0.002738	-0.860840	0.285889	-0.201904	0.590598	-0.327686	-0.677594	-0.291004	176.857247	-82.344122	131.131684	-0.087633	0.100344	0.991086	0.787808	0.615877	0.007304	-0.609655	0.781426	-0.133023	0	0	0
57228	0	0	0	0	0	9.735193	-0.014836	-1.184085	0.008844	-0.004641	-0.004823	-0.862305	0.299072	-0.207520	0.590599	-0.327671	-0.677605	-0.290991	176.855462	-82.343461	131.135937	-0.087648	0.100346	0.991085	0.787781	0.615912	0.007309	-0.609687	0.781399	-0.133034	0	0	0
57229	0	0	0	0	0	9.735489	-0.020051	-1.208259	0.007714	-0.003377	-0.002976	-0.870361	0.295166	-0.204590	0.590617	-0.327659	-0.677605	-0.290968	176.867138	-82.344477	131.127572	-0.087622	0.100345	0.991087	0.787747	0.615956	0.007281	-0.609735	0.781364	-0.133018	0	0	0
57230	0	0	0	0	0	9.736818	-0.043473	-1.203093	0.005559	-0.003704	-0.005300	-0.873779	0.295166	-0.206055	0.590616	-0.327651	-0.677610	-0.290969	176.861224	-82.344337	131.134091	-0.087635	0.100337	0.991087	0.787740	0.615965	0.007294	-0.609742	0.781358	-0.133019	0	0	0
57231	0	0	0	0	0	9.735058	-0.014001	-1.185204	0.006645	-0.004256	-0.000892	-0.867920	0.293701	-0.204102	0.590633	-0.327649	-0.677608	-0.290941	176.881279	-82.344880	131.116639	-0.087598	0.100357	0.991088	0.787714	0.615998	0.007247	-0.609781	0.781329	-0.133013	0	0	0
57232	0	0	0	0	0	9.712347	-0.044652	-1.203911	0.006645	-0.004256	-0.000892	-0.865967	0.280518	-0.207520	0.590638	-0.327654	-0.677608	-0.290925	176.894879	-82.344562	131.104098	-0.087580	0.100380	0.991087	0.787704	0.616011	0.007216	-0.609796	0.781316	-0.133020	0	0	0
57233	0	0	0	0	0	9.736317	-0.037741	-1.180622	0.006706	-0.006400	-0.000654	-0.858643	0.278564	-0.209229	0.590647	-0.327654	-0.677613	-0.290893	176.915156	-82.343901	131.086641	-0.087557	0.100415	0.991086	0.787676	0.616048	0.007170	-0.609836	0.781282	-0.133034	0	0	0
57234	0	0	0	0	0	9.736591	-0.043123	-1.204938	0.004490	-0.004584	-0.003215	-0.857422	0.284912	-0.200684	0.590645	-0.327658	-0.677615	-0.290890	176.917707	-82.343324	131.084003	-0.087559	0.100427	0.991084	0.787677	0.616046	0.007164	-0.609834	0.781282	-0.133044	0	0	0
57235	0	0	0	0	0	9.735176	-0.019084	-1.210798	0.002260	-0.002530	-0.003692	-0.864014	0.284668	-0.201660	0.590656	-0.327655	-0.677608	-0.290889	176.921078	-82.344788	131.081074	-0.087537	0.100412	0.991088	0.787673	0.616052	0.007155	-0.609843	0.781279	-0.133019	0	0	0
57236	0	0	0	0	0	9.712137	-0.044125	-1.205626	0.002292	-0.004198	0.000715	-0.864014	0.293701	-0.203125	0.590656	-0.327678	-0.677599	-0.290883	176.939008	-82.344553	131.061648	-0.087505	0.100445	0.991087	0.787691	0.616029	0.007114	-0.609824	0.781293	-0.133026	0	0	0
57237	0	0	0	0	0	9.761160	-0.046842	-1.229847	-0.003101	-0.005495	0.000236	-0.860107	0.290527	-0.204590	0.590653	-0.327711	-0.677585	-0.290884	176.957850	-82.344352	131.039692	-0.087469	0.100481	0.991087	0.787727	0.615984	0.007070	-0.609784	0.781324	-0.133031	0	0	0
57238	0	0	0	0	0	9.735009	-0.018917	-1.212139	-0.000917	-0.005643	-0.001609	-0.859131	0.291992	-0.199951	0.590640	-0.327738	-0.677579	-0.290893	176.964374	-82.343217	131.029920	-0.087465	0.100511	0.991084	0.787762	0.615939	0.007056	-0.609738	0.781356	-0.133052	0	0	0
57239	0	0	0	0	0	9.735603	-0.029980	-1.260282	0.000169	-0.006194	0.002798	-0.864502	0.288086	-0.199463	0.590644	-0.327771	-0.677568	-0.290874	176.996732	-82.342717	130.996171	-0.087411	0.100569	0.991083	0.787781	0.615916	0.006981	-0.609722	0.781366	-0.133064	0	0	0
57240	0	0	0	0	0	9.737630	-0.066523	-1.202152	0.001191	-0.003409	-0.001608	-0.865723	0.287598	-0.202881	0.590642	-0.327789	-0.677559	-0.290879	177.003966	-82.342860	130.986901	-0.087393	0.100581	0.991083	0.787803	0.615888	0.006964	-0.609695	0.781387	-0.133063	0	0	0
57241	0	0	0	0	0	9.737259	-0.060850	-1.178706	-0.000978	-0.003499	-0.001847	-0.861572	0.289063	-0.203369	0.590646	-0.327806	-0.677546	-0.290883	177.014338	-82.343691	130.974675	-0.087363	0.100589	0.991085	0.787824	0.615861	0.006939	-0.609673	0.781407	-0.133050	0	0	0
57242	0	0	0	0	0	9.687431	-0.045133	-1.208328	-0.002080	-0.002710	-0.004170	-0.864502	0.281494	-0.196533	0.590637	-0.327823	-0.677534	-0.290908	177.008640	-82.344158	130.976562	-0.087361	0.100580	0.991086	0.787865	0.615809	0.006952	-0.609621	0.781449	-0.133041	0	0	0
57243	0	0	0	0	0	9.736122	-0.042020	-1.208764	0.000198	-0.006670	-0.001370	-0.865234	0.280762	-0.199463	0.590632	-0.327842	-0.677532	-0.290902	177.022062	-82.343160	130.961911	-0.087346	0.100615	0.991084	0.787879	0.615791	0.006922	-0.609604	0.781459	-0.133060	0	0	0
57244	0	0	0	0	0	9.737774	-0.071012	-1.227485	0.000090	-0.002620	-0.003931	-0.862061	0.294434	-0.205078	0.590628	-0.327854	-0.677523	-0.290919	177.018606	-82.343685	130.962790	-0.087342	0.100607	0.991085	0.787907	0.615756	0.006930	-0.609569	0.781488	-0.133050	0	0	0
57245	0	0	0	0	0	9.761771	-0.063787	-1.204093	0.005606	-0.005610	-0.002976	-0.866699	0.289063	-0.199219	0.590634	-0.327850	-0.677527	-0.290900	177.028424	-82.343315	130.955012	-0.087332	0.100624	0.991084	0.787886	0.615783	0.006907	-0.609598	0.781464	-0.133058	0	0	0
57246	0	0	0	0	0	9.761719	-0.063653	-1.204521	0.005530	-0.003228	-0.001130	-0.869629	0.283203	-0.196533	0.590640	-0.327856	-0.677523	-0.290890	177.040142	-82.343576	130.943726	-0.087310	0.100638	0.991085	0.787882	0.615787	0.006880	-0.609605	0.781459	-0.133055	0	0	0
57247	0	0	0	0	0	9.759979	-0.034162	-1.186536	0.006612	-0.002587	-0.005298	-0.857422	0.286133	-0.201660	0.590653	-0.327838	-0.677525	-0.290881	177.039547	-82.344719	130.946786	-0.087302	0.100618	0.991087	0.787856	0.615821	0.006880	-0.609640	0.781435	-0.133035	0	0	0
57248	0	0	0	0	0	9.712906	-0.065863	-1.205112	0.001205	-0.003647	-0.003691	-0.864258	0.288818	-0.204346	0.590647	-0.327849	-0.677520	-0.290892	177.037977	-82.344664	130.946407	-0.087302	0.100619	0.991087	0.787877	0.615795	0.006884	-0.609614	0.781456	-0.133036	0	0	0
57249	0	0	0	0	0	9.736899	-0.058575	-1.181789	-0.000903	-0.005881	-0.003691	-0.862793	0.288330	-0.205322	0.590641	-0.327862	-0.677517	-0.290896	177.041202	-82.344154	130.941571	-0.087299	0.100633	0.991086	0.787894	0.615772	0.006877	-0.609591	0.781471	-0.133045	0	0	0
57250	0	0	0	0	0	9.785570	-0.055277	-1.182419	0.000227	-0.007146	-0.005537	-0.865479	0.289795	-0.209717	0.590619	-0.327874	-0.677524	-0.290910	177.031990	-82.342042	130.948337	-0.087335	0.100651	0.991081	0.787919	0.615740	0.006900	-0.609554	0.781495	-0.133080	0	0	0
57251	0	0	0	0	0	9.761441	-0.061923	-1.206867	0.004538	-0.006488	-0.000891	-0.859863	0.289063	-0.205566	0.590625	-0.327880	-0.677526	-0.290886	177.050437	-82.341376	130.931550	-0.087313	0.100685	0.991080	0.787904	0.615760	0.006858	-0.609577	0.781474	-0.133094	0	0	0
57252	0	0	0	0	0	9.759989	-0.038214	-1.212907	0.002293	-0.004197	0.000716	-0.862305	0.282227	-0.196289	0.590626	-0.327903	-0.677518	-0.290879	177.068367	-82.341136	130.912125	-0.087282	0.100718	0.991079	0.787922	0.615738	0.006816	-0.609559	0.781488	-0.133100	0	0	0
57253	0	0	0	0	0	9.733856	-0.010729	-1.195074	0.005551	-0.004656	0.005362	-0.857422	0.285645	-0.203857	0.590647	-0.327926	-0.677506	-0.290838	177.113203	-82.341524	130.868937	-0.087201	0.100778	0.991080	0.787909	0.615756	0.006712	-0.609587	0.781466	-0.133099	0	0	0
57254	0	0	0	0	0	9.709768	-0.017975	-1.219128	0.001116	-0.001027	0.000239	-0.865967	0.297607	-0.213623	0.590656	-0.327946	-0.677487	-0.290842	177.127749	-82.343082	130.852245	-0.087154	0.100783	0.991084	0.787933	0.615724	0.006677	-0.609561	0.781490	-0.133074	0	0	0
57255	0	0	0	0	0	9.735184	-0.035009	-1.190014	-0.001020	-0.002784	0.004407	-0.863037	0.286865	-0.207520	0.590673	-0.327981	-0.677461	-0.290827	177.165303	-82.344729	130.812992	-0.087067	0.100821	0.991087	0.787956	0.615696	0.006588	-0.609545	0.781507	-0.133050	0	0	0
57256	0	0	0	0	0	9.734073	-0.017064	-1.219659	-0.004229	-0.004230	0.002085	-0.863770	0.295898	-0.199707	0.590665	-0.328028	-0.677440	-0.290838	177.185336	-82.344504	130.787673	-0.087025	0.100863	0.991087	0.788015	0.615622	0.006542	-0.609475	0.781560	-0.133056	0	0	0
57257	0	0	0	0	0	9.736473	-0.059062	-1.185267	-0.006385	-0.004559	-0.000238	-0.869629	0.293213	-0.210205	0.590660	-0.328068	-0.677420	-0.290853	177.200304	-82.344848	130.767781	-0.086986	0.100889	0.991088	0.788069	0.615552	0.006507	-0.609410	0.781612	-0.133051	0	0	0
57258	0	0	0	0	0	9.735042	-0.035305	-1.191171	-0.007514	-0.003294	0.001608	-0.865234	0.289307	-0.194580	0.590648	-0.328121	-0.677392	-0.290879	177.216234	-82.345143	130.744705	-0.086942	0.100920	0.991088	0.788148	0.615452	0.006469	-0.609314	0.781687	-0.133048	0	0	0
57259	0	0	0	0	0	9.760740	-0.057647	-1.186146	-0.004154	-0.006612	0.000240	-0.870850	0.293701	-0.204590	0.590640	-0.328159	-0.677380	-0.290882	177.234686	-82.344271	130.722518	-0.086913	0.100965	0.991086	0.788190	0.615399	0.006427	-0.609264	0.781723	-0.133065	0	0	0
57260	0	0	0	0	0	9.737375	-0.077367	-1.157371	-0.004229	-0.004230	0.002086	-0.863770	0.283447	-0.205811	0.590631	-0.328206	-0.677360	-0.290893	177.254722	-82.344041	130.697198	-0.086870	0.101006	0.991086	0.788249	0.615324	0.006381	-0.609194	0.781777	-0.133072	0	0	0
57261	0	0	0	0	0	9.760927	-0.063237	-1.210948	-0.007439	-0.005676	-0.000236	-0.865479	0.291992	-0.204834	0.590621	-0.328249	-0.677342	-0.290910	177.268530	-82.343761	130.678036	-0.086840	0.101039	0.991085	0.788308	0.615248	0.006349	-0.609122	0.781831	-0.133078	0	0	0
57262	0	0	0	0	0	9.760549	-0.057670	-1.187713	-0.003100	-0.005495	0.000240	-0.866699	0.283447	-0.207031	0.590607	-0.328288	-0.677329	-0.290921	177.281609	-82.342756	130.660387	-0.086820	0.101079	0.991083	0.788358	0.615184	0.006319	-0.609060	0.781877	-0.133097	0	0	0
57263	0	0	0	0	0	9.737819	-0.088181	-1.206414	0.003374	-0.003556	-0.003453	-0.868652	0.288818	-0.205322	0.590617	-0.328284	-0.677326	-0.290913	177.287370	-82.343623	130.655661	-0.086802	0.101075	0.991085	0.788348	0.615198	0.006305	-0.609076	0.781867	-0.133082	0	0	0
57264	0	0	0	0	0	9.736399	-0.064149	-1.212215	0.004428	-0.002439	-0.003454	-0.863770	0.290039	-0.201904	0.590621	-0.328284	-0.677322	-0.290915	177.288420	-82.344266	130.654502	-0.086793	0.101068	0.991086	0.788349	0.615196	0.006302	-0.609075	0.781869	-0.133071	0	0	0
57265	0	0	0	0	0	9.736357	-0.063777	-1.212566	0.004503	-0.004821	-0.005298	-0.867432	0.287109	-0.208252	0.590625	-0.328274	-0.677327	-0.290907	177.287555	-82.344299	130.656931	-0.086797	0.101064	0.991086	0.788332	0.615218	0.006304	-0.609097	0.781852	-0.133071	0	0	0
57266	0	0	0	0	0	9.713620	-0.094031	-1.231329	0.007788	-0.005757	-0.004822	-0.869141	0.289551	-0.204102	0.590621	-0.328265	-0.677339	-0.290896	177.285376	-82.343007	130.660973	-0.086818	0.101075	0.991083	0.788312	0.615244	0.006311	-0.609120	0.781831	-0.133093	0	0	0
57267	0	0	0	0	0	9.711849	-0.064276	-1.213687	0.004578	-0.007203	-0.007142	-0.866455	0.291016	-0.205566	0.590615	-0.328250	-0.677355	-0.290889	177.276868	-82.341679	130.671340	-0.086852	0.101076	0.991080	0.788291	0.615270	0.006331	-0.609142	0.781809	-0.133115	0	0	0
57268	0	0	0	0	0	9.736456	-0.067658	-1.238082	0.008868	-0.005116	-0.008989	-0.860107	0.283936	-0.205566	0.590609	-0.328222	-0.677374	-0.290888	177.257446	-82.340640	130.693403	-0.086902	0.101057	0.991078	0.788260	0.615309	0.006377	-0.609175	0.781782	-0.133131	0	0	0
57269	0	0	0	0	0	9.761085	-0.071389	-1.262274	0.009870	-0.003045	-0.000654	-0.864258	0.292969	-0.197510	0.590635	-0.328208	-0.677374	-0.290851	177.278866	-82.341872	130.676603	-0.086859	0.101066	0.991081	0.788213	0.615370	0.006327	-0.609242	0.781732	-0.133112	0	0	0
57270	0	0	0	0	0	9.761835	-0.083881	-1.209508	0.012079	-0.003669	-0.006667	-0.863770	0.295410	-0.195313	0.590643	-0.328177	-0.677390	-0.290834	177.270873	-82.341725	130.688991	-0.086882	0.101049	0.991081	0.788165	0.615431	0.006345	-0.609301	0.781686	-0.133113	0	0	0
57271	0	0	0	0	0	9.737721	-0.090444	-1.233653	0.013181	-0.004457	-0.004343	-0.864014	0.292480	-0.201660	0.590661	-0.328148	-0.677403	-0.290797	177.280032	-82.341818	130.685767	-0.086875	0.101053	0.991081	0.788102	0.615512	0.006324	-0.609383	0.781622	-0.133113	0	0	0
57272	0	0	0	0	0	9.735680	-0.055391	-1.191941	0.013119	-0.002313	-0.004582	-0.861572	0.287842	-0.201660	0.590678	-0.328119	-0.677413	-0.290772	177.281234	-82.342503	130.689478	-0.086874	0.101038	0.991082	0.788050	0.615579	0.006321	-0.609451	0.781571	-0.133101	0	0	0
57273	0	0	0	0	0	9.735656	-0.055280	-1.192140	0.010924	-0.001927	-0.000653	-0.864502	0.292480	-0.207764	0.590709	-0.328103	-0.677411	-0.290735	177.303583	-82.344279	130.672047	-0.086823	0.101041	0.991086	0.787999	0.615644	0.006267	-0.609523	0.781520	-0.133073	0	0	0
57274	0	0	0	0	0	9.734534	-0.037086	-1.221645	0.006584	-0.002109	-0.001129	-0.865723	0.285156	-0.202637	0.590721	-0.328104	-0.677405	-0.290722	177.315709	-82.345175	130.660960	-0.086794	0.101046	0.991089	0.787989	0.615657	0.006238	-0.609540	0.781509	-0.133059	0	0	0
57275	0	0	0	0	0	9.735292	-0.049500	-1.168893	0.002333	-0.004913	-0.005531	-0.870850	0.282471	-0.196045	0.590721	-0.328099	-0.677407	-0.290723	177.312563	-82.345185	130.664531	-0.086800	0.101041	0.991089	0.787985	0.615663	0.006246	-0.609546	0.781505	-0.133058	0	0	0
57276	0	0	0	0	0	9.734436	-0.036484	-1.222444	0.000138	-0.004526	-0.001603	-0.863037	0.297119	-0.202148	0.590714	-0.328121	-0.677400	-0.290730	177.319462	-82.344685	130.654991	-0.086789	0.101062	0.991087	0.788014	0.615626	0.006230	-0.609510	0.781531	-0.133068	0	0	0
57277	0	0	0	0	0	9.759041	-0.040010	-1.246791	-0.000864	-0.006599	-0.009935	-0.859619	0.290283	-0.198242	0.590694	-0.328115	-0.677409	-0.290752	177.296219	-82.343445	130.676592	-0.086841	0.101045	0.991085	0.788029	0.615606	0.006285	-0.609483	0.781549	-0.133086	0	0	0
57278	0	0	0	0	0	9.735691	-0.059169	-1.218136	0.005656	-0.007513	-0.000646	-0.863281	0.284668	-0.204102	0.590687	-0.328129	-0.677417	-0.290733	177.310947	-82.341261	130.662342	-0.086840	0.101096	0.991079	0.788025	0.615612	0.006253	-0.609488	0.781538	-0.133126	0	0	0
57279	0	0	0	0	0	9.737038	-0.082691	-1.213087	0.006610	-0.002586	-0.005295	-0.861816	0.294922	-0.199463	0.590701	-0.328110	-0.677418	-0.290723	177.310777	-82.342521	130.665158	-0.086831	0.101075	0.991082	0.787997	0.615648	0.006252	-0.609526	0.781512	-0.133104	0	0	0
57280	0	0	0	0	0	9.737011	-0.082256	-1.213333	0.006610	-0.002586	-0.005295	-0.857422	0.285400	-0.199219	0.590706	-0.328098	-0.677421	-0.290722	177.305279	-82.343032	130.671869	-0.086837	0.101058	0.991084	0.787983	0.615665	0.006264	-0.609542	0.781501	-0.133095	0	0	0
57281	0	0	0	0	0	9.734460	-0.039754	-1.248445	0.013145	-0.002790	-0.008746	-0.871338	0.288818	-0.196777	0.590725	-0.328050	-0.677437	-0.290700	177.294784	-82.344050	130.688713	-0.086855	0.101019	0.991086	0.787914	0.615754	0.006288	-0.609629	0.781436	-0.133076	0	0	0
57282	0	0	0	0	0	9.735836	-0.062998	-1.243199	0.012066	-0.003429	-0.004577	-0.864746	0.292969	-0.206543	0.590736	-0.328025	-0.677449	-0.290677	177.295634	-82.344097	130.692173	-0.086861	0.101013	0.991086	0.787868	0.615813	0.006286	-0.609688	0.781391	-0.133075	0	0	0
57283	0	0	0	0	0	9.735512	-0.056949	-1.219669	0.012029	-0.001764	-0.008983	-0.864746	0.291260	-0.207031	0.590757	-0.327977	-0.677461	-0.290661	177.282967	-82.345715	130.710697	-0.086875	0.100964	0.991090	0.787803	0.615894	0.006314	-0.609769	0.781332	-0.133046	0	0	0
57284	0	0	0	0	0	9.758166	-0.025815	-1.201560	0.004352	-0.000056	-0.001606	-0.856201	0.292725	-0.197510	0.590771	-0.327980	-0.677447	-0.290661	177.291371	-82.347774	130.702075	-0.086837	0.100950	0.991095	0.787807	0.615890	0.006293	-0.609770	0.781337	-0.133011	0	0	0
57285	0	0	0	0	0	9.710535	-0.046660	-1.172243	0.001142	-0.001505	-0.003926	-0.862061	0.288330	-0.200684	0.590783	-0.327981	-0.677434	-0.290667	177.294509	-82.349730	130.698364	-0.086808	0.100930	0.991099	0.787813	0.615882	0.006284	-0.609766	0.781347	-0.132978	0	0	0
57286	0	0	0	0	0	9.760959	-0.072585	-1.190800	0.001218	-0.003888	-0.005767	-0.861084	0.293213	-0.199707	0.590773	-0.327985	-0.677433	-0.290684	177.284166	-82.349484	130.706845	-0.086826	0.100920	0.991099	0.787832	0.615858	0.006308	-0.609739	0.781367	-0.132981	0	0	0
57287	0	0	0	0	0	9.737958	-0.097235	-1.185642	0.002334	-0.004913	-0.005527	-0.870361	0.289795	-0.201660	0.590772	-0.327983	-0.677435	-0.290685	177.281589	-82.349383	130.709483	-0.086832	0.100918	0.991098	0.787831	0.615859	0.006314	-0.609739	0.781367	-0.132982	0	0	0
57288	0	0	0	0	0	9.737072	-0.084102	-1.239213	0.004504	-0.004821	-0.005288	-0.862305	0.293945	-0.199707	0.590765	-0.327980	-0.677441	-0.290688	177.275360	-82.348614	130.715713	-0.086852	0.100918	0.991097	0.787831	0.615859	0.006329	-0.609737	0.781366	-0.132995	0	0	0
57289	0	0	0	0	0	9.761102	-0.076655	-1.215888	0.005557	-0.003704	-0.005290	-0.872559	0.280518	-0.198486	0.590773	-0.327967	-0.677443	-0.290679	177.275347	-82.349206	130.717643	-0.086848	0.100908	0.991098	0.787810	0.615886	0.006329	-0.609765	0.781347	-0.132985	0	0	0
57290	0	0	0	0	0	9.737530	-0.090323	-1.163099	0.007727	-0.003611	-0.005051	-0.867432	0.294678	-0.196289	0.590777	-0.327954	-0.677450	-0.290672	177.271731	-82.349136	130.723100	-0.086859	0.100900	0.991098	0.787790	0.615912	0.006337	-0.609789	0.781327	-0.132985	0	0	0
57291	0	0	0	0	0	9.761029	-0.075940	-1.216520	0.008768	-0.002254	-0.002970	-0.864990	0.286621	-0.201416	0.590797	-0.327938	-0.677450	-0.290650	177.282260	-82.350509	130.716131	-0.086831	0.100893	0.991101	0.787753	0.615959	0.006312	-0.609841	0.781291	-0.132963	0	0	0
57292	0	0	0	0	0	9.734928	-0.047691	-1.198400	0.006560	-0.000682	-0.007615	-0.868652	0.282959	-0.205811	0.590805	-0.327915	-0.677450	-0.290659	177.266456	-82.352046	130.733211	-0.086844	0.100847	0.991105	0.787738	0.615978	0.006347	-0.609859	0.781281	-0.132935	0	0	0
57293	0	0	0	0	0	9.735200	-0.052988	-1.222340	0.014212	-0.002854	-0.000169	-0.865479	0.288574	-0.191895	0.590838	-0.327890	-0.677456	-0.290607	177.291775	-82.353324	130.714908	-0.086797	0.100858	0.991107	0.787665	0.616072	0.006287	-0.609959	0.781206	-0.132915	0	0	0
57294	0	0	0	0	0	9.733759	-0.028937	-1.228020	0.009795	0.000288	-0.009459	-0.852051	0.287354	-0.197021	0.590852	-0.327849	-0.677461	-0.290613	177.269759	-82.355367	130.740126	-0.086818	0.100793	0.991112	0.787628	0.616118	0.006337	-0.610004	0.781178	-0.132877	0	0	0
57295	0	0	0	0	0	9.710223	-0.042317	-1.174987	0.008793	-0.002733	-0.007132	-0.866455	0.293213	-0.198242	0.590864	-0.327822	-0.677468	-0.290602	177.263339	-82.356329	130.750067	-0.086825	0.100765	0.991114	0.787590	0.616167	0.006351	-0.610052	0.781143	-0.132860	0	0	0
57296	0	0	0	0	0	9.735147	-0.051462	-1.222827	0.006611	-0.002586	-0.005288	-0.862305	0.287842	-0.207275	0.590869	-0.327809	-0.677471	-0.290601	177.257861	-82.356840	130.756758	-0.086831	0.100748	0.991116	0.787576	0.616184	0.006363	-0.610069	0.781132	-0.132851	0	0	0
57297	0	0	0	0	0	9.734541	-0.039687	-1.175508	0.005519	-0.002041	-0.009692	-0.866943	0.278564	-0.204102	0.590877	-0.327778	-0.677475	-0.290608	177.238582	-82.358325	130.778253	-0.086852	0.100696	0.991119	0.787550	0.616217	0.006406	-0.610099	0.781113	-0.132823	0	0	0
57298	0	0	0	0	0	9.734516	-0.039029	-1.175731	0.006611	-0.002585	-0.005287	-0.869141	0.292969	-0.202393	0.590881	-0.327766	-0.677478	-0.290607	177.233104	-82.358836	130.784943	-0.086858	0.100679	0.991120	0.787537	0.616234	0.006419	-0.610116	0.781101	-0.132813	0	0	0
57299	0	0	0	0	0	9.734771	-0.044048	-1.199816	0.005571	-0.003944	-0.007367	-0.864746	0.285889	-0.206055	0.590887	-0.327744	-0.677485	-0.290604	177.223145	-82.359279	130.797188	-0.086874	0.100655	0.991121	0.787511	0.616267	0.006441	-0.610147	0.781079	-0.132805	0	0	0
57300	0	0	0	0	0	9.735327	-0.054494	-1.247575	0.013082	-0.000644	-0.008976	-0.858398	0.291260	-0.202637	0.590903	-0.327697	-0.677498	-0.290595	177.205231	-82.360798	130.820167	-0.086898	0.100600	0.991125	0.787455	0.616338	0.006482	-0.610216	0.781029	-0.132776	0	0	0
57301	0	0	0	0	0	9.760231	-0.059431	-1.171052	0.009975	-0.005901	-0.006645	-0.873047	0.287109	-0.206787	0.590910	-0.327667	-0.677515	-0.290572	177.202100	-82.360205	130.828071	-0.086918	0.100596	0.991123	0.787403	0.616404	0.006489	-0.610280	0.780978	-0.132786	0	0	0
57302	0	0	0	0	0	9.711755	-0.067551	-1.194963	0.007588	0.000917	-0.003449	-0.863037	0.286621	-0.200928	0.590931	-0.327653	-0.677506	-0.290568	177.204294	-82.362772	130.827585	-0.086888	0.100563	0.991129	0.787385	0.616427	0.006482	-0.610307	0.780964	-0.132742	0	0	0
57303	0	0	0	0	0	9.734391	-0.036374	-1.176850	0.009847	-0.001614	-0.007129	-0.854492	0.282471	-0.203857	0.590951	-0.327616	-0.677512	-0.290553	177.197524	-82.364568	130.839087	-0.086888	0.100522	0.991134	0.787334	0.616493	0.006496	-0.610374	0.780917	-0.132710	0	0	0
57304	0	0	0	0	0	9.736097	-0.065158	-1.195293	0.005559	-0.003704	-0.005282	-0.864258	0.298096	-0.196777	0.590950	-0.327608	-0.677517	-0.290554	177.191693	-82.364439	130.845526	-0.086901	0.100514	0.991133	0.787327	0.616502	0.006510	-0.610381	0.780911	-0.132712	0	0	0
57305	0	0	0	0	0	9.757519	-0.015777	-1.206973	0.003453	-0.005940	-0.005278	-0.865967	0.291016	-0.214600	0.590948	-0.327606	-0.677522	-0.290549	177.191143	-82.363767	130.846756	-0.086911	0.100521	0.991132	0.787319	0.616511	0.006512	-0.610389	0.780903	-0.132724	0	0	0
57306	0	0	0	0	0	9.759203	-0.044495	-1.225589	0.004454	-0.002919	-0.007604	-0.859619	0.293945	-0.193848	0.590944	-0.327592	-0.677526	-0.290562	177.174605	-82.364022	130.863359	-0.086937	0.100493	0.991132	0.787317	0.616514	0.006550	-0.610389	0.780904	-0.132717	0	0	0
57307	0	0	0	0	0	9.757727	-0.020092	-1.231401	0.005507	-0.001801	-0.007606	-0.872559	0.286377	-0.197510	0.590957	-0.327568	-0.677527	-0.290563	177.164570	-82.365742	130.875547	-0.086939	0.100452	0.991136	0.787293	0.616545	0.006572	-0.610420	0.780886	-0.132686	0	0	0
57308	0	0	0	0	0	9.735946	-0.062707	-1.196652	0.000114	-0.003107	-0.008081	-0.863525	0.285645	-0.202881	0.590945	-0.327566	-0.677526	-0.290592	177.143545	-82.365875	130.894169	-0.086970	0.100422	0.991137	0.787316	0.616514	0.006620	-0.610385	0.780914	-0.132682	0	0	0
57309	0	0	0	0	0	9.737376	-0.085825	-1.191287	0.007664	-0.001466	-0.005285	-0.857666	0.293945	-0.209473	0.590964	-0.327543	-0.677525	-0.290580	177.143240	-82.367707	130.897666	-0.086955	0.100392	0.991141	0.787282	0.616558	0.006619	-0.610431	0.780883	-0.132650	0	0	0
57310	0	0	0	0	0	9.761431	-0.078124	-1.167844	0.005584	-0.004185	-0.009442	-0.860596	0.285645	-0.199463	0.590955	-0.327522	-0.677538	-0.290593	177.119764	-82.367183	130.921923	-0.087004	0.100362	0.991140	0.787271	0.616571	0.006674	-0.610438	0.780876	-0.132656	0	0	0
57311	0	0	0	0	0	9.735839	-0.060877	-1.197617	0.009964	-0.005658	-0.004558	-0.860596	0.291260	-0.201172	0.590966	-0.327500	-0.677551	-0.290563	177.125832	-82.366799	130.920500	-0.087006	0.100369	0.991139	0.787222	0.616634	0.006660	-0.610502	0.780825	-0.132664	0	0	0
57312	0	0	0	0	0	9.737251	-0.084117	-1.192435	0.006624	-0.002825	-0.007362	-0.861572	0.283447	-0.208252	0.590967	-0.327480	-0.677558	-0.290568	177.111543	-82.367112	130.936089	-0.087029	0.100342	0.991139	0.787206	0.616654	0.006693	-0.610518	0.780814	-0.132657	0	0	0
57313	0	0	0	0	0	9.758670	-0.034576	-1.203941	0.008794	-0.002731	-0.007123	-0.858887	0.290039	-0.204346	0.590983	-0.327448	-0.677566	-0.290555	177.104841	-82.368317	130.946933	-0.087035	0.100309	0.991142	0.787161	0.616711	0.006708	-0.610576	0.780772	-0.132635	0	0	0
57314	0	0	0	0	0	9.734264	-0.035445	-1.204206	0.005572	-0.003944	-0.007359	-0.861816	0.287598	-0.202637	0.590978	-0.327434	-0.677574	-0.290561	177.090204	-82.367989	130.962264	-0.087065	0.100290	0.991141	0.787152	0.616722	0.006742	-0.610583	0.780766	-0.132639	0	0	0
57315	0	0	0	0	0	9.712774	-0.083642	-1.193399	0.006702	-0.005210	-0.009197	-0.867188	0.289795	-0.207764	0.590978	-0.327405	-0.677589	-0.290558	177.074282	-82.367687	130.981091	-0.087102	0.100266	0.991141	0.787119	0.616764	0.006779	-0.610620	0.780736	-0.132642	0	0	0
57316	0	0	0	0	0	9.733855	-0.028349	-1.181498	0.000245	-0.007395	-0.007589	-0.871582	0.289307	-0.204834	0.590952	-0.327411	-0.677600	-0.290577	177.056370	-82.365378	130.996646	-0.087155	0.100272	0.991135	0.787142	0.616734	0.006823	-0.610583	0.780759	-0.132680	0	0	0
57317	0	0	0	0	0	9.759358	-0.044353	-1.152639	0.003324	-0.001654	-0.005761	-0.869629	0.284424	-0.198730	0.590965	-0.327397	-0.677595	-0.290580	177.052080	-82.367239	131.001944	-0.087143	0.100240	0.991140	0.787131	0.616748	0.006831	-0.610599	0.780752	-0.132647	0	0	0
57318	0	0	0	0	0	9.734324	-0.038328	-1.229840	0.005638	-0.006087	-0.007113	-0.860107	0.282227	-0.206055	0.590953	-0.327387	-0.677609	-0.290583	177.039010	-82.365692	131.015732	-0.087185	0.100239	0.991136	0.787122	0.616760	0.006862	-0.610605	0.780743	-0.132673	0	0	0
57319	0	0	0	0	0	9.736917	-0.079573	-1.195464	0.007808	-0.005992	-0.006873	-0.862305	0.282959	-0.204346	0.590955	-0.327363	-0.677625	-0.290567	177.032722	-82.364947	131.025517	-0.087210	0.100234	0.991134	0.787083	0.616808	0.006878	-0.610651	0.780705	-0.132685	0	0	0
57320	0	0	0	0	0	9.760045	-0.059393	-1.225306	0.010964	-0.002635	-0.006881	-0.859131	0.285645	-0.198975	0.590964	-0.327332	-0.677637	-0.290556	177.022936	-82.365380	131.039072	-0.087229	0.100208	0.991135	0.787042	0.616861	0.006900	-0.610702	0.780667	-0.132676	0	0	0
57321	0	0	0	0	0	9.733904	-0.031007	-1.207233	0.008729	-0.000587	-0.007364	-0.857178	0.284180	-0.210205	0.590986	-0.327297	-0.677639	-0.290548	177.014280	-82.367717	131.051710	-0.087225	0.100158	0.991141	0.786998	0.616917	0.006918	-0.610758	0.780629	-0.132635	0	0	0
57322	0	0	0	0	0	9.736838	-0.077959	-1.196218	0.009900	-0.003512	-0.004797	-0.860840	0.289795	-0.200684	0.590993	-0.327278	-0.677648	-0.290534	177.012975	-82.367711	131.056093	-0.087233	0.100151	0.991141	0.786965	0.616959	0.006921	-0.610800	0.780597	-0.132635	0	0	0
57323	0	0	0	0	0	9.759973	-0.057898	-1.225946	0.010965	-0.002635	-0.006879	-0.863770	0.288330	-0.206055	0.591013	-0.327240	-0.677658	-0.290512	177.008624	-82.368994	131.065847	-0.087235	0.100120	0.991144	0.786906	0.617034	0.006930	-0.610875	0.780542	-0.132612	0	0	0
57324	0	0	0	0	0	9.735285	-0.053351	-1.202466	0.008848	-0.004631	-0.004792	-0.860596	0.286133	-0.208008	0.591015	-0.327225	-0.677669	-0.290499	177.006984	-82.368348	131.069958	-0.087250	0.100122	0.991142	0.786879	0.617068	0.006934	-0.610908	0.780515	-0.132623	0	0	0
57325	0	0	0	0	0	9.733488	-0.023515	-1.184627	0.005506	-0.001801	-0.007598	-0.862305	0.289551	-0.204590	0.591028	-0.327199	-0.677670	-0.290500	176.996126	-82.370108	131.083207	-0.087253	0.100079	0.991146	0.786853	0.617102	0.006958	-0.610942	0.780493	-0.132591	0	0	0
57326	0	0	0	0	0	9.734665	-0.041234	-1.155493	0.012059	-0.003174	-0.002475	-0.867432	0.287354	-0.201660	0.591044	-0.327181	-0.677677	-0.290471	177.005898	-82.370365	131.077661	-0.087240	0.100084	0.991147	0.786808	0.617159	0.006935	-0.611001	0.780448	-0.132588	0	0	0
57327	0	0	0	0	0	9.733690	-0.028359	-1.209025	0.004521	-0.005064	-0.007349	-0.866699	0.288818	-0.208740	0.591043	-0.327165	-0.677686	-0.290470	176.996392	-82.370157	131.088713	-0.087262	0.100070	0.991147	0.786791	0.617181	0.006957	-0.611021	0.780432	-0.132590	0	0	0
57328	0	0	0	0	0	9.709265	-0.029311	-1.209433	0.004509	-0.004821	-0.005269	-0.861816	0.288086	-0.208008	0.591037	-0.327162	-0.677692	-0.290472	176.990275	-82.369388	131.094833	-0.087281	0.100071	0.991145	0.786790	0.617182	0.006972	-0.611019	0.780431	-0.132603	0	0	0
57329	0	0	0	0	0	9.757954	-0.025791	-1.209948	0.002272	-0.002774	-0.005754	-0.861572	0.289551	-0.207764	0.591044	-0.327153	-0.677688	-0.290476	176.985746	-82.370667	131.099873	-0.087275	0.100046	0.991148	0.786784	0.617189	0.006981	-0.611027	0.780428	-0.132580	0	0	0
57330	0	0	0	0	0	9.759399	-0.048957	-1.204709	0.000169	-0.005012	-0.005747	-0.865723	0.285889	-0.208496	0.591029	-0.327161	-0.677689	-0.290495	176.975146	-82.369774	131.108008	-0.087300	0.100045	0.991146	0.786809	0.617157	0.007007	-0.610991	0.780454	-0.132594	0	0	0
57331	0	0	0	0	0	9.734990	-0.050076	-1.204991	0.006601	-0.002340	-0.003195	-0.865234	0.293945	-0.200439	0.591049	-0.327147	-0.677686	-0.290477	176.983834	-82.371370	131.102209	-0.087272	0.100033	0.991149	0.786779	0.617195	0.006985	-0.611034	0.780425	-0.132568	0	0	0
57332	0	0	0	0	0	9.757822	-0.024531	-1.211036	-0.002013	-0.004866	-0.003906	-0.870361	0.292480	-0.206299	0.591034	-0.327168	-0.677681	-0.290498	176.979812	-82.370617	131.102445	-0.087280	0.100043	0.991148	0.786819	0.617144	0.006995	-0.610981	0.780465	-0.132580	0	0	0
57333	0	0	0	0	0	9.710257	-0.045139	-1.181941	-0.003120	-0.004085	-0.006228	-0.856934	0.282959	-0.196533	0.591026	-0.327178	-0.677673	-0.290521	176.971122	-82.370998	131.108168	-0.087286	0.100029	0.991148	0.786850	0.617104	0.007015	-0.610940	0.780498	-0.132573	0	0	0
57334	0	0	0	0	0	9.734851	-0.048590	-1.206176	-0.003120	-0.004085	-0.006228	-0.864990	0.292236	-0.203613	0.591008	-0.327194	-0.677667	-0.290553	176.956377	-82.370621	131.118584	-0.087309	0.100018	0.991148	0.786896	0.617046	0.007049	-0.610879	0.780545	-0.132577	0	0	0
57335	0	0	0	0	0	9.710420	-0.049623	-1.206633	0.000224	-0.006913	-0.003421	-0.861572	0.286621	-0.194824	0.590999	-0.327208	-0.677668	-0.290553	176.961649	-82.369409	131.112064	-0.087311	0.100044	0.991145	0.786909	0.617028	0.007038	-0.610860	0.780556	-0.132599	0	0	0
57336	0	0	0	0	0	9.710630	-0.054950	-1.230903	-0.003143	-0.003600	-0.002069	-0.864014	0.288086	-0.208008	0.590988	-0.327236	-0.677655	-0.290574	176.964546	-82.369436	131.104667	-0.087298	0.100055	0.991145	0.786958	0.616966	0.007031	-0.610799	0.780603	-0.132599	0	0	0
57337	0	0	0	0	0	9.735904	-0.065598	-1.178263	-0.002013	-0.004866	-0.003905	-0.869629	0.292969	-0.203125	0.590983	-0.327252	-0.677647	-0.290585	176.965856	-82.369406	131.100944	-0.087292	0.100061	0.991145	0.786984	0.616933	0.007028	-0.610767	0.780629	-0.132600	0	0	0
57338	0	0	0	0	0	9.734619	-0.047117	-1.208108	0.000157	-0.004770	-0.003666	-0.866699	0.291504	-0.205322	0.590971	-0.327267	-0.677644	-0.290598	176.964086	-82.368715	131.100164	-0.087298	0.100071	0.991143	0.787012	0.616898	0.007033	-0.610731	0.780655	-0.132611	0	0	0
57339	0	0	0	0	0	9.758666	-0.039508	-1.184859	-0.000950	-0.003989	-0.005988	-0.862549	0.295654	-0.203857	0.590968	-0.327271	-0.677639	-0.290613	176.957424	-82.369180	131.105178	-0.087302	0.100057	0.991144	0.787029	0.616876	0.007048	-0.610708	0.780674	-0.132602	0	0	0
57340	0	0	0	0	0	9.735753	-0.064293	-1.179580	0.002327	-0.004674	-0.003427	-0.863281	0.287109	-0.197021	0.590961	-0.327280	-0.677639	-0.290618	176.957898	-82.368551	131.103388	-0.087306	0.100068	0.991143	0.787043	0.616858	0.007048	-0.610689	0.780687	-0.132613	0	0	0
57341	0	0	0	0	0	9.735974	-0.069604	-1.203738	0.003379	-0.003554	-0.003431	-0.870361	0.287842	-0.197998	0.590969	-0.327281	-0.677634	-0.290612	176.964664	-82.369273	131.097147	-0.087287	0.100068	0.991144	0.787038	0.616865	0.007031	-0.610698	0.780682	-0.132602	0	0	0
57342	0	0	0	0	0	9.713071	-0.094298	-1.198412	-0.000938	-0.004231	-0.008066	-0.862793	0.287354	-0.202881	0.590951	-0.327283	-0.677635	-0.290642	176.943359	-82.368757	131.115442	-0.087324	0.100047	0.991143	0.787068	0.616826	0.007081	-0.610654	0.780715	-0.132608	0	0	0
57343	0	0	0	0	0	9.735870	-0.068646	-1.204636	0.004553	-0.006478	-0.000863	-0.868164	0.284668	-0.203613	0.590955	-0.327292	-0.677637	-0.290620	176.961636	-82.367861	131.098347	-0.087305	0.100085	0.991141	0.787057	0.616840	0.007040	-0.610671	0.780699	-0.132626	0	0	0
57344	0	0	0	0	0	9.711424	-0.069843	-1.205209	0.004587	-0.007204	-0.007099	-0.861328	0.293701	-0.205566	0.590937	-0.327286	-0.677654	-0.290623	176.948306	-82.365673	131.111792	-0.087353	0.100093	0.991136	0.787054	0.616843	0.007073	-0.610668	0.780696	-0.132662	0	0	0
57345	0	0	0	0	0	9.736969	-0.085738	-1.176521	0.002350	-0.005158	-0.007584	-0.872314	0.291748	-0.200195	0.590933	-0.327276	-0.677660	-0.290630	176.936626	-82.365441	131.123865	-0.087377	0.100078	0.991136	0.787049	0.616850	0.007100	-0.610671	0.780692	-0.132664	0	0	0
57346	0	0	0	0	0	9.761274	-0.083513	-1.177164	0.003469	-0.006181	-0.007341	-0.860596	0.285400	-0.197510	0.590917	-0.327271	-0.677672	-0.290640	176.921401	-82.363831	131.138574	-0.087421	0.100076	0.991132	0.787053	0.616845	0.007137	-0.610660	0.780697	-0.132690	0	0	0
57347	0	0	0	0	0	9.761483	-0.088692	-1.201383	0.007719	-0.003361	-0.002953	-0.862305	0.285400	-0.207031	0.590933	-0.327260	-0.677673	-0.290618	176.932051	-82.364623	131.130896	-0.087398	0.100078	0.991134	0.787022	0.616884	0.007111	-0.610703	0.780665	-0.132678	0	0	0
57348	0	0	0	0	0	9.759923	-0.064551	-1.207401	0.013212	-0.004918	-0.008468	-0.865967	0.292725	-0.212646	0.590936	-0.327220	-0.677697	-0.290601	176.917311	-82.363700	131.150749	-0.087444	0.100059	0.991132	0.786965	0.616956	0.007146	-0.610770	0.780611	-0.132692	0	0	0
57349	0	0	0	0	0	9.735265	-0.060021	-1.183830	0.016344	-0.001073	-0.004322	-0.866211	0.289307	-0.194824	0.590975	-0.327171	-0.677706	-0.290555	176.926599	-82.366038	131.150072	-0.087416	0.100030	0.991137	0.786873	0.617073	0.007122	-0.610892	0.780522	-0.132653	0	0	0
57350	0	0	0	0	0	9.733719	-0.035823	-1.189699	0.009924	-0.003992	-0.008947	-0.864990	0.287598	-0.205566	0.590975	-0.327139	-0.677723	-0.290552	176.907715	-82.365631	131.172205	-0.087459	0.100001	0.991136	0.786836	0.617120	0.007167	-0.610933	0.780489	-0.132658	0	0	0
57351	0	0	0	0	0	9.735191	-0.058795	-1.184501	0.011043	-0.005014	-0.008703	-0.864746	0.288330	-0.205811	0.590982	-0.327100	-0.677744	-0.290533	176.896127	-82.365332	131.188956	-0.087492	0.099980	0.991135	0.786780	0.617192	0.007194	-0.611002	0.780434	-0.132661	0	0	0
57352	0	0	0	0	0	9.735390	-0.063828	-1.208775	0.012151	-0.005794	-0.006381	-0.863525	0.288086	-0.204346	0.590983	-0.327072	-0.677765	-0.290512	176.889894	-82.363972	131.199612	-0.087526	0.099981	0.991132	0.786731	0.617254	0.007209	-0.611059	0.780386	-0.132684	0	0	0
57353	0	0	0	0	0	9.757907	-0.032598	-1.191300	0.014310	-0.005454	-0.004063	-0.860107	0.294678	-0.206299	0.591003	-0.327038	-0.677784	-0.290466	176.900071	-82.363691	131.196584	-0.087524	0.099990	0.991132	0.786655	0.617351	0.007186	-0.611157	0.780308	-0.132690	0	0	0
57354	0	0	0	0	0	9.731947	-0.010332	-1.197403	0.015418	-0.006233	-0.001740	-0.861328	0.290283	-0.203613	0.591014	-0.327017	-0.677804	-0.290419	176.915613	-82.362223	131.187159	-0.087524	0.100023	0.991128	0.786591	0.617433	0.007151	-0.611240	0.780238	-0.132717	0	0	0
57355	0	0	0	0	0	9.730344	0.013430	-1.203667	0.008907	-0.006525	-0.002456	-0.870117	0.289795	-0.200928	0.591024	-0.327007	-0.677815	-0.290386	176.930649	-82.361399	131.176006	-0.087514	0.100051	0.991126	0.786551	0.617485	0.007117	-0.611293	0.780194	-0.132733	0	0	0
57356	0	0	0	0	0	9.728767	0.037011	-1.209710	0.006568	-0.001607	0.003043	-0.863525	0.289307	-0.205322	0.591044	-0.327022	-0.677801	-0.290362	176.960468	-82.362724	131.147060	-0.087448	0.100078	0.991129	0.786544	0.617493	0.007047	-0.611311	0.780183	-0.132714	0	0	0
57357	0	0	0	0	0	9.756395	-0.014445	-1.222644	0.003458	-0.005941	-0.005255	-0.867676	0.288574	-0.205811	0.591042	-0.327017	-0.677807	-0.290357	176.959526	-82.362067	131.148829	-0.087459	0.100084	0.991128	0.786535	0.617505	0.007050	-0.611321	0.780174	-0.132726	0	0	0
57358	0	0	0	0	0	9.731721	-0.010070	-1.199242	-0.005324	-0.003457	-0.000225	-0.864502	0.284180	-0.201172	0.591031	-0.327059	-0.677786	-0.290380	176.969011	-82.362233	131.133525	-0.087430	0.100105	0.991128	0.786599	0.617424	0.007028	-0.611243	0.780235	-0.132724	0	0	0
57359	0	0	0	0	0	9.731652	-0.009908	-1.199799	-0.005177	-0.007986	-0.001806	-0.859619	0.291504	-0.206787	0.591013	-0.327094	-0.677781	-0.290390	176.977783	-82.360515	131.120588	-0.087427	0.100147	0.991124	0.786645	0.617366	0.007009	-0.611184	0.780275	-0.132755	0	0	0
57360	0	0	0	0	0	9.756176	-0.013720	-1.224396	-0.008466	-0.007060	-0.002288	-0.861572	0.291504	-0.202393	0.590982	-0.327143	-0.677770	-0.290425	176.977477	-82.358557	131.113347	-0.087437	0.100183	0.991120	0.786726	0.617263	0.007011	-0.611079	0.780353	-0.132788	0	0	0
57361	0	0	0	0	0	9.733016	-0.033012	-1.195524	-0.007415	-0.005940	-0.002292	-0.858887	0.293701	-0.204346	0.590967	-0.327181	-0.677755	-0.290447	176.983500	-82.358060	131.101854	-0.087422	0.100207	0.991118	0.786785	0.617187	0.006998	-0.611004	0.780409	-0.132798	0	0	0
57362	0	0	0	0	0	9.757550	-0.036731	-1.220029	-0.004115	-0.007109	-0.003888	-0.857666	0.291504	-0.204346	0.590940	-0.327211	-0.677753	-0.290471	176.978873	-82.356026	131.101487	-0.087445	0.100235	0.991114	0.786839	0.617119	0.007011	-0.610932	0.780460	-0.132832	0	0	0
57363	0	0	0	0	0	9.783118	-0.052770	-1.191448	0.000237	-0.007157	-0.005489	-0.857910	0.294678	-0.204834	0.590929	-0.327218	-0.677758	-0.290475	176.976188	-82.354745	131.103171	-0.087462	0.100249	0.991111	0.786849	0.617106	0.007018	-0.610917	0.780468	-0.132854	0	0	0
57364	0	0	0	0	0	9.736087	-0.084903	-1.209997	0.002386	-0.006573	-0.001094	-0.868896	0.291260	-0.199951	0.590919	-0.327238	-0.677759	-0.290469	176.987071	-82.353101	131.090913	-0.087460	0.100289	0.991107	0.786865	0.617086	0.006994	-0.610897	0.780479	-0.132884	0	0	0
57365	0	0	0	0	0	9.734506	-0.061026	-1.216018	0.005481	-0.001314	-0.003436	-0.860107	0.291016	-0.195801	0.590939	-0.327228	-0.677751	-0.290460	176.994655	-82.355154	131.085152	-0.087426	0.100271	0.991112	0.786846	0.617110	0.006975	-0.610925	0.780462	-0.132849	0	0	0
57366	0	0	0	0	0	9.735745	-0.078558	-1.187096	0.005718	-0.008471	-0.008923	-0.866211	0.290771	-0.198975	0.590916	-0.327215	-0.677775	-0.290463	176.974510	-82.352189	131.106127	-0.087497	0.100277	0.991105	0.786835	0.617124	0.007024	-0.610930	0.780450	-0.132898	0	0	0
57367	0	0	0	0	0	9.734361	-0.059850	-1.217235	0.011099	-0.006912	-0.006373	-0.855713	0.292480	-0.197754	0.590920	-0.327188	-0.677797	-0.290435	176.973762	-82.350822	131.111760	-0.087522	0.100287	0.991102	0.786782	0.617191	0.007027	-0.610994	0.780396	-0.132921	0	0	0
57368	0	0	0	0	0	9.758393	-0.052180	-1.194378	0.011168	-0.009054	-0.006123	-0.862549	0.292725	-0.205322	0.590909	-0.327169	-0.677826	-0.290410	176.968813	-82.347607	131.120553	-0.087574	0.100315	0.991094	0.786740	0.617245	0.007042	-0.611041	0.780350	-0.132976	0	0	0
57369	0	0	0	0	0	9.732386	-0.029528	-1.200733	0.007878	-0.008130	-0.006604	-0.859131	0.289307	-0.200195	0.590905	-0.327152	-0.677847	-0.290391	176.965948	-82.345666	131.126678	-0.087607	0.100331	0.991090	0.786704	0.617290	0.007050	-0.611082	0.780312	-0.133010	0	0	0
57370	0	0	0	0	0	9.758193	-0.051141	-1.196050	0.008998	-0.009152	-0.006360	-0.858398	0.286865	-0.200439	0.590889	-0.327138	-0.677874	-0.290374	176.958783	-82.342388	131.136452	-0.087661	0.100359	0.991082	0.786675	0.617327	0.007070	-0.611112	0.780279	-0.133065	0	0	0
57371	0	0	0	0	0	9.733977	-0.057830	-1.220399	0.009980	-0.005889	-0.006614	-0.866699	0.284424	-0.201660	0.590895	-0.327111	-0.677892	-0.290352	176.955843	-82.341691	131.143888	-0.087682	0.100357	0.991080	0.786626	0.617389	0.007077	-0.611172	0.780230	-0.133077	0	0	0
57372	0	0	0	0	0	9.710389	-0.065763	-1.143972	0.004568	-0.006718	-0.002929	-0.860352	0.291504	-0.208984	0.590886	-0.327118	-0.677899	-0.290344	176.960192	-82.339910	131.139484	-0.087695	0.100386	0.991076	0.786627	0.617388	0.007069	-0.611169	0.780227	-0.133108	0	0	0
57373	0	0	0	0	0	9.756207	-0.020767	-1.179669	0.007641	-0.000971	-0.001119	-0.862061	0.290039	-0.197266	0.590914	-0.327107	-0.677890	-0.290320	176.977884	-82.342298	131.125062	-0.087642	0.100377	0.991082	0.786594	0.617431	0.007025	-0.611219	0.780195	-0.133069	0	0	0
57374	0	0	0	0	0	9.733584	-0.051284	-1.197976	0.007819	-0.006231	-0.008927	-0.864014	0.293457	-0.194580	0.590903	-0.327084	-0.677911	-0.290320	176.958463	-82.340614	131.146521	-0.087699	0.100367	0.991078	0.786570	0.617461	0.007072	-0.611242	0.780172	-0.133096	0	0	0
57375	0	0	0	0	0	9.731734	-0.021481	-1.180448	0.009960	-0.005401	-0.002457	-0.860596	0.284912	-0.203125	0.590916	-0.327073	-0.677920	-0.290287	176.973559	-82.340199	131.135406	-0.087684	0.100389	0.991077	0.786529	0.617514	0.007037	-0.611297	0.780127	-0.133105	0	0	0
57376	0	0	0	0	0	9.756262	-0.025328	-1.204874	0.007799	-0.005743	-0.004772	-0.865723	0.281494	-0.205811	0.590912	-0.327063	-0.677933	-0.290275	176.971700	-82.338920	131.139135	-0.087705	0.100400	0.991074	0.786508	0.617540	0.007043	-0.611321	0.780105	-0.133127	0	0	0
57377	0	0	0	0	0	9.709256	-0.057377	-1.223200	0.002339	-0.004918	-0.005492	-0.856689	0.289551	-0.199951	0.590912	-0.327058	-0.677936	-0.290276	176.967835	-82.338889	131.143445	-0.087713	0.100394	0.991074	0.786503	0.617546	0.007052	-0.611326	0.780101	-0.133127	0	0	0
57378	0	0	0	0	0	9.758152	-0.059297	-1.247717	0.002348	-0.005162	-0.007569	-0.861328	0.283203	-0.199463	0.590897	-0.327054	-0.677943	-0.290292	176.950829	-82.337858	131.159305	-0.087753	0.100383	0.991072	0.786513	0.617533	0.007092	-0.611307	0.780113	-0.133143	0	0	0
57379	0	0	0	0	0	9.733504	-0.054750	-1.224305	-0.002022	-0.004627	-0.001814	-0.861816	0.286133	-0.198730	0.590895	-0.327076	-0.677932	-0.290298	176.960860	-82.338010	131.146712	-0.087729	0.100400	0.991072	0.786542	0.617496	0.007069	-0.611274	0.780140	-0.133141	0	0	0
57380	0	0	0	0	0	9.734979	-0.077739	-1.219357	0.004687	-0.010080	-0.013059	-0.863037	0.293945	-0.208252	0.590859	-0.327054	-0.677966	-0.290314	176.922974	-82.333997	131.184993	-0.087842	0.100394	0.991063	0.786533	0.617506	0.007161	-0.611269	0.780133	-0.133206	0	0	0
57381	0	0	0	0	0	9.759491	-0.081201	-1.243892	0.005540	-0.003211	-0.001106	-0.868408	0.287109	-0.198486	0.590876	-0.327054	-0.677961	-0.290294	176.940447	-82.335073	131.169428	-0.087802	0.100404	0.991065	0.786515	0.617530	0.007119	-0.611298	0.780112	-0.133189	0	0	0
57382	0	0	0	0	0	9.733299	-0.053098	-1.226004	0.007740	-0.003844	-0.007097	-0.867432	0.282471	-0.205078	0.590876	-0.327034	-0.677971	-0.290293	176.928246	-82.334810	131.183557	-0.087830	0.100385	0.991064	0.786493	0.617558	0.007148	-0.611323	0.780093	-0.133192	0	0	0
57383	0	0	0	0	0	9.731907	-0.034541	-1.255836	0.004509	-0.004819	-0.005252	-0.862549	0.288330	-0.200928	0.590879	-0.327024	-0.677976	-0.290286	176.926720	-82.334755	131.186571	-0.087836	0.100381	0.991064	0.786476	0.617579	0.007151	-0.611343	0.780077	-0.133193	0	0	0
57384	0	0	0	0	0	9.732979	-0.046557	-1.203076	0.005550	-0.003454	-0.003182	-0.867432	0.291016	-0.196533	0.590881	-0.327023	-0.677976	-0.290281	176.929822	-82.334834	131.183994	-0.087830	0.100384	0.991064	0.786471	0.617586	0.007144	-0.611350	0.780071	-0.133192	0	0	0
57385	0	0	0	0	0	9.706998	-0.023964	-1.209013	0.002348	-0.005163	-0.007566	-0.857178	0.289551	-0.197510	0.590876	-0.327015	-0.677982	-0.290289	176.918341	-82.334459	131.195512	-0.087855	0.100372	0.991064	0.786469	0.617588	0.007171	-0.611349	0.780071	-0.133197	0	0	0
57386	0	0	0	0	0	9.733099	-0.051199	-1.227673	-0.000961	-0.003751	-0.003895	-0.863770	0.293213	-0.197754	0.590866	-0.327031	-0.677975	-0.290307	176.914748	-82.334346	131.195926	-0.087857	0.100372	0.991063	0.786503	0.617544	0.007179	-0.611305	0.780105	-0.133199	0	0	0
57387	0	0	0	0	0	9.758320	-0.055691	-1.151366	-0.004163	-0.005460	-0.008279	-0.863770	0.296387	-0.207520	0.590847	-0.327041	-0.677973	-0.290339	176.897106	-82.333777	131.209792	-0.087888	0.100359	0.991062	0.786542	0.617495	0.007221	-0.611251	0.780147	-0.133206	0	0	0
57388	0	0	0	0	0	9.732768	-0.044509	-1.204861	-0.008552	-0.004437	0.001627	-0.864258	0.284424	-0.204102	0.590830	-0.327100	-0.677947	-0.290366	176.912794	-82.333444	131.186362	-0.087850	0.100399	0.991061	0.786627	0.617387	0.007185	-0.611147	0.780227	-0.133214	0	0	0
57389	0	0	0	0	0	9.732483	-0.038290	-1.181675	-0.009545	-0.007022	-0.010823	-0.863281	0.287354	-0.197754	0.590796	-0.327116	-0.677947	-0.290419	176.881159	-82.332099	131.211774	-0.087910	0.100377	0.991058	0.786691	0.617305	0.007260	-0.611056	0.780294	-0.133233	0	0	0
57390	0	0	0	0	0	9.732624	-0.043138	-1.206073	-0.013924	-0.006244	-0.002992	-0.864258	0.291992	-0.197754	0.590758	-0.327177	-0.677927	-0.290475	176.874557	-82.330588	131.207730	-0.087920	0.100403	0.991055	0.786804	0.617159	0.007276	-0.610908	0.780406	-0.133259	0	0	0
57391	0	0	0	0	0	9.758705	-0.070397	-1.224934	-0.009573	-0.006290	-0.004593	-0.865967	0.290527	-0.198975	0.590733	-0.327216	-0.677914	-0.290512	176.869186	-82.329646	131.206143	-0.087928	0.100418	0.991052	0.786879	0.617065	0.007290	-0.610811	0.780479	-0.133274	0	0	0
57392	0	0	0	0	0	9.736071	-0.100850	-1.243417	-0.002011	-0.004871	-0.003888	-0.860352	0.292725	-0.199707	0.590718	-0.327237	-0.677908	-0.290533	176.865287	-82.328893	131.206258	-0.087937	0.100428	0.991051	0.786919	0.617013	0.007300	-0.610758	0.780518	-0.133287	0	0	0
57393	0	0	0	0	0	9.735815	-0.094752	-1.220034	0.004439	-0.002675	-0.005503	-0.863037	0.292236	-0.198730	0.590727	-0.327226	-0.677906	-0.290531	176.863586	-82.330043	131.209140	-0.087929	0.100408	0.991053	0.786906	0.617029	0.007302	-0.610776	0.780508	-0.133267	0	0	0
57394	0	0	0	0	0	9.734207	-0.070624	-1.225937	0.008780	-0.002476	-0.005029	-0.867432	0.283936	-0.199707	0.590736	-0.327208	-0.677911	-0.290522	176.860467	-82.330625	131.214707	-0.087932	0.100392	0.991055	0.786880	0.617063	0.007309	-0.610810	0.780483	-0.133256	0	0	0
57395	0	0	0	0	0	9.735557	-0.088361	-1.196702	0.007651	-0.001211	-0.003196	-0.864746	0.287354	-0.205322	0.590759	-0.327193	-0.677906	-0.290505	176.869334	-82.332662	131.208848	-0.087899	0.100375	0.991059	0.786848	0.617104	0.007287	-0.610855	0.780454	-0.133222	0	0	0
57396	0	0	0	0	0	9.733941	-0.064300	-1.202648	0.011031	-0.004763	-0.006615	-0.864990	0.288574	-0.192871	0.590761	-0.327166	-0.677923	-0.290490	176.861294	-82.331887	131.220682	-0.087928	0.100366	0.991058	0.786806	0.617157	0.007306	-0.610904	0.780413	-0.133234	0	0	0
57397	0	0	0	0	0	9.733696	-0.058142	-1.179193	0.014181	-0.001400	-0.006635	-0.867432	0.289795	-0.204590	0.590789	-0.327120	-0.677934	-0.290460	176.859341	-82.333706	131.229509	-0.087923	0.100329	0.991062	0.786732	0.617251	0.007309	-0.611001	0.780343	-0.133203	0	0	0
57398	0	0	0	0	0	9.732097	-0.034123	-1.184977	0.009821	-0.001111	-0.002958	-0.865479	0.292480	-0.206055	0.590807	-0.327103	-0.677933	-0.290444	176.865302	-82.335134	131.226516	-0.087901	0.100315	0.991065	0.786701	0.617291	0.007294	-0.611044	0.780313	-0.133179	0	0	0
57399	0	0	0	0	0	9.756624	-0.037844	-1.209278	0.008931	-0.007004	-0.006599	-0.860352	0.287109	-0.206055	0.590809	-0.327079	-0.677952	-0.290422	176.862224	-82.333915	131.233766	-0.087928	0.100320	0.991062	0.786656	0.617349	0.007302	-0.611099	0.780267	-0.133200	0	0	0
57400	0	0	0	0	0	9.756561	-0.037302	-1.209799	0.009910	-0.003741	-0.006856	-0.867920	0.292725	-0.203125	0.590813	-0.327053	-0.677965	-0.290413	176.852280	-82.333716	131.246873	-0.087953	0.100302	0.991062	0.786621	0.617393	0.007325	-0.611140	0.780234	-0.133202	0	0	0
57401	0	0	0	0	0	9.731750	-0.027090	-1.162389	0.009831	-0.001355	-0.005032	-0.870117	0.294678	-0.205078	0.590838	-0.327023	-0.677967	-0.290392	176.854967	-82.335766	131.248800	-0.087933	0.100273	0.991067	0.786571	0.617456	0.007317	-0.611206	0.780188	-0.133167	0	0	0
57402	0	0	0	0	0	9.756295	-0.030882	-1.186526	0.007722	-0.003352	-0.002942	-0.866943	0.278076	-0.202393	0.590845	-0.327017	-0.677969	-0.290379	176.860318	-82.335912	131.245209	-0.087925	0.100276	0.991067	0.786553	0.617480	0.007304	-0.611231	0.780169	-0.133165	0	0	0
57403	0	0	0	0	0	9.730523	-0.014160	-1.216014	0.007660	-0.001455	-0.005269	-0.859863	0.280518	-0.209717	0.590865	-0.326992	-0.677969	-0.290367	176.859921	-82.337841	131.249010	-0.087910	0.100246	0.991071	0.786516	0.617526	0.007304	-0.611280	0.780136	-0.133131	0	0	0
57404	0	0	0	0	0	9.732093	-0.037375	-1.210538	0.002269	-0.002776	-0.005736	-0.858154	0.293213	-0.202393	0.590861	-0.326991	-0.677966	-0.290382	176.850130	-82.338230	131.257544	-0.087920	0.100227	0.991072	0.786529	0.617510	0.007326	-0.611263	0.780151	-0.133124	0	0	0
57405	0	0	0	0	0	9.732042	-0.036799	-1.210968	0.005640	-0.006083	-0.007077	-0.859863	0.291748	-0.198975	0.590861	-0.326973	-0.677979	-0.290374	176.842524	-82.337566	131.267578	-0.087946	0.100221	0.991071	0.786502	0.617544	0.007344	-0.611294	0.780125	-0.133134	0	0	0
57406	0	0	0	0	0	9.731800	-0.030386	-1.187518	-0.001085	0.000042	-0.008545	-0.856201	0.291992	-0.201904	0.590857	-0.326968	-0.677968	-0.290413	176.818201	-82.339478	131.288837	-0.087961	0.100163	0.991075	0.786532	0.617505	0.007399	-0.611253	0.780164	-0.133098	0	0	0
57407	0	0	0	0	0	9.732183	-0.041091	-1.235291	0.003461	-0.005939	-0.005238	-0.864746	0.293213	-0.200195	0.590854	-0.326966	-0.677974	-0.290408	176.818179	-82.338817	131.289491	-0.087970	0.100171	0.991074	0.786525	0.617513	0.007400	-0.611260	0.780156	-0.133109	0	0	0
57408	0	0	0	0	0	9.732120	-0.040655	-1.235807	0.006682	-0.004717	-0.005008	-0.861572	0.287354	-0.206787	0.590852	-0.326957	-0.677982	-0.290402	176.814473	-82.338119	131.294437	-0.087986	0.100172	0.991072	0.786512	0.617531	0.007409	-0.611276	0.780142	-0.133121	0	0	0
57409	0	0	0	0	0	9.733667	-0.063863	-1.230585	0.008861	-0.004861	-0.006845	-0.868896	0.293213	-0.194824	0.590860	-0.326930	-0.677995	-0.290385	176.809851	-82.338075	131.303087	-0.088002	0.100160	0.991072	0.786468	0.617587	0.007420	-0.611330	0.780099	-0.133121	0	0	0
57410	0	0	0	0	0	9.733426	-0.057638	-1.207146	0.012010	-0.001497	-0.006867	-0.862549	0.296631	-0.205566	0.590875	-0.326894	-0.678005	-0.290372	176.800531	-82.339159	131.316778	-0.088013	0.100124	0.991075	0.786420	0.617648	0.007440	-0.611390	0.780055	-0.133101	0	0	0
57411	0	0	0	0	0	9.733612	-0.062848	-1.231070	0.015302	-0.002417	-0.006383	-0.866455	0.287842	-0.205078	0.590902	-0.326849	-0.678019	-0.290337	176.801756	-82.340435	131.322942	-0.088010	0.100098	0.991078	0.786340	0.617749	0.007436	-0.611493	0.779979	-0.133079	0	0	0
57412	0	0	0	0	0	9.731771	-0.033087	-1.213248	0.010952	-0.002373	-0.004782	-0.864990	0.287109	-0.209717	0.590915	-0.326825	-0.678026	-0.290320	176.800902	-82.341084	131.327480	-0.088010	0.100083	0.991079	0.786301	0.617799	0.007438	-0.611544	0.779941	-0.133068	0	0	0
57413	0	0	0	0	0	9.732947	-0.044882	-1.160274	0.005498	-0.001800	-0.007577	-0.861084	0.282471	-0.204102	0.590928	-0.326798	-0.678027	-0.290320	176.789796	-82.342852	131.341029	-0.088014	0.100039	0.991083	0.786273	0.617834	0.007462	-0.611578	0.779919	-0.133036	0	0	0
57414	0	0	0	0	0	9.731718	-0.032154	-1.213697	0.007723	-0.003350	-0.002937	-0.855713	0.281494	-0.205322	0.590935	-0.326792	-0.678030	-0.290308	176.795175	-82.343002	131.337411	-0.088006	0.100043	0.991083	0.786255	0.617858	0.007449	-0.611603	0.779900	-0.133034	0	0	0
57415	0	0	0	0	0	9.756035	-0.030094	-1.214233	0.003399	-0.004043	-0.007561	-0.866943	0.291016	-0.210205	0.590937	-0.326774	-0.678035	-0.290312	176.782876	-82.343436	131.350881	-0.088024	0.100016	0.991084	0.786241	0.617875	0.007477	-0.611618	0.779889	-0.133025	0	0	0
57416	0	0	0	0	0	9.755996	-0.029453	-1.214561	0.008790	-0.002719	-0.007093	-0.872559	0.294189	-0.194092	0.590942	-0.326749	-0.678044	-0.290309	176.771030	-82.343813	131.365259	-0.088045	0.099989	0.991085	0.786212	0.617911	0.007504	-0.611652	0.779864	-0.133017	0	0	0
57417	0	0	0	0	0	9.733013	-0.048566	-1.185247	0.007732	-0.003595	-0.005010	-0.857910	0.294678	-0.204102	0.590955	-0.326731	-0.678048	-0.290292	176.773396	-82.344478	131.366053	-0.088039	0.099980	0.991087	0.786178	0.617954	0.007498	-0.611697	0.779831	-0.133006	0	0	0
57418	0	0	0	0	0	9.709033	-0.061159	-1.232790	0.005489	-0.001555	-0.005501	-0.863770	0.294434	-0.202881	0.590960	-0.326720	-0.678047	-0.290298	176.766152	-82.345572	131.373880	-0.088040	0.099953	0.991089	0.786171	0.617963	0.007514	-0.611705	0.779828	-0.132986	0	0	0
57419	0	0	0	0	0	9.757317	-0.046101	-1.185917	0.009903	-0.003494	-0.004772	-0.863770	0.287109	-0.199219	0.590978	-0.326696	-0.678053	-0.290273	176.771565	-82.346392	131.372892	-0.088029	0.099944	0.991091	0.786124	0.618023	0.007501	-0.611767	0.779781	-0.132972	0	0	0
57420	0	0	0	0	0	9.732938	-0.047346	-1.185918	0.008709	-0.000332	-0.005270	-0.866699	0.287598	-0.198486	0.590994	-0.326674	-0.678052	-0.290269	176.766855	-82.348194	131.380024	-0.088021	0.099910	0.991096	0.786098	0.618056	0.007510	-0.611803	0.779759	-0.132941	0	0	0
57421	0	0	0	0	0	9.758911	-0.068910	-1.180480	0.009840	-0.001597	-0.007098	-0.865967	0.296143	-0.209229	0.591013	-0.326640	-0.678058	-0.290255	176.760333	-82.349850	131.390890	-0.088021	0.099872	0.991099	0.786050	0.618117	0.007523	-0.611864	0.779716	-0.132911	0	0	0
57422	0	0	0	0	0	9.731468	-0.028537	-1.215790	0.009967	-0.005389	-0.002442	-0.859375	0.290771	-0.196289	0.591017	-0.326631	-0.678069	-0.290230	176.769605	-82.348850	131.384642	-0.088021	0.099894	0.991097	0.786019	0.618157	0.007503	-0.611904	0.779681	-0.132930	0	0	0
57423	0	0	0	0	0	9.754167	-0.002867	-1.221976	0.008718	-0.000578	-0.007343	-0.862549	0.285645	-0.197998	0.591039	-0.326598	-0.678069	-0.290222	176.762381	-82.351221	131.395689	-0.088013	0.099847	0.991103	0.785977	0.618210	0.007517	-0.611959	0.779645	-0.132888	0	0	0
57424	0	0	0	0	0	9.755762	-0.025987	-1.216520	0.011034	-0.004759	-0.006596	-0.860107	0.291260	-0.198975	0.591042	-0.326571	-0.678087	-0.290207	176.754421	-82.350447	131.407444	-0.088043	0.099839	0.991101	0.785935	0.618263	0.007536	-0.612009	0.779604	-0.132900	0	0	0
57425	0	0	0	0	0	9.731147	-0.021543	-1.193047	0.006675	-0.004470	-0.002924	-0.866699	0.289551	-0.196289	0.591052	-0.326565	-0.678089	-0.290187	176.764959	-82.350607	131.399212	-0.088026	0.099849	0.991101	0.785911	0.618294	0.007512	-0.612041	0.779579	-0.132899	0	0	0
57426	0	0	0	0	0	9.757476	-0.054742	-1.235478	0.007805	-0.005736	-0.004751	-0.865723	0.297363	-0.200684	0.591048	-0.326555	-0.678102	-0.290175	176.763243	-82.349334	131.402801	-0.088047	0.099860	0.991098	0.785891	0.618320	0.007517	-0.612065	0.779557	-0.132920	0	0	0
57427	0	0	0	0	0	9.755391	-0.019242	-1.194184	0.007733	-0.003595	-0.005005	-0.863281	0.292969	-0.194824	0.591060	-0.326539	-0.678106	-0.290160	176.765983	-82.349916	131.402949	-0.088041	0.099852	0.991100	0.785860	0.618359	0.007510	-0.612105	0.779527	-0.132911	0	0	0
57428	0	0	0	0	0	9.733029	-0.055710	-1.236019	0.008773	-0.002226	-0.002939	-0.860596	0.288086	-0.202148	0.591073	-0.326528	-0.678107	-0.290145	176.771695	-82.350710	131.399602	-0.088026	0.099847	0.991101	0.785835	0.618391	0.007496	-0.612139	0.779502	-0.132898	0	0	0
57429	0	0	0	0	0	9.756769	-0.036477	-1.165203	0.005498	-0.001802	-0.007571	-0.867188	0.289307	-0.204346	0.591083	-0.326506	-0.678107	-0.290148	176.761455	-82.352252	131.411616	-0.088029	0.099809	0.991105	0.785815	0.618416	0.007518	-0.612165	0.779487	-0.132870	0	0	0
57430	0	0	0	0	0	9.734415	-0.072857	-1.206987	0.012066	-0.003143	-0.002453	-0.866699	0.284668	-0.207520	0.591099	-0.326488	-0.678114	-0.290119	176.771346	-82.352536	131.405957	-0.088016	0.099814	0.991106	0.785770	0.618473	0.007495	-0.612224	0.779441	-0.132866	0	0	0
57431	0	0	0	0	0	9.734191	-0.066771	-1.183484	0.007669	-0.001700	-0.007332	-0.858887	0.286621	-0.198486	0.591116	-0.326456	-0.678118	-0.290112	176.762318	-82.354315	131.418557	-0.088018	0.099771	0.991110	0.785731	0.618523	0.007514	-0.612274	0.779407	-0.132834	0	0	0
57432	0	0	0	0	0	9.734178	-0.066298	-1.183621	0.012002	-0.001248	-0.004780	-0.864502	0.291504	-0.205811	0.591134	-0.326427	-0.678123	-0.290094	176.761801	-82.355609	131.423363	-0.088011	0.099747	0.991113	0.785685	0.618581	0.007514	-0.612334	0.779364	-0.132812	0	0	0
57433	0	0	0	0	0	9.732516	-0.042438	-1.189556	0.014238	-0.003040	-0.002212	-0.858887	0.291016	-0.200195	0.591164	-0.326398	-0.678131	-0.290048	176.779407	-82.356712	131.412590	-0.087980	0.099749	0.991115	0.785613	0.618673	0.007472	-0.612431	0.779291	-0.132795	0	0	0
57434	0	0	0	0	0	9.758681	-0.070095	-1.207993	0.008774	-0.002226	-0.002936	-0.865967	0.294678	-0.201904	0.591176	-0.326387	-0.678132	-0.290034	176.785139	-82.357506	131.409223	-0.087965	0.099744	0.991117	0.785588	0.618705	0.007458	-0.612465	0.779266	-0.132782	0	0	0
57435	0	0	0	0	0	9.757010	-0.046286	-1.213988	0.012067	-0.003142	-0.002450	-0.866211	0.282959	-0.200439	0.591201	-0.326364	-0.678137	-0.289996	176.801197	-82.358516	131.398603	-0.087935	0.099747	0.991120	0.785531	0.618777	0.007420	-0.612542	0.779208	-0.132767	0	0	0
57436	0	0	0	0	0	9.730769	-0.018288	-1.196180	0.008856	-0.004614	-0.004753	-0.862061	0.285645	-0.201904	0.591203	-0.326350	-0.678148	-0.289983	176.799804	-82.357885	131.402473	-0.087949	0.099750	0.991118	0.785504	0.618812	0.007424	-0.612575	0.779181	-0.132778	0	0	0
57437	0	0	0	0	0	9.731114	-0.029578	-1.244015	0.005546	-0.003203	-0.001092	-0.852295	0.287842	-0.205566	0.591219	-0.326349	-0.678143	-0.289963	176.816228	-82.358875	131.387901	-0.087912	0.099759	0.991120	0.785486	0.618835	0.007385	-0.612603	0.779161	-0.132763	0	0	0
57438	0	0	0	0	0	9.755042	-0.016331	-1.197074	0.007725	-0.003347	-0.002926	-0.858643	0.293213	-0.207031	0.591226	-0.326343	-0.678145	-0.289950	176.821674	-82.359027	131.384217	-0.087904	0.099763	0.991121	0.785468	0.618859	0.007372	-0.612628	0.779141	-0.132761	0	0	0
57439	0	0	0	0	0	9.732297	-0.041635	-1.191380	0.006586	-0.001833	0.000973	-0.860840	0.286621	-0.202637	0.591254	-0.326344	-0.678133	-0.289922	176.848740	-82.361069	131.359700	-0.087838	0.099774	0.991125	0.785443	0.618890	0.007307	-0.612669	0.779115	-0.132729	0	0	0
57440	0	0	0	0	0	9.732091	-0.035922	-1.167742	0.004350	-0.000042	-0.001595	-0.858887	0.286133	-0.204102	0.591268	-0.326347	-0.678119	-0.289922	176.857159	-82.363154	131.351065	-0.087799	0.099760	0.991130	0.785447	0.618886	0.007286	-0.612670	0.779120	-0.132694	0	0	0
57441	0	0	0	0	0	9.754980	-0.016260	-1.197579	0.003375	-0.003306	-0.001330	-0.864502	0.288330	-0.202881	0.591281	-0.326352	-0.678111	-0.289910	176.871924	-82.364159	131.337000	-0.087763	0.099769	0.991133	0.785441	0.618894	0.007251	-0.612683	0.779113	-0.132678	0	0	0
57442	0	0	0	0	0	9.732033	-0.035634	-1.168236	0.003383	-0.003553	-0.003403	-0.861816	0.286621	-0.201660	0.591280	-0.326356	-0.678108	-0.289913	176.872900	-82.364179	131.335316	-0.087760	0.099771	0.991133	0.785449	0.618884	0.007249	-0.612673	0.779120	-0.132678	0	0	0
57443	0	0	0	0	0	9.730548	-0.017657	-1.197983	-0.002106	-0.001997	0.002090	-0.856934	0.291748	-0.202393	0.591292	-0.326388	-0.678083	-0.289911	176.898862	-82.365993	131.306692	-0.087689	0.099791	0.991137	0.785480	0.618845	0.007187	-0.612643	0.779149	-0.132650	0	0	0
57444	0	0	0	0	0	9.758335	-0.068954	-1.210851	0.002416	-0.007064	-0.005211	-0.865479	0.294189	-0.197998	0.591275	-0.326395	-0.678092	-0.289917	176.892381	-82.363948	131.311972	-0.087722	0.099810	0.991132	0.785493	0.618829	0.007204	-0.612623	0.779159	-0.132685	0	0	0
57445	0	0	0	0	0	9.756615	-0.045089	-1.217204	0.001269	-0.005302	0.000760	-0.855469	0.288330	-0.203857	0.591279	-0.326419	-0.678083	-0.289903	176.916508	-82.363794	131.286902	-0.087680	0.099850	0.991132	0.785505	0.618814	0.007148	-0.612612	0.779166	-0.132690	0	0	0
57446	0	0	0	0	0	9.733865	-0.070467	-1.211557	0.001122	-0.001019	0.000248	-0.864502	0.293701	-0.206543	0.591288	-0.326439	-0.678063	-0.289907	176.931192	-82.365376	131.270081	-0.087633	0.099855	0.991135	0.785530	0.618783	0.007112	-0.612587	0.779190	-0.132665	0	0	0
57447	0	0	0	0	0	9.709305	-0.066273	-1.187742	-0.001041	-0.001370	-0.002064	-0.863281	0.282227	-0.196777	0.591299	-0.326452	-0.678044	-0.289915	176.940651	-82.367526	131.258841	-0.087589	0.099844	0.991140	0.785551	0.618757	0.007089	-0.612567	0.779212	-0.132629	0	0	0
57448	0	0	0	0	0	9.733823	-0.070103	-1.211918	0.001212	-0.003656	-0.003642	-0.857910	0.279541	-0.202637	0.591294	-0.326463	-0.678039	-0.289926	176.939393	-82.367480	131.258157	-0.087588	0.099846	0.991140	0.785571	0.618730	0.007092	-0.612541	0.779233	-0.132630	0	0	0
57449	0	0	0	0	0	9.710696	-0.083576	-1.158863	0.001212	-0.003656	-0.003642	-0.857422	0.289307	-0.200439	0.591297	-0.326467	-0.678033	-0.289928	176.942048	-82.368089	131.254946	-0.087575	0.099843	0.991142	0.785578	0.618722	0.007085	-0.612534	0.779239	-0.132619	0	0	0
57450	0	0	0	0	0	9.782468	-0.066140	-1.212931	0.003310	-0.001412	-0.003659	-0.855957	0.284424	-0.198975	0.591302	-0.326468	-0.678025	-0.289936	176.941405	-82.369327	131.254854	-0.087561	0.099827	0.991145	0.785586	0.618712	0.007085	-0.612526	0.779249	-0.132598	0	0	0
57451	0	0	0	0	0	9.733532	-0.063398	-1.189080	0.004505	-0.004572	-0.003155	-0.855957	0.293457	-0.206543	0.591309	-0.326467	-0.678025	-0.289924	176.949594	-82.369465	131.247836	-0.087547	0.099836	0.991145	0.785574	0.618727	0.007066	-0.612543	0.779236	-0.132596	0	0	0
57452	0	0	0	0	0	9.733319	-0.057389	-1.165583	0.006529	-0.000186	-0.003429	-0.862549	0.282471	-0.201904	0.591324	-0.326457	-0.678017	-0.289922	176.951502	-82.371411	131.247032	-0.087524	0.099812	0.991149	0.785562	0.618742	0.007060	-0.612561	0.779228	-0.132563	0	0	0
57453	0	0	0	0	0	9.757642	-0.055327	-1.166099	-0.000877	-0.006148	-0.005696	-0.857178	0.292236	-0.205322	0.591314	-0.326464	-0.678018	-0.289932	176.946124	-82.370685	131.250860	-0.087539	0.099816	0.991148	0.785578	0.618722	0.007073	-0.612539	0.779244	-0.132575	0	0	0
57454	0	0	0	0	0	9.735071	-0.086050	-1.184326	0.001204	-0.003408	-0.001568	-0.859131	0.281250	-0.204346	0.591312	-0.326481	-0.678009	-0.289937	176.953664	-82.370844	131.241294	-0.087520	0.099828	0.991148	0.785601	0.618693	0.007055	-0.612512	0.779265	-0.132573	0	0	0
57455	0	0	0	0	0	9.759005	-0.072589	-1.137551	-0.005228	-0.006107	-0.004100	-0.864014	0.286377	-0.199219	0.591298	-0.326506	-0.678002	-0.289957	176.952421	-82.370210	131.238502	-0.087522	0.099841	0.991147	0.785645	0.618638	0.007059	-0.612456	0.779307	-0.132584	0	0	0
57456	0	0	0	0	0	9.734944	-0.085405	-1.185415	0.004579	-0.006713	-0.002898	-0.855713	0.291260	-0.204590	0.591288	-0.326513	-0.678009	-0.289949	176.956968	-82.368439	131.233907	-0.087535	0.099871	0.991143	0.785645	0.618637	0.007050	-0.612453	0.779304	-0.132615	0	0	0
57457	0	0	0	0	0	9.783589	-0.081950	-1.186421	0.012141	-0.005281	-0.002191	-0.859863	0.283691	-0.193604	0.591307	-0.326493	-0.678021	-0.289907	176.973974	-82.368250	131.222513	-0.087517	0.099891	0.991142	0.785587	0.618712	0.007011	-0.612531	0.779242	-0.132620	0	0	0
57458	0	0	0	0	0	9.757869	-0.071530	-1.239949	0.015427	-0.005948	0.000369	-0.853760	0.290527	-0.200928	0.591322	-0.326479	-0.678037	-0.289854	176.998506	-82.367014	131.204025	-0.087499	0.099935	0.991139	0.785524	0.618792	0.006955	-0.612614	0.779172	-0.132645	0	0	0
57459	0	0	0	0	0	9.729779	-0.014716	-1.204255	0.013167	-0.003414	0.004020	-0.860596	0.282959	-0.207764	0.591356	-0.326476	-0.678034	-0.289794	177.042093	-82.367958	131.166141	-0.087422	0.099980	0.991141	0.785467	0.618865	0.006853	-0.612698	0.779108	-0.132634	0	0	0
57460	0	0	0	0	0	9.729750	-0.015201	-1.204483	0.017443	-0.001314	0.002168	-0.867188	0.286621	-0.200684	0.591394	-0.326455	-0.678036	-0.289737	177.074438	-82.369423	131.140937	-0.087361	0.100000	0.991145	0.785394	0.618960	0.006777	-0.612801	0.779031	-0.132612	0	0	0
57461	0	0	0	0	0	9.705190	-0.011400	-1.180743	0.007710	-0.002850	0.001223	-0.861328	0.287598	-0.203857	0.591419	-0.326454	-0.678030	-0.289703	177.101921	-82.370754	131.116650	-0.087304	0.100019	0.991148	0.785362	0.619000	0.006712	-0.612849	0.778996	-0.132593	0	0	0
57462	0	0	0	0	0	9.729498	-0.009794	-1.181361	0.009970	-0.005385	-0.002425	-0.861816	0.291992	-0.202148	0.591423	-0.326445	-0.678041	-0.289678	177.111257	-82.369755	131.110341	-0.087304	0.100042	0.991146	0.785330	0.619041	0.006692	-0.612890	0.778961	-0.132611	0	0	0
57463	0	0	0	0	0	9.731106	-0.033455	-1.176000	0.003368	-0.003057	0.000746	-0.857178	0.287598	-0.208008	0.591439	-0.326458	-0.678028	-0.289660	177.135347	-82.370940	131.086776	-0.087249	0.100063	0.991148	0.785327	0.619045	0.006635	-0.612902	0.778955	-0.132593	0	0	0
57464	0	0	0	0	0	9.755420	-0.031910	-1.176573	0.002319	-0.004179	0.000755	-0.857666	0.289063	-0.205566	0.591440	-0.326481	-0.678019	-0.289653	177.153624	-82.370721	131.067022	-0.087217	0.100095	0.991148	0.785345	0.619023	0.006593	-0.612883	0.778968	-0.132599	0	0	0
57465	0	0	0	0	0	9.729355	-0.009974	-1.182535	0.000148	-0.004282	0.000516	-0.860107	0.282715	-0.199219	0.591448	-0.326502	-0.678006	-0.289644	177.175034	-82.371320	131.044572	-0.087171	0.100122	0.991149	0.785359	0.619006	0.006543	-0.612873	0.778978	-0.132591	0	0	0
57466	0	0	0	0	0	9.731134	-0.039363	-1.200911	0.000155	-0.004531	-0.001556	-0.859375	0.293945	-0.208008	0.591441	-0.326524	-0.677999	-0.289651	177.182272	-82.370833	131.034706	-0.087160	0.100143	0.991148	0.785388	0.618969	0.006526	-0.612837	0.779005	-0.132600	0	0	0
57467	0	0	0	0	0	9.781286	-0.053654	-1.172278	-0.003131	-0.003864	-0.004116	-0.856689	0.286377	-0.209961	0.591437	-0.326540	-0.677987	-0.289668	177.181812	-82.371436	131.032222	-0.087149	0.100139	0.991149	0.785420	0.618929	0.006527	-0.612798	0.779037	-0.132590	0	0	0
57468	0	0	0	0	0	9.732710	-0.062604	-1.195835	-0.002105	-0.001996	0.002092	-0.860352	0.281494	-0.200439	0.591440	-0.326577	-0.677963	-0.289676	177.202812	-82.372502	131.007164	-0.087093	0.100163	0.991152	0.785466	0.618871	0.006477	-0.612746	0.779080	-0.132574	0	0	0
57469	0	0	0	0	0	9.757019	-0.060757	-1.196459	-0.000879	-0.006150	-0.005691	-0.864014	0.290283	-0.208984	0.591430	-0.326582	-0.677965	-0.289686	177.196591	-82.371794	131.011992	-0.087109	0.100165	0.991150	0.785480	0.618853	0.006492	-0.612726	0.779095	-0.132585	0	0	0
57470	0	0	0	0	0	9.709899	-0.087491	-1.190790	0.001271	-0.005301	0.000765	-0.866943	0.286621	-0.206055	0.591425	-0.326610	-0.677958	-0.289680	177.214546	-82.370931	130.991958	-0.087084	0.100207	0.991148	0.785505	0.618822	0.006452	-0.612698	0.779113	-0.132602	0	0	0
57471	0	0	0	0	0	9.732860	-0.073577	-1.244821	0.006758	-0.006859	-0.004726	-0.862305	0.291992	-0.204834	0.591428	-0.326597	-0.677971	-0.289660	177.217426	-82.369881	130.992079	-0.087096	0.100220	0.991146	0.785472	0.618863	0.006446	-0.612738	0.779079	-0.132621	0	0	0
57472	0	0	0	0	0	9.732438	-0.061644	-1.198097	0.005709	-0.007981	-0.004716	-0.862061	0.294922	-0.204590	0.591413	-0.326597	-0.677987	-0.289652	177.215064	-82.367332	130.995109	-0.087130	0.100249	0.991140	0.785465	0.618873	0.006453	-0.612743	0.779068	-0.132665	0	0	0
57473	0	0	0	0	0	9.730845	-0.043367	-1.228365	0.005709	-0.007981	-0.004715	-0.858643	0.293213	-0.200439	0.591409	-0.326591	-0.678001	-0.289634	177.218790	-82.365590	130.993480	-0.087147	0.100274	0.991136	0.785442	0.618901	0.006446	-0.612769	0.779042	-0.132695	0	0	0
57474	0	0	0	0	0	9.755297	-0.047123	-1.252875	0.009903	-0.003491	-0.004755	-0.856445	0.290039	-0.204346	0.591417	-0.326572	-0.678010	-0.289619	177.217733	-82.365609	130.997617	-0.087154	0.100268	0.991136	0.785409	0.618944	0.006449	-0.612811	0.779009	-0.132695	0	0	0
57475	0	0	0	0	0	9.730571	-0.036831	-1.205547	0.005561	-0.003699	-0.005232	-0.863770	0.283203	-0.198975	0.591426	-0.326559	-0.678012	-0.289610	177.218196	-82.366257	130.999078	-0.087149	0.100257	0.991137	0.785388	0.618970	0.006447	-0.612838	0.778990	-0.132684	0	0	0
57476	0	0	0	0	0	9.730696	-0.041975	-1.229593	0.006623	-0.003074	-0.009385	-0.862549	0.281250	-0.206787	0.591423	-0.326534	-0.678023	-0.289620	177.195402	-82.366385	131.023251	-0.087190	0.100219	0.991138	0.785371	0.618991	0.006500	-0.612854	0.778977	-0.132679	0	0	0
57477	0	0	0	0	0	9.756509	-0.057619	-1.200763	0.001286	-0.005798	-0.003377	-0.858398	0.285400	-0.205811	0.591420	-0.326540	-0.678023	-0.289618	177.199660	-82.365843	131.018644	-0.087188	0.100233	0.991137	0.785375	0.618986	0.006490	-0.612849	0.778980	-0.132689	0	0	0
57478	0	0	0	0	0	9.757966	-0.075271	-1.171712	0.001204	-0.003408	-0.001564	-0.859375	0.294434	-0.201660	0.591418	-0.326558	-0.678014	-0.289623	177.207228	-82.365998	131.009052	-0.087170	0.100245	0.991137	0.785398	0.618958	0.006473	-0.612823	0.779001	-0.132687	0	0	0
57479	0	0	0	0	0	9.758081	-0.080885	-1.195823	-0.002015	-0.004635	-0.001792	-0.859863	0.282227	-0.210938	0.591417	-0.326579	-0.678003	-0.289628	177.217834	-82.366233	130.996021	-0.087144	0.100262	0.991137	0.785425	0.618923	0.006448	-0.612791	0.779026	-0.132684	0	0	0
57480	0	0	0	0	0	9.731837	-0.052882	-1.178102	-0.004187	-0.004739	-0.002030	-0.853027	0.281006	-0.193848	0.591401	-0.326613	-0.677991	-0.289650	177.220599	-82.365614	130.988158	-0.087138	0.100282	0.991136	0.785480	0.618853	0.006442	-0.612721	0.779079	-0.132695	0	0	0
57481	0	0	0	0	0	9.709095	-0.078055	-1.172587	-0.005242	-0.005613	0.000052	-0.859131	0.287842	-0.210449	0.591393	-0.326651	-0.677975	-0.289660	177.235978	-82.365296	130.968537	-0.087107	0.100316	0.991135	0.785528	0.618793	0.006407	-0.612665	0.779122	-0.132702	0	0	0
57482	0	0	0	0	0	9.759571	-0.103886	-1.191598	-0.007400	-0.006214	-0.004329	-0.858887	0.291016	-0.197266	0.591364	-0.326688	-0.677967	-0.289698	177.227390	-82.363769	130.970271	-0.087127	0.100333	0.991132	0.785601	0.618700	0.006428	-0.612568	0.779194	-0.132728	0	0	0
57483	0	0	0	0	0	9.735140	-0.105237	-1.191997	-0.008461	-0.006839	-0.000175	-0.856201	0.290527	-0.207031	0.591347	-0.326737	-0.677950	-0.289716	177.241547	-82.362790	130.949961	-0.087103	0.100377	0.991129	0.785669	0.618614	0.006396	-0.612485	0.779257	-0.132746	0	0	0
57484	0	0	0	0	0	9.733535	-0.086954	-1.222195	-0.006270	-0.007481	-0.006152	-0.859375	0.289307	-0.206055	0.591313	-0.326767	-0.677949	-0.289754	177.226092	-82.360488	130.959276	-0.087145	0.100393	0.991124	0.785733	0.618532	0.006434	-0.612396	0.779320	-0.132784	0	0	0
57485	0	0	0	0	0	9.757968	-0.090619	-1.246801	0.005628	-0.005589	-0.002901	-0.859375	0.283936	-0.213135	0.591320	-0.326763	-0.677954	-0.289734	177.236535	-82.360234	130.951030	-0.087134	0.100409	0.991124	0.785711	0.618561	0.006410	-0.612427	0.779295	-0.132790	0	0	0
57486	0	0	0	0	0	9.759443	-0.108505	-1.217712	0.007712	-0.002847	0.001221	-0.865723	0.291748	-0.201904	0.591335	-0.326769	-0.677948	-0.289710	177.259597	-82.360787	130.929566	-0.087090	0.100434	0.991125	0.785696	0.618580	0.006356	-0.612452	0.779276	-0.132783	0	0	0
57487	0	0	0	0	0	9.735064	-0.110195	-1.217645	0.009822	-0.001099	-0.002944	-0.856201	0.290039	-0.204590	0.591364	-0.326745	-0.677945	-0.289683	177.270672	-82.363095	130.923216	-0.087052	0.100414	0.991130	0.785646	0.618644	0.006328	-0.612521	0.779229	-0.132744	0	0	0
57488	0	0	0	0	0	9.733223	-0.080610	-1.199794	0.011993	-0.000995	-0.002705	-0.859375	0.280029	-0.199219	0.591387	-0.326723	-0.677947	-0.289659	177.279062	-82.364600	130.919030	-0.087028	0.100400	0.991134	0.785602	0.618700	0.006307	-0.612581	0.779185	-0.132719	0	0	0
57489	0	0	0	0	0	9.707177	-0.058651	-1.205399	0.007637	-0.000706	0.000963	-0.861572	0.286865	-0.199707	0.591418	-0.326719	-0.677934	-0.289630	177.305297	-82.367093	130.895802	-0.086959	0.100403	0.991139	0.785572	0.618738	0.006245	-0.612629	0.779155	-0.132679	0	0	0
57490	0	0	0	0	0	9.757546	-0.078971	-1.200312	0.007725	-0.003345	-0.002920	-0.862305	0.292969	-0.207031	0.591425	-0.326712	-0.677936	-0.289617	177.310803	-82.367247	130.892060	-0.086951	0.100407	0.991140	0.785554	0.618762	0.006232	-0.612654	0.779136	-0.132677	0	0	0
57491	0	0	0	0	0	9.731327	-0.051083	-1.182385	0.006596	-0.002077	-0.001097	-0.850586	0.291260	-0.205811	0.591447	-0.326707	-0.677928	-0.289595	177.328619	-82.368927	130.876717	-0.086905	0.100408	0.991144	0.785529	0.618794	0.006189	-0.612692	0.779110	-0.132650	0	0	0
57492	0	0	0	0	0	9.731573	-0.062256	-1.230275	0.006771	-0.007355	-0.008864	-0.861084	0.278320	-0.201172	0.591431	-0.326689	-0.677951	-0.289597	177.308999	-82.366627	130.897774	-0.086968	0.100406	0.991138	0.785511	0.618816	0.006236	-0.612706	0.779093	-0.132687	0	0	0
57493	0	0	0	0	0	9.731524	-0.061810	-1.230686	0.003301	-0.001163	-0.001584	-0.858398	0.287842	-0.209229	0.591450	-0.326690	-0.677937	-0.289589	177.322019	-82.368840	130.885473	-0.086921	0.100396	0.991143	0.785505	0.618824	0.006205	-0.612720	0.779088	-0.132650	0	0	0
57494	0	0	0	0	0	9.755541	-0.048266	-1.183853	0.003464	-0.005943	-0.005207	-0.873535	0.283447	-0.203369	0.591438	-0.326692	-0.677945	-0.289593	177.315839	-82.367446	130.891057	-0.086947	0.100406	0.991140	0.785511	0.618817	0.006220	-0.612710	0.779092	-0.132674	0	0	0
57495	0	0	0	0	0	9.757616	-0.088922	-1.249675	0.003383	-0.003553	-0.003395	-0.864746	0.289063	-0.199463	0.591447	-0.326688	-0.677942	-0.289586	177.321243	-82.368266	130.886658	-0.086930	0.100402	0.991142	0.785501	0.618830	0.006207	-0.612725	0.779082	-0.132660	0	0	0
57496	0	0	0	0	0	9.732939	-0.078732	-1.202218	0.005479	-0.001308	-0.003417	-0.866211	0.291016	-0.199707	0.591457	-0.326684	-0.677936	-0.289585	177.322935	-82.369574	130.885465	-0.086913	0.100386	0.991145	0.785496	0.618836	0.006202	-0.612734	0.779079	-0.132638	0	0	0
57497	0	0	0	0	0	9.734608	-0.102040	-1.196611	0.006609	-0.002575	-0.005239	-0.861816	0.291748	-0.200439	0.591470	-0.326667	-0.677936	-0.289576	177.323066	-82.370728	130.887721	-0.086904	0.100368	0.991148	0.785470	0.618869	0.006201	-0.612768	0.779056	-0.132618	0	0	0
57498	0	0	0	0	0	9.733046	-0.083780	-1.226302	0.009828	-0.001348	-0.005012	-0.860352	0.292480	-0.206055	0.591484	-0.326644	-0.677939	-0.289565	177.320447	-82.371970	130.893393	-0.086900	0.100343	0.991151	0.785437	0.618911	0.006206	-0.612811	0.779025	-0.132596	0	0	0
57499	0	0	0	0	0	9.731196	-0.053958	-1.208505	0.009828	-0.001347	-0.005011	-0.858887	0.286865	-0.211182	0.591509	-0.326616	-0.677940	-0.289545	177.323739	-82.373964	130.894509	-0.086879	0.100315	0.991155	0.785390	0.618971	0.006196	-0.612875	0.778981	-0.132562	0	0	0
57500	0	0	0	0	0	9.731149	-0.053433	-1.208913	0.011115	-0.007146	-0.008382	-0.860352	0.284424	-0.204102	0.591501	-0.326586	-0.677968	-0.289531	177.308613	-82.371797	130.913542	-0.086937	0.100315	0.991150	0.785346	0.619026	0.006233	-0.612923	0.778937	-0.132598	0	0	0
57501	0	0	0	0	0	9.757282	-0.080623	-1.227607	0.012082	-0.003633	-0.006582	-0.863770	0.280029	-0.207031	0.591520	-0.326546	-0.677982	-0.289503	177.305756	-82.372553	130.922575	-0.086944	0.100291	0.991152	0.785279	0.619111	0.006239	-0.613008	0.778873	-0.132584	0	0	0
57502	0	0	0	0	0	9.757113	-0.074459	-1.204110	0.016343	-0.001032	-0.004294	-0.858154	0.292236	-0.197510	0.591547	-0.326506	-0.677993	-0.289469	177.309871	-82.373995	130.925218	-0.086932	0.100268	0.991155	0.785206	0.619203	0.006228	-0.613102	0.778803	-0.132560	0	0	0
57503	0	0	0	0	0	9.731181	-0.057941	-1.233582	0.012082	-0.003633	-0.006580	-0.856689	0.297363	-0.202393	0.591564	-0.326468	-0.678007	-0.289443	177.307131	-82.374592	130.933771	-0.086941	0.100247	0.991157	0.785143	0.619283	0.006234	-0.613182	0.778742	-0.132549	0	0	0
57504	0	0	0	0	0	9.753804	-0.032246	-1.239931	0.015295	-0.002154	-0.004281	-0.861328	0.284912	-0.202881	0.591586	-0.326433	-0.678019	-0.289410	177.310929	-82.375392	130.936128	-0.086936	0.100233	0.991159	0.785077	0.619367	0.006225	-0.613267	0.778677	-0.132536	0	0	0
57505	0	0	0	0	0	9.730691	-0.039827	-1.162943	0.008781	-0.002470	-0.004996	-0.861084	0.293213	-0.207764	0.591604	-0.326410	-0.678022	-0.289392	177.313875	-82.376727	130.936944	-0.086922	0.100215	0.991162	0.785037	0.619418	0.006217	-0.613320	0.778639	-0.132513	0	0	0
57506	0	0	0	0	0	9.730944	-0.050975	-1.210666	0.007739	-0.003843	-0.007054	-0.866211	0.289551	-0.199463	0.591604	-0.326390	-0.678032	-0.289390	177.301823	-82.376485	130.950925	-0.086949	0.100197	0.991161	0.785015	0.619446	0.006245	-0.613345	0.778619	-0.132516	0	0	0
57507	0	0	0	0	0	9.730765	-0.044695	-1.187265	0.002260	-0.002536	-0.003641	-0.852539	0.293213	-0.203857	0.591614	-0.326390	-0.678024	-0.289390	177.306616	-82.377820	130.946166	-0.086926	0.100186	0.991164	0.785015	0.619446	0.006233	-0.613348	0.778620	-0.132494	0	0	0
57508	0	0	0	0	0	9.730879	-0.050062	-1.211227	0.008787	-0.002720	-0.007065	-0.861084	0.290039	-0.202393	0.591619	-0.326365	-0.678033	-0.289387	177.294891	-82.378221	130.960423	-0.086946	0.100160	0.991165	0.784986	0.619482	0.006260	-0.613382	0.778595	-0.132485	0	0	0
57509	0	0	0	0	0	9.755183	-0.047848	-1.211915	0.003466	-0.005945	-0.005198	-0.863281	0.290771	-0.204102	0.591617	-0.326363	-0.678038	-0.289382	177.294799	-82.377585	130.961244	-0.086955	0.100167	0.991164	0.784978	0.619492	0.006260	-0.613391	0.778586	-0.132496	0	0	0
57510	0	0	0	0	0	9.756706	-0.065105	-1.182763	0.005491	-0.001808	-0.007554	-0.863770	0.289307	-0.201416	0.591619	-0.326345	-0.678040	-0.289392	177.278913	-82.378495	130.977794	-0.086973	0.100130	0.991166	0.784969	0.619502	0.006296	-0.613399	0.778583	-0.132479	0	0	0
57511	0	0	0	0	0	9.756685	-0.064629	-1.182966	0.004432	-0.002430	-0.003401	-0.859619	0.291260	-0.198486	0.591632	-0.326339	-0.678034	-0.289384	177.285695	-82.379869	130.972253	-0.086948	0.100120	0.991169	0.784957	0.619519	0.006280	-0.613419	0.778571	-0.132456	0	0	0
57512	0	0	0	0	0	9.732304	-0.065892	-1.182942	0.008787	-0.002720	-0.007064	-0.859375	0.286865	-0.202393	0.591637	-0.326315	-0.678043	-0.289381	177.273974	-82.380270	130.986506	-0.086968	0.100093	0.991170	0.784928	0.619555	0.006306	-0.613453	0.778546	-0.132448	0	0	0
57513	0	0	0	0	0	9.732283	-0.065391	-1.183139	0.007657	-0.001452	-0.005243	-0.858887	0.281738	-0.198975	0.591656	-0.326293	-0.678042	-0.289370	177.274581	-82.382111	130.988929	-0.086952	0.100066	0.991174	0.784896	0.619596	0.006303	-0.613497	0.778516	-0.132416	0	0	0
57514	0	0	0	0	0	9.730402	-0.035531	-1.165493	0.009905	-0.003486	-0.004742	-0.857910	0.288086	-0.208496	0.591664	-0.326274	-0.678051	-0.289355	177.273589	-82.382137	130.993003	-0.086959	0.100059	0.991174	0.784862	0.619638	0.006306	-0.613539	0.778484	-0.132415	0	0	0
57515	0	0	0	0	0	9.756720	-0.068880	-1.207626	0.008775	-0.002218	-0.002922	-0.859375	0.291016	-0.197754	0.591686	-0.326255	-0.678050	-0.289331	177.284195	-82.383688	130.986278	-0.086929	0.100049	0.991178	0.784822	0.619690	0.006280	-0.613595	0.778444	-0.132390	0	0	0
57516	0	0	0	0	0	9.728627	-0.011266	-1.171838	0.002266	-0.002787	-0.005708	-0.858154	0.288330	-0.206543	0.591683	-0.326255	-0.678048	-0.289346	177.274546	-82.384088	130.994670	-0.086939	0.100031	0.991179	0.784834	0.619674	0.006302	-0.613577	0.778459	-0.132382	0	0	0
57517	0	0	0	0	0	9.728854	-0.022439	-1.219675	0.003467	-0.005945	-0.005195	-0.860596	0.285645	-0.208252	0.591680	-0.326252	-0.678054	-0.289341	177.274016	-82.383409	130.995906	-0.086949	0.100038	0.991177	0.784826	0.619684	0.006304	-0.613586	0.778450	-0.132393	0	0	0
57518	0	0	0	0	0	9.756601	-0.067461	-1.208665	0.005491	-0.001809	-0.007551	-0.859131	0.290527	-0.203857	0.591682	-0.326234	-0.678056	-0.289352	177.258130	-82.384318	131.012455	-0.086968	0.100001	0.991179	0.784818	0.619694	0.006340	-0.613594	0.778446	-0.132376	0	0	0
57519	0	0	0	0	0	9.730485	-0.045079	-1.214577	0.005633	-0.005587	-0.002885	-0.857910	0.284180	-0.207764	0.591689	-0.326229	-0.678060	-0.289332	177.268259	-82.384003	131.004470	-0.086957	0.100017	0.991179	0.784795	0.619723	0.006317	-0.613624	0.778422	-0.132383	0	0	0
57520	0	0	0	0	0	9.730308	-0.039001	-1.191205	0.005479	-0.001306	-0.003411	-0.862549	0.285889	-0.206787	0.591699	-0.326225	-0.678054	-0.289332	177.269985	-82.385313	131.003244	-0.086940	0.100002	0.991182	0.784790	0.619729	0.006311	-0.613633	0.778418	-0.132360	0	0	0
57521	0	0	0	0	0	9.756349	-0.060604	-1.185940	0.006686	-0.004715	-0.004966	-0.863037	0.277344	-0.207764	0.591707	-0.326208	-0.678061	-0.289316	177.271041	-82.385462	131.005158	-0.086942	0.099997	0.991182	0.784758	0.619770	0.006309	-0.613674	0.778387	-0.132358	0	0	0
57522	0	0	0	0	0	9.731955	-0.061691	-1.186035	0.006621	-0.003077	-0.009368	-0.862549	0.281250	-0.192139	0.591704	-0.326182	-0.678072	-0.289326	177.248280	-82.385596	131.029297	-0.086983	0.099959	0.991182	0.784741	0.619791	0.006361	-0.613690	0.778375	-0.132353	0	0	0
57523	0	0	0	0	0	9.732049	-0.066840	-1.210121	0.008864	-0.004859	-0.006796	-0.862061	0.291992	-0.209473	0.591711	-0.326154	-0.678086	-0.289310	177.241704	-82.385386	131.039829	-0.087003	0.099946	0.991182	0.784697	0.619846	0.006377	-0.613743	0.778333	-0.132356	0	0	0
57524	0	0	0	0	0	9.756225	-0.058792	-1.187057	0.006610	-0.002574	-0.005228	-0.866699	0.287354	-0.199707	0.591716	-0.326142	-0.678089	-0.289309	177.236555	-82.385920	131.046192	-0.087008	0.099929	0.991183	0.784684	0.619863	0.006388	-0.613760	0.778321	-0.132346	0	0	0
57525	0	0	0	0	0	9.754461	-0.034790	-1.193194	0.003385	-0.003553	-0.003385	-0.860596	0.293701	-0.206055	0.591724	-0.326141	-0.678085	-0.289303	177.242976	-82.386694	131.040516	-0.086990	0.099927	0.991185	0.784676	0.619873	0.006373	-0.613772	0.778314	-0.132333	0	0	0
57526	0	0	0	0	0	9.756286	-0.064038	-1.211389	0.007728	-0.003339	-0.002907	-0.863770	0.293213	-0.210938	0.591731	-0.326134	-0.678087	-0.289290	177.248564	-82.386855	131.036694	-0.086981	0.099931	0.991185	0.784658	0.619896	0.006360	-0.613796	0.778295	-0.132331	0	0	0
57527	0	0	0	0	0	9.730148	-0.041733	-1.217397	0.007817	-0.005983	-0.006782	-0.859131	0.280762	-0.203613	0.591735	-0.326111	-0.678102	-0.289273	177.244238	-82.386269	131.044583	-0.087002	0.099927	0.991184	0.784619	0.619946	0.006370	-0.613843	0.778256	-0.132341	0	0	0
57528	0	0	0	0	0	9.733433	-0.082541	-1.182435	0.004444	-0.002933	-0.007535	-0.855957	0.289551	-0.200439	0.591732	-0.326098	-0.678106	-0.289286	177.228046	-82.386534	131.060836	-0.087027	0.099899	0.991184	0.784617	0.619948	0.006407	-0.613843	0.778257	-0.132334	0	0	0
57529	0	0	0	0	0	9.757625	-0.074492	-1.159278	0.004432	-0.002429	-0.003396	-0.861816	0.285645	-0.206055	0.591745	-0.326092	-0.678100	-0.289278	177.234331	-82.387903	131.055822	-0.087003	0.099888	0.991188	0.784604	0.619965	0.006392	-0.613863	0.778245	-0.132311	0	0	0
57530	0	0	0	0	0	9.756127	-0.062304	-1.212756	0.006604	-0.002322	-0.003157	-0.863037	0.289551	-0.210449	0.591754	-0.326086	-0.678098	-0.289271	177.237996	-82.388640	131.053291	-0.086990	0.099883	0.991189	0.784592	0.619980	0.006383	-0.613880	0.778234	-0.132299	0	0	0
57531	0	0	0	0	0	9.755830	-0.050259	-1.165644	0.005563	-0.003698	-0.005214	-0.870361	0.293457	-0.201904	0.591764	-0.326071	-0.678101	-0.289261	177.237541	-82.389380	131.056073	-0.086986	0.099869	0.991191	0.784567	0.620012	0.006383	-0.613913	0.778211	-0.132286	0	0	0
57532	0	0	0	0	0	9.731707	-0.063254	-1.213058	0.006610	-0.002574	-0.005226	-0.854980	0.296387	-0.208496	0.591769	-0.326058	-0.678103	-0.289260	177.232402	-82.389915	131.062427	-0.086991	0.099852	0.991192	0.784553	0.620029	0.006394	-0.613929	0.778199	-0.132276	0	0	0
57533	0	0	0	0	0	9.755894	-0.055366	-1.189932	0.007729	-0.003338	-0.002905	-0.861572	0.286621	-0.205322	0.591786	-0.326047	-0.678103	-0.289238	177.244362	-82.390854	131.053584	-0.086965	0.099853	0.991194	0.784521	0.620070	0.006366	-0.613974	0.778166	-0.132261	0	0	0
57534	0	0	0	0	0	9.731242	-0.045004	-1.142591	0.001219	-0.003913	-0.005691	-0.856934	0.284912	-0.200684	0.591777	-0.326051	-0.678103	-0.289254	177.234419	-82.390611	131.061668	-0.086982	0.099844	0.991194	0.784540	0.620046	0.006389	-0.613948	0.778187	-0.132265	0	0	0
57535	0	0	0	0	0	9.731592	-0.062394	-1.214023	0.005546	-0.002942	0.000994	-0.858887	0.287354	-0.203613	0.591797	-0.326057	-0.678093	-0.289229	177.260263	-82.391822	131.037606	-0.086926	0.099865	0.991197	0.784523	0.620067	0.006329	-0.613977	0.778167	-0.132247	0	0	0
57536	0	0	0	0	0	9.733282	-0.085933	-1.208598	-0.000881	-0.005908	-0.003596	-0.865723	0.285156	-0.200439	0.591780	-0.326077	-0.678092	-0.289243	177.258500	-82.390494	131.036225	-0.086939	0.099884	0.991194	0.784557	0.620024	0.006334	-0.613932	0.778198	-0.132269	0	0	0
57537	0	0	0	0	0	9.755572	-0.048395	-1.167880	0.000172	-0.005036	-0.005678	-0.863525	0.291504	-0.203125	0.591775	-0.326080	-0.678091	-0.289252	177.253054	-82.390281	131.040557	-0.086949	0.099881	0.991193	0.784568	0.620010	0.006346	-0.613916	0.778211	-0.132272	0	0	0
57538	0	0	0	0	0	9.731413	-0.061510	-1.215500	0.001286	-0.005549	-0.001288	-0.858887	0.286621	-0.208740	0.591766	-0.326101	-0.678088	-0.289252	177.262346	-82.389222	131.029275	-0.086941	0.099911	0.991191	0.784591	0.619982	0.006326	-0.613888	0.778229	-0.132292	0	0	0
57539	0	0	0	0	0	9.729487	-0.031788	-1.198102	0.001213	-0.003661	-0.003621	-0.859375	0.290283	-0.206299	0.591771	-0.326105	-0.678082	-0.289253	177.266552	-82.389973	131.024660	-0.086925	0.099909	0.991192	0.784596	0.619976	0.006316	-0.613884	0.778234	-0.132279	0	0	0
57540	0	0	0	0	0	9.731171	-0.054970	-1.192780	-0.001922	-0.007284	-0.005651	-0.858398	0.290771	-0.205078	0.591745	-0.326124	-0.678086	-0.289275	177.255674	-82.387801	131.031873	-0.086962	0.099926	0.991187	0.784634	0.619927	0.006342	-0.613830	0.778271	-0.132315	0	0	0
57541	0	0	0	0	0	9.755470	-0.052675	-1.193532	-0.007552	-0.001951	-0.004841	-0.856934	0.284180	-0.208984	0.591740	-0.326148	-0.678064	-0.289312	177.249661	-82.389505	131.032453	-0.086944	0.099903	0.991191	0.784692	0.619853	0.006355	-0.613758	0.778333	-0.132285	0	0	0
57542	0	0	0	0	0	9.755410	-0.052101	-1.194040	-0.002969	-0.008408	-0.005638	-0.852539	0.283203	-0.207764	0.591708	-0.326171	-0.678070	-0.289335	177.238479	-82.386691	131.039367	-0.086988	0.099929	0.991185	0.784737	0.619796	0.006383	-0.613694	0.778375	-0.132333	0	0	0
57543	0	0	0	0	0	9.757203	-0.081198	-1.212570	0.005635	-0.005585	-0.002879	-0.867432	0.291748	-0.198242	0.591716	-0.326164	-0.678075	-0.289315	177.248096	-82.386448	131.032112	-0.086978	0.099943	0.991184	0.784713	0.619827	0.006361	-0.613727	0.778348	-0.132338	0	0	0
57544	0	0	0	0	0	9.734426	-0.100398	-1.183209	0.006687	-0.004713	-0.004960	-0.863770	0.283691	-0.201416	0.591714	-0.326156	-0.678083	-0.289309	177.244588	-82.385767	131.036866	-0.086994	0.099945	0.991183	0.784699	0.619845	0.006370	-0.613743	0.778334	-0.132349	0	0	0
57545	0	0	0	0	0	9.734243	-0.094122	-1.160072	0.004594	-0.006961	-0.004934	-0.858398	0.295654	-0.202393	0.591709	-0.326152	-0.678094	-0.289299	177.245368	-82.384400	131.037314	-0.087010	0.099962	0.991179	0.784685	0.619862	0.006369	-0.613757	0.778318	-0.132373	0	0	0
57546	0	0	0	0	0	9.706440	-0.053935	-1.195696	0.007739	-0.003841	-0.007041	-0.857910	0.295166	-0.198242	0.591709	-0.326132	-0.678104	-0.289297	177.233379	-82.384162	131.051233	-0.087037	0.099944	0.991179	0.784663	0.619889	0.006397	-0.613782	0.778298	-0.132376	0	0	0
57547	0	0	0	0	0	9.730636	-0.045701	-1.172631	0.004442	-0.002932	-0.007531	-0.862061	0.289795	-0.199219	0.591714	-0.326117	-0.678106	-0.289301	177.223918	-82.385101	131.061789	-0.087045	0.099916	0.991181	0.784650	0.619905	0.006418	-0.613797	0.778289	-0.132359	0	0	0
57548	0	0	0	0	0	9.754943	-0.043320	-1.173322	0.006693	-0.004964	-0.007027	-0.861816	0.286377	-0.202881	0.591708	-0.326102	-0.678118	-0.289301	177.211626	-82.384219	131.075408	-0.087079	0.099907	0.991179	0.784635	0.619925	0.006447	-0.613812	0.778275	-0.132372	0	0	0
57549	0	0	0	0	0	9.732411	-0.074074	-1.191368	0.007813	-0.005728	-0.004706	-0.858398	0.287354	-0.207275	0.591714	-0.326087	-0.678129	-0.289281	177.215206	-82.383622	131.074962	-0.087085	0.099915	0.991178	0.784601	0.619967	0.006439	-0.613855	0.778240	-0.132383	0	0	0
57550	0	0	0	0	0	9.753165	-0.024450	-1.203991	0.003479	-0.006449	-0.009319	-0.861816	0.286621	-0.203125	0.591694	-0.326076	-0.678145	-0.289296	177.191581	-82.381826	131.098158	-0.087146	0.099903	0.991174	0.784603	0.619964	0.006496	-0.613843	0.778244	-0.132412	0	0	0
57551	0	0	0	0	0	9.730421	-0.043389	-1.174495	0.005479	-0.001304	-0.003407	-0.863281	0.288818	-0.207275	0.591714	-0.326064	-0.678137	-0.289286	177.198316	-82.383919	131.093463	-0.087114	0.099883	0.991178	0.784582	0.619991	0.006478	-0.613875	0.778225	-0.132376	0	0	0
57552	0	0	0	0	0	9.754972	-0.052984	-1.222456	0.001219	-0.003913	-0.005686	-0.854004	0.294434	-0.207764	0.591705	-0.326068	-0.678137	-0.289303	177.188410	-82.383676	131.101510	-0.087130	0.099874	0.991178	0.784601	0.619967	0.006501	-0.613848	0.778245	-0.132379	0	0	0
57553	0	0	0	0	0	9.754915	-0.052584	-1.222923	0.003465	-0.005692	-0.003114	-0.860840	0.285400	-0.204346	0.591708	-0.326070	-0.678138	-0.289291	177.197068	-82.383344	131.093753	-0.087121	0.099890	0.991177	0.784592	0.619978	0.006482	-0.613861	0.778234	-0.132386	0	0	0
57554	0	0	0	0	0	9.707931	-0.079356	-1.216881	0.005563	-0.003696	-0.005209	-0.856445	0.285400	-0.198730	0.591707	-0.326063	-0.678142	-0.289291	177.191651	-82.383239	131.099783	-0.087132	0.099882	0.991177	0.784585	0.619987	0.006494	-0.613869	0.778228	-0.132387	0	0	0
57555	0	0	0	0	0	9.735564	-0.112671	-1.158379	0.004437	-0.002680	-0.005461	-0.863281	0.286621	-0.199219	0.591716	-0.326050	-0.678141	-0.289289	177.189107	-82.384387	131.103645	-0.087126	0.099862	0.991179	0.784570	0.620006	0.006499	-0.613888	0.778216	-0.132367	0	0	0
57556	0	0	0	0	0	9.733866	-0.094420	-1.188296	0.011037	-0.004746	-0.006547	-0.857910	0.289551	-0.204346	0.591719	-0.326024	-0.678158	-0.289274	177.181322	-82.383643	131.115228	-0.087155	0.099854	0.991178	0.784528	0.620059	0.006518	-0.613937	0.778175	-0.132379	0	0	0
57557	0	0	0	0	0	9.735472	-0.111336	-1.159280	0.007833	-0.006737	-0.012973	-0.856934	0.287842	-0.207764	0.591709	-0.325982	-0.678185	-0.289276	177.149839	-82.382260	131.150210	-0.087231	0.099818	0.991175	0.784487	0.620110	0.006592	-0.613979	0.778139	-0.132399	0	0	0
57558	0	0	0	0	0	9.757994	-0.085242	-1.165948	0.014251	-0.003260	-0.004253	-0.858643	0.284424	-0.204346	0.591725	-0.325952	-0.678199	-0.289245	177.153401	-82.382431	131.152203	-0.087233	0.099813	0.991175	0.784427	0.620186	0.006583	-0.614056	0.778079	-0.132397	0	0	0
57559	0	0	0	0	0	9.758289	-0.102543	-1.237349	0.014256	-0.003512	-0.006319	-0.859375	0.288086	-0.203125	0.591748	-0.325907	-0.678216	-0.289210	177.153157	-82.383210	131.159687	-0.087237	0.099792	0.991177	0.784349	0.620285	0.006583	-0.614155	0.778003	-0.132383	0	0	0
57560	0	0	0	0	0	9.756246	-0.066644	-1.196225	0.017558	-0.004671	-0.007893	-0.855225	0.280029	-0.206543	0.591760	-0.325856	-0.678244	-0.289176	177.143336	-82.382470	131.177094	-0.087276	0.099775	0.991175	0.784266	0.620390	0.006606	-0.614256	0.777921	-0.132395	0	0	0
57561	0	0	0	0	0	9.707743	-0.081454	-1.243183	0.017395	-0.000138	-0.006358	-0.857910	0.283691	-0.203613	0.591799	-0.325797	-0.678256	-0.289136	177.143682	-82.385140	131.185757	-0.087260	0.099727	0.991181	0.784168	0.620513	0.006603	-0.614382	0.777829	-0.132349	0	0	0
57562	0	0	0	0	0	9.731739	-0.061510	-1.172660	0.015387	-0.004780	-0.008129	-0.858154	0.295166	-0.203613	0.591806	-0.325752	-0.678282	-0.289110	177.131630	-82.384330	131.204159	-0.087302	0.099709	0.991179	0.784098	0.620601	0.006632	-0.614466	0.777761	-0.132361	0	0	0
57563	0	0	0	0	0	9.731778	-0.066831	-1.196960	0.016592	-0.007935	-0.007607	-0.861572	0.292480	-0.209229	0.591815	-0.325705	-0.678316	-0.289064	177.128836	-82.382475	131.215324	-0.087342	0.099716	0.991175	0.784007	0.620716	0.006640	-0.614576	0.777668	-0.132393	0	0	0
57564	0	0	0	0	0	9.778602	-0.039248	-1.204207	0.017634	-0.006557	-0.005552	-0.860107	0.289307	-0.212158	0.591824	-0.325665	-0.678347	-0.289020	177.129486	-82.380722	131.222211	-0.087374	0.099729	0.991171	0.783925	0.620819	0.006640	-0.614676	0.777584	-0.132424	0	0	0
57565	0	0	0	0	0	9.754093	-0.034839	-1.180645	0.025117	-0.002963	-0.005114	-0.861328	0.289307	-0.204102	0.591869	-0.325590	-0.678375	-0.288945	177.141230	-82.381965	131.224052	-0.087363	0.099710	0.991174	0.783780	0.621004	0.006612	-0.614864	0.777439	-0.132403	0	0	0
57566	0	0	0	0	0	9.776724	-0.015367	-1.210825	0.025109	-0.002455	-0.000977	-0.856445	0.289307	-0.198730	0.591911	-0.325538	-0.678397	-0.288868	177.164859	-82.382691	131.212077	-0.087334	0.099719	0.991176	0.783656	0.621161	0.006557	-0.615025	0.777313	-0.132394	0	0	0
57567	0	0	0	0	0	9.701661	0.014578	-1.168502	0.018508	-0.000390	0.000105	-0.849121	0.287109	-0.208740	0.591959	-0.325501	-0.678399	-0.288806	177.194529	-82.385300	131.191442	-0.087269	0.099716	0.991182	0.783561	0.621281	0.006486	-0.615155	0.777217	-0.132352	0	0	0
57568	0	0	0	0	0	9.727874	-0.013380	-1.186869	0.012151	-0.004999	-0.000077	-0.862549	0.285156	-0.208984	0.591972	-0.325493	-0.678408	-0.288767	177.215131	-82.384593	131.175030	-0.087248	0.099750	0.991180	0.783518	0.621336	0.006439	-0.615213	0.777169	-0.132366	0	0	0
57569	0	0	0	0	0	9.701898	-0.003331	-1.240174	0.006605	-0.002319	-0.003145	-0.859375	0.290771	-0.200439	0.591991	-0.325479	-0.678405	-0.288750	177.223956	-82.386218	131.169077	-0.087219	0.099738	0.991184	0.783488	0.621374	0.006417	-0.615256	0.777140	-0.132339	0	0	0
57570	0	0	0	0	0	9.729686	-0.042616	-1.205330	0.002341	-0.004679	-0.003356	-0.861816	0.291016	-0.201416	0.591985	-0.325489	-0.678404	-0.288754	177.224833	-82.385603	131.166895	-0.087222	0.099749	0.991182	0.783502	0.621356	0.006415	-0.615237	0.777153	-0.132350	0	0	0
57571	0	0	0	0	0	9.753979	-0.040552	-1.206121	0.002341	-0.004678	-0.003356	-0.861572	0.292236	-0.197266	0.591987	-0.325495	-0.678401	-0.288750	177.231517	-82.385634	131.160028	-0.087210	0.099760	0.991182	0.783505	0.621353	0.006400	-0.615235	0.777154	-0.132350	0	0	0
57572	0	0	0	0	0	9.753927	-0.040531	-1.206545	0.000156	-0.004025	0.002604	-0.864746	0.295410	-0.208984	0.591987	-0.325530	-0.678386	-0.288746	177.256522	-82.385557	131.132240	-0.087162	0.099803	0.991182	0.783538	0.621312	0.006342	-0.615200	0.777181	-0.132354	0	0	0
57573	0	0	0	0	0	9.753781	-0.034587	-1.183231	0.003387	-0.003554	-0.003370	-0.852783	0.293213	-0.199951	0.591995	-0.325531	-0.678381	-0.288739	177.263878	-82.386285	131.125385	-0.087142	0.099804	0.991184	0.783533	0.621318	0.006325	-0.615209	0.777176	-0.132343	0	0	0
57574	0	0	0	0	0	9.729480	-0.042032	-1.207018	0.005639	-0.005583	-0.002861	-0.859863	0.291748	-0.208496	0.591991	-0.325534	-0.678387	-0.288730	177.268946	-82.385167	131.120881	-0.087147	0.099825	0.991181	0.783527	0.621325	0.006314	-0.615216	0.777168	-0.132362	0	0	0
57575	0	0	0	0	0	9.729418	-0.041753	-1.207521	0.000169	-0.004789	-0.003595	-0.856201	0.287842	-0.203613	0.591990	-0.325545	-0.678381	-0.288733	177.273823	-82.385247	131.114761	-0.087136	0.099833	0.991181	0.783541	0.621308	0.006303	-0.615199	0.777181	-0.132362	0	0	0
57576	0	0	0	0	0	9.757106	-0.075056	-1.149166	0.003467	-0.005693	-0.003101	-0.868896	0.289063	-0.202881	0.591982	-0.325554	-0.678385	-0.288731	177.276644	-82.384058	131.111268	-0.087143	0.099854	0.991179	0.783549	0.621298	0.006297	-0.615189	0.777186	-0.132382	0	0	0
57577	0	0	0	0	0	9.753643	-0.039401	-1.208877	0.002341	-0.004678	-0.003355	-0.856689	0.286133	-0.201904	0.591985	-0.325558	-0.678383	-0.288726	177.282660	-82.384138	131.105288	-0.087132	0.099862	0.991179	0.783549	0.621298	0.006283	-0.615190	0.777185	-0.132382	0	0	0
57578	0	0	0	0	0	9.730943	-0.058332	-1.179415	0.000177	-0.005298	-0.007727	-0.855957	0.284180	-0.201660	0.591966	-0.325560	-0.678388	-0.288750	177.263717	-82.383050	131.121852	-0.087173	0.099851	0.991176	0.783573	0.621268	0.006328	-0.615154	0.777211	-0.132398	0	0	0
57579	0	0	0	0	0	9.730865	-0.057642	-1.180089	-0.005137	-0.008529	-0.005855	-0.860840	0.292480	-0.199951	0.591940	-0.325584	-0.678390	-0.288772	177.255267	-82.380845	131.126118	-0.087205	0.099874	0.991171	0.783617	0.621212	0.006349	-0.615093	0.777252	-0.132436	0	0	0
57580	0	0	0	0	0	9.755215	-0.061349	-1.204880	-0.006272	-0.007005	-0.001976	-0.860596	0.290771	-0.205078	0.591913	-0.325627	-0.678382	-0.288798	177.257589	-82.378937	131.117499	-0.087212	0.099912	0.991167	0.783686	0.621125	0.006345	-0.615005	0.777317	-0.132469	0	0	0
57581	0	0	0	0	0	9.755227	-0.066611	-1.229245	-0.005210	-0.006898	-0.010256	-0.857178	0.289307	-0.203125	0.591886	-0.325634	-0.678386	-0.288836	177.230926	-82.377559	131.140018	-0.087267	0.099895	0.991164	0.783728	0.621072	0.006408	-0.614944	0.777361	-0.132490	0	0	0
57582	0	0	0	0	0	9.732601	-0.091305	-1.223707	-0.000796	-0.008053	-0.003309	-0.865723	0.283203	-0.197998	0.591863	-0.325658	-0.678390	-0.288846	177.230907	-82.375015	131.136926	-0.087291	0.099933	0.991158	0.783761	0.621029	0.006410	-0.614898	0.777390	-0.132534	0	0	0
57583	0	0	0	0	0	9.683846	-0.094531	-1.223515	0.002261	-0.002538	-0.003624	-0.856201	0.295166	-0.199951	0.591871	-0.325659	-0.678382	-0.288846	177.234944	-82.376247	131.132790	-0.087269	0.099923	0.991161	0.783763	0.621028	0.006400	-0.614899	0.777393	-0.132513	0	0	0
57584	0	0	0	0	0	9.657566	-0.066385	-1.205694	0.005563	-0.003697	-0.005197	-0.862793	0.287598	-0.206543	0.591870	-0.325652	-0.678386	-0.288847	177.229599	-82.376144	131.138748	-0.087281	0.099916	0.991160	0.783755	0.621037	0.006412	-0.614906	0.777387	-0.132514	0	0	0
57585	0	0	0	0	0	9.734183	-0.107940	-1.195318	0.004514	-0.004567	-0.003115	-0.862793	0.285400	-0.198242	0.591877	-0.325651	-0.678386	-0.288834	177.238580	-82.376329	131.130988	-0.087265	0.099925	0.991161	0.783743	0.621052	0.006391	-0.614924	0.777373	-0.132512	0	0	0
57586	0	0	0	0	0	9.756677	-0.082105	-1.201948	0.006613	-0.002826	-0.007277	-0.860107	0.281250	-0.206787	0.591878	-0.325632	-0.678392	-0.288839	177.224761	-82.376666	131.146101	-0.087288	0.099898	0.991162	0.783728	0.621071	0.006423	-0.614940	0.777361	-0.132504	0	0	0
57587	0	0	0	0	0	9.807064	-0.095791	-1.173359	0.005560	-0.003442	-0.003130	-0.856934	0.288574	-0.195557	0.591890	-0.325625	-0.678391	-0.288825	177.232410	-82.377444	131.140420	-0.087269	0.099896	0.991163	0.783707	0.621097	0.006405	-0.614969	0.777341	-0.132492	0	0	0
57588	0	0	0	0	0	9.803486	-0.054004	-1.209188	0.010961	-0.002859	-0.008864	-0.852295	0.287598	-0.207520	0.591896	-0.325587	-0.678406	-0.288820	177.214303	-82.377719	131.162375	-0.087304	0.099859	0.991164	0.783664	0.621152	0.006446	-0.615020	0.777302	-0.132485	0	0	0
57589	0	0	0	0	0	9.751126	-0.010007	-1.220602	0.009901	-0.002965	-0.000585	-0.859619	0.287842	-0.201904	0.591920	-0.325577	-0.678405	-0.288784	177.236546	-82.378862	131.144304	-0.087260	0.099872	0.991167	0.783621	0.621207	0.006394	-0.615081	0.777257	-0.132468	0	0	0
57590	0	0	0	0	0	9.704038	-0.024954	-1.166946	-0.000950	-0.004285	-0.007977	-0.862061	0.291748	-0.199219	0.591903	-0.325580	-0.678406	-0.288814	177.215700	-82.378346	131.162137	-0.087297	0.099851	0.991165	0.783651	0.621168	0.006443	-0.615037	0.777290	-0.132474	0	0	0
57591	0	0	0	0	0	9.655449	-0.039724	-1.214148	-0.001918	-0.007294	-0.005626	-0.861816	0.284180	-0.202637	0.591886	-0.325595	-0.678409	-0.288827	177.210500	-82.376813	131.164825	-0.087319	0.099867	0.991162	0.783678	0.621134	0.006456	-0.615000	0.777315	-0.132500	0	0	0
57592	0	0	0	0	0	9.687062	-0.137744	-1.215361	-0.005055	-0.010670	-0.005578	-0.861328	0.284180	-0.198730	0.591843	-0.325627	-0.678419	-0.288854	177.198900	-82.372709	131.170956	-0.087376	0.099911	0.991152	0.783736	0.621061	0.006486	-0.614918	0.777368	-0.132570	0	0	0
57593	0	0	0	0	0	9.786094	-0.147483	-1.188061	-0.000866	-0.006679	-0.009771	-0.860596	0.289063	-0.202148	0.591824	-0.325622	-0.678429	-0.288876	177.175347	-82.371401	131.192910	-0.087429	0.099895	0.991149	0.783750	0.621042	0.006542	-0.614892	0.777386	-0.132590	0	0	0
57594	0	0	0	0	0	9.857327	-0.123795	-1.219307	0.011035	-0.004487	-0.004462	-0.854004	0.287598	-0.202881	0.591830	-0.325602	-0.678442	-0.288855	177.176451	-82.370866	131.195525	-0.087440	0.099898	0.991148	0.783710	0.621093	0.006540	-0.614941	0.777345	-0.132599	0	0	0
57595	0	0	0	0	0	9.805052	-0.085747	-1.254208	0.019484	0.002122	-0.006382	-0.863525	0.291748	-0.206787	0.591880	-0.325536	-0.678449	-0.288812	177.178236	-82.374780	131.203708	-0.087410	0.099834	0.991157	0.783602	0.621228	0.006532	-0.615083	0.777244	-0.132532	0	0	0
57596	0	0	0	0	0	9.726383	-0.008040	-1.223428	0.019565	-0.000017	-0.006110	-0.860107	0.284668	-0.202637	0.591913	-0.325478	-0.678463	-0.288774	177.176241	-82.376757	131.214381	-0.087406	0.099792	0.991162	0.783508	0.621347	0.006535	-0.615203	0.777155	-0.132497	0	0	0
57597	0	0	0	0	0	9.653166	-0.001186	-1.175136	0.009909	-0.003473	-0.004713	-0.859619	0.286133	-0.208008	0.591931	-0.325453	-0.678471	-0.288749	177.180561	-82.377549	131.214608	-0.087397	0.099782	0.991164	0.783459	0.621409	0.006525	-0.615267	0.777107	-0.132484	0	0	0
57598	0	0	0	0	0	9.656786	-0.047846	-1.163634	-0.000950	-0.004287	-0.007974	-0.857422	0.288086	-0.199707	0.591913	-0.325456	-0.678472	-0.288779	177.159741	-82.377030	131.232415	-0.087434	0.099761	0.991162	0.783490	0.621370	0.006573	-0.615223	0.777140	-0.132491	0	0	0
57599	0	0	0	0	0	9.731673	-0.071560	-1.183015	0.000249	-0.006673	-0.001252	-0.851318	0.282227	-0.211426	0.591909	-0.325476	-0.678469	-0.288772	177.173985	-82.376078	131.217006	-0.087418	0.099797	0.991160	0.783504	0.621352	0.006541	-0.615207	0.777150	-0.132509	0	0	0
57600	0	0	0	0	0	9.785932	-0.150407	-1.214074	0.002510	-0.009212	-0.004872	-0.863281	0.285156	-0.202637	0.591885	-0.325487	-0.678484	-0.288773	177.169452	-82.372829	131.220381	-0.087461	0.099834	0.991153	0.783516	0.621337	0.006554	-0.615186	0.777157	-0.132565	0	0	0
57601	0	0	0	0	0	9.804694	-0.077184	-1.232903	0.009915	-0.003983	-0.008843	-0.861816	0.287354	-0.195313	0.591896	-0.325446	-0.678500	-0.288759	177.155591	-82.373294	131.239202	-0.087489	0.099799	0.991154	0.783461	0.621407	0.006586	-0.615252	0.777106	-0.132555	0	0	0
57602	0	0	0	0	0	9.804660	-0.076495	-1.233217	0.015305	-0.002633	-0.008380	-0.855713	0.284668	-0.209473	0.591910	-0.325397	-0.678520	-0.288738	177.142010	-82.373709	131.259102	-0.087518	0.099764	0.991155	0.783391	0.621495	0.006617	-0.615337	0.777040	-0.132546	0	0	0
57603	0	0	0	0	0	9.703427	-0.023908	-1.196456	0.012006	-0.001732	-0.008873	-0.858398	0.284424	-0.203125	0.591930	-0.325350	-0.678532	-0.288722	177.129187	-82.375321	131.277726	-0.087532	0.099714	0.991158	0.783326	0.621575	0.006645	-0.615417	0.776982	-0.132517	0	0	0
57604	0	0	0	0	0	9.677164	0.004450	-1.178351	0.006445	0.001708	-0.005748	-0.866943	0.295654	-0.199707	0.591948	-0.325330	-0.678522	-0.288730	177.120840	-82.378295	131.287223	-0.087515	0.099661	0.991165	0.783313	0.621592	0.006662	-0.615436	0.776976	-0.132464	0	0	0
57605	0	0	0	0	0	9.703326	-0.016755	-1.173002	0.001305	-0.006315	-0.007460	-0.859863	0.290039	-0.205322	0.591937	-0.325327	-0.678530	-0.288738	177.109501	-82.377282	131.298007	-0.087545	0.099658	0.991163	0.783318	0.621585	0.006689	-0.615426	0.776981	-0.132481	0	0	0
57606	0	0	0	0	0	9.708797	-0.086989	-1.155749	0.003474	-0.005947	-0.005156	-0.861328	0.288330	-0.199219	0.591926	-0.325329	-0.678537	-0.288742	177.103631	-82.375892	131.303287	-0.087570	0.099668	0.991160	0.783324	0.621578	0.006704	-0.615415	0.776986	-0.132504	0	0	0
57607	0	0	0	0	0	9.783781	-0.116463	-1.198715	0.008788	-0.002969	-0.009094	-0.853271	0.285156	-0.200928	0.591936	-0.325293	-0.678548	-0.288736	177.088813	-82.376783	131.321982	-0.087593	0.099628	0.991162	0.783280	0.621633	0.006737	-0.615467	0.776947	-0.132487	0	0	0
57608	0	0	0	0	0	9.782035	-0.104187	-1.252424	0.014340	-0.005640	-0.006023	-0.860107	0.281494	-0.211670	0.591942	-0.325259	-0.678572	-0.288706	177.085401	-82.375543	131.331064	-0.087623	0.099630	0.991159	0.783218	0.621711	0.006746	-0.615542	0.776885	-0.132508	0	0	0
57609	0	0	0	0	0	9.779997	-0.068134	-1.211368	0.016351	-0.001505	-0.008390	-0.861328	0.284668	-0.203613	0.591972	-0.325198	-0.678589	-0.288673	177.076637	-82.377418	131.348412	-0.087631	0.099579	0.991163	0.783124	0.621829	0.006765	-0.615660	0.776797	-0.132474	0	0	0
57610	0	0	0	0	0	9.727515	-0.018120	-1.198974	0.012000	-0.001218	-0.004739	-0.856689	0.297852	-0.205566	0.591991	-0.325169	-0.678595	-0.288654	177.076405	-82.378746	131.352933	-0.087624	0.099555	0.991166	0.783078	0.621887	0.006764	-0.615720	0.776753	-0.132451	0	0	0
57611	0	0	0	0	0	9.701227	0.010030	-1.181014	0.005482	-0.001557	-0.005457	-0.863037	0.280029	-0.207031	0.592007	-0.325153	-0.678590	-0.288650	177.075448	-82.380629	131.355823	-0.087608	0.099526	0.991171	0.783057	0.621914	0.006765	-0.615749	0.776736	-0.132419	0	0	0
57612	0	0	0	0	0	9.701349	-0.001551	-1.228551	0.004434	-0.002426	-0.003377	-0.860840	0.289307	-0.213135	0.592011	-0.325153	-0.678586	-0.288651	177.076975	-82.381306	131.354196	-0.087597	0.099520	0.991172	0.783058	0.621912	0.006761	-0.615749	0.776738	-0.132407	0	0	0
57613	0	0	0	0	0	9.733016	-0.087730	-1.181710	0.007741	-0.003839	-0.007009	-0.859619	0.284668	-0.211914	0.592022	-0.325124	-0.678596	-0.288639	177.069608	-82.381962	131.365366	-0.087609	0.099494	0.991174	0.783016	0.621965	0.006777	-0.615801	0.776699	-0.132395	0	0	0
57614	0	0	0	0	0	9.734825	-0.110702	-1.176214	0.012172	-0.006009	-0.008320	-0.866943	0.282227	-0.215820	0.592020	-0.325089	-0.678621	-0.288622	177.055206	-82.380445	131.384282	-0.087659	0.099485	0.991170	0.782965	0.622028	0.006812	-0.615858	0.776649	-0.132420	0	0	0
57615	0	0	0	0	0	9.779817	-0.065490	-1.212965	0.015297	-0.001860	-0.002177	-0.856689	0.285889	-0.199707	0.592058	-0.325049	-0.678628	-0.288572	177.072063	-82.382473	131.375650	-0.087621	0.099472	0.991175	0.782878	0.622138	0.006771	-0.615975	0.776562	-0.132387	0	0	0
57616	0	0	0	0	0	9.753510	-0.037495	-1.195134	0.014259	-0.003500	-0.006287	-0.855713	0.286377	-0.205811	0.592071	-0.325012	-0.678646	-0.288547	177.067002	-82.382451	131.386349	-0.087640	0.099456	0.991175	0.782816	0.622216	0.006783	-0.616050	0.776502	-0.132386	0	0	0
57617	0	0	0	0	0	9.751527	-0.007411	-1.177845	0.008869	-0.004852	-0.006749	-0.857910	0.288574	-0.200439	0.592078	-0.324985	-0.678659	-0.288530	177.062383	-82.382347	131.394855	-0.087656	0.099444	0.991175	0.782773	0.622270	0.006794	-0.616102	0.776461	-0.132388	0	0	0
57618	0	0	0	0	0	9.727134	-0.008717	-1.177877	0.003393	-0.003809	-0.005421	-0.852051	0.282959	-0.197754	0.592073	-0.324984	-0.678661	-0.288539	177.054871	-82.382173	131.401745	-0.087670	0.099436	0.991174	0.782779	0.622262	0.006811	-0.616093	0.776468	-0.132390	0	0	0
57619	0	0	0	0	0	9.753419	-0.041988	-1.220155	0.002431	-0.007075	-0.005131	-0.857422	0.292480	-0.199707	0.592064	-0.324987	-0.678668	-0.288536	177.054022	-82.380744	131.402489	-0.087687	0.099453	0.991171	0.782780	0.622261	0.006814	-0.616089	0.776467	-0.132414	0	0	0
57620	0	0	0	0	0	9.730809	-0.061039	-1.190688	0.002345	-0.004678	-0.003340	-0.855469	0.284424	-0.201416	0.592057	-0.324997	-0.678667	-0.288540	177.055004	-82.380134	131.400205	-0.087690	0.099464	0.991170	0.782795	0.622243	0.006813	-0.616071	0.776480	-0.132425	0	0	0
57621	0	0	0	0	0	9.755172	-0.064883	-1.215142	0.009911	-0.003468	-0.004701	-0.858154	0.284912	-0.208252	0.592074	-0.324974	-0.678674	-0.288517	177.059912	-82.380826	131.399510	-0.087681	0.099457	0.991171	0.782749	0.622300	0.006801	-0.616129	0.776435	-0.132414	0	0	0
57622	0	0	0	0	0	9.756994	-0.088305	-1.209571	0.014337	-0.005123	-0.001884	-0.856445	0.280762	-0.209717	0.592087	-0.324954	-0.678690	-0.288475	177.074091	-82.380005	131.390842	-0.087676	0.099480	0.991169	0.782691	0.622374	0.006769	-0.616204	0.776373	-0.132429	0	0	0
57623	0	0	0	0	0	9.730748	-0.066158	-1.215433	0.010878	-0.000718	-0.009117	-0.855469	0.291504	-0.201172	0.592111	-0.324904	-0.678698	-0.288464	177.058787	-82.382369	131.411779	-0.087685	0.099418	0.991175	0.782628	0.622452	0.006802	-0.616283	0.776318	-0.132387	0	0	0
57624	0	0	0	0	0	9.751192	-0.004494	-1.180631	0.010958	-0.002599	-0.006779	-0.859375	0.287354	-0.200195	0.592120	-0.324873	-0.678709	-0.288453	177.049535	-82.382848	131.424798	-0.087702	0.099392	0.991176	0.782586	0.622505	0.006823	-0.616333	0.776279	-0.132377	0	0	0
57625	0	0	0	0	0	9.725001	0.011772	-1.210199	0.003393	-0.003810	-0.005418	-0.859375	0.285645	-0.205078	0.592124	-0.324868	-0.678708	-0.288453	177.047870	-82.383319	131.426944	-0.087700	0.099382	0.991177	0.782581	0.622511	0.006826	-0.616340	0.776275	-0.132369	0	0	0
57626	0	0	0	0	0	9.754913	-0.056794	-1.193145	0.002429	-0.006818	-0.003064	-0.861572	0.291748	-0.205322	0.592110	-0.324882	-0.678714	-0.288453	177.050560	-82.381494	131.422985	-0.087714	0.099412	0.991173	0.782595	0.622494	0.006822	-0.616321	0.776285	-0.132401	0	0	0
57627	0	0	0	0	0	9.752960	-0.032836	-1.199757	0.003477	-0.005949	-0.005144	-0.862061	0.285645	-0.210693	0.592109	-0.324878	-0.678720	-0.288447	177.050197	-82.380864	131.424183	-0.087724	0.099418	0.991171	0.782586	0.622505	0.006823	-0.616331	0.776275	-0.132412	0	0	0
57628	0	0	0	0	0	9.756610	-0.073572	-1.164523	0.006610	-0.002569	-0.005195	-0.855469	0.284912	-0.205566	0.592113	-0.324866	-0.678722	-0.288446	177.045228	-82.381406	131.430368	-0.087728	0.099402	0.991173	0.782572	0.622522	0.006834	-0.616348	0.776264	-0.132402	0	0	0
57629	0	0	0	0	0	9.754706	-0.049431	-1.170725	0.005485	-0.001815	-0.007515	-0.865967	0.287109	-0.199463	0.592126	-0.324840	-0.678722	-0.288446	177.034338	-82.383158	131.443614	-0.087731	0.099359	0.991177	0.782546	0.622556	0.006858	-0.616381	0.776242	-0.132370	0	0	0
57630	0	0	0	0	0	9.705983	-0.052674	-1.170275	0.005647	-0.005577	-0.002840	-0.859375	0.289063	-0.200684	0.592123	-0.324843	-0.678728	-0.288437	177.039559	-82.382050	131.438961	-0.087736	0.099380	0.991174	0.782540	0.622563	0.006847	-0.616388	0.776234	-0.132390	0	0	0
57631	0	0	0	0	0	9.756558	-0.078116	-1.189225	0.001223	-0.004182	-0.007719	-0.862793	0.289795	-0.196777	0.592118	-0.324837	-0.678730	-0.288451	177.026319	-82.382188	131.451521	-0.087756	0.099359	0.991174	0.782546	0.622555	0.006877	-0.616377	0.776243	-0.132386	0	0	0
57632	0	0	0	0	0	9.752732	-0.030266	-1.201672	-0.001997	-0.005165	-0.005879	-0.859375	0.291748	-0.204102	0.592099	-0.324851	-0.678728	-0.288476	177.014072	-82.381225	131.460074	-0.087782	0.099359	0.991172	0.782585	0.622506	0.006906	-0.616324	0.776282	-0.132401	0	0	0
57633	0	0	0	0	0	9.754733	-0.071228	-1.267226	0.001307	-0.006321	-0.007444	-0.858398	0.283203	-0.202881	0.592087	-0.324849	-0.678735	-0.288485	177.003154	-82.380177	131.470308	-0.087811	0.099357	0.991170	0.782591	0.622498	0.006932	-0.616312	0.776289	-0.132418	0	0	0
57634	0	0	0	0	0	9.778885	-0.056905	-1.220887	0.005648	-0.005576	-0.002839	-0.857910	0.294678	-0.206055	0.592083	-0.324852	-0.678741	-0.288476	177.008384	-82.379069	131.465648	-0.087816	0.099378	0.991167	0.782585	0.622505	0.006921	-0.616319	0.776280	-0.132438	0	0	0
57635	0	0	0	0	0	9.730081	-0.054458	-1.196939	0.003472	-0.005433	-0.001016	-0.859863	0.284424	-0.195801	0.592089	-0.324862	-0.678739	-0.288459	177.025744	-82.378854	131.448911	-0.087790	0.099406	0.991167	0.782580	0.622512	0.006881	-0.616329	0.776271	-0.132444	0	0	0
57636	0	0	0	0	0	9.731861	-0.071957	-1.167745	0.011038	-0.004220	-0.002377	-0.864990	0.293701	-0.203857	0.592100	-0.324849	-0.678748	-0.288432	177.035735	-82.378536	131.442563	-0.087782	0.099420	0.991166	0.782542	0.622561	0.006859	-0.616379	0.776231	-0.132450	0	0	0
57637	0	0	0	0	0	9.705692	-0.061850	-1.221053	0.003395	-0.004068	-0.007478	-0.859131	0.290527	-0.208008	0.592099	-0.324837	-0.678751	-0.288438	177.024937	-82.378749	131.453890	-0.087799	0.099400	0.991166	0.782535	0.622569	0.006883	-0.616385	0.776226	-0.132445	0	0	0
57638	0	0	0	0	0	9.705579	-0.055215	-1.197888	-0.000868	-0.006178	-0.005619	-0.864258	0.287354	-0.207520	0.592079	-0.324851	-0.678754	-0.288457	177.014680	-82.377214	131.461088	-0.087829	0.099409	0.991163	0.782567	0.622528	0.006908	-0.616340	0.776258	-0.132471	0	0	0
57639	0	0	0	0	0	9.754237	-0.057038	-1.223018	0.004606	-0.006960	-0.004882	-0.852051	0.291504	-0.200439	0.592076	-0.324845	-0.678764	-0.288445	177.016238	-82.376087	131.461172	-0.087842	0.099424	0.991160	0.782549	0.622551	0.006906	-0.616361	0.776238	-0.132490	0	0	0
57640	0	0	0	0	0	9.729776	-0.052518	-1.199505	0.002347	-0.004678	-0.003334	-0.862061	0.288818	-0.205078	0.592070	-0.324855	-0.678763	-0.288449	177.017259	-82.375479	131.458850	-0.087845	0.099435	0.991159	0.782563	0.622533	0.006904	-0.616343	0.776251	-0.132501	0	0	0
57641	0	0	0	0	0	9.780320	-0.071993	-1.194647	0.003308	-0.001671	-0.005690	-0.854004	0.286377	-0.209961	0.592081	-0.324845	-0.678757	-0.288453	177.014005	-82.377237	131.462680	-0.087832	0.099406	0.991163	0.782557	0.622541	0.006910	-0.616353	0.776248	-0.132470	0	0	0
57642	0	0	0	0	0	9.729750	-0.057769	-1.223823	0.005648	-0.005575	-0.002837	-0.855957	0.285156	-0.202148	0.592077	-0.324848	-0.678763	-0.288443	177.019245	-82.376131	131.458010	-0.087837	0.099428	0.991160	0.782551	0.622548	0.006899	-0.616359	0.776239	-0.132490	0	0	0
57643	0	0	0	0	0	9.754042	-0.055723	-1.224630	0.000087	-0.002397	-0.001787	-0.861084	0.284668	-0.207520	0.592087	-0.324859	-0.678748	-0.288445	177.030190	-82.377688	131.445965	-0.087798	0.099426	0.991164	0.782564	0.622532	0.006872	-0.616348	0.776253	-0.132464	0	0	0
57644	0	0	0	0	0	9.731525	-0.074600	-1.194822	0.002268	-0.003314	-0.009795	-0.861816	0.287354	-0.201660	0.592076	-0.324846	-0.678753	-0.288471	177.003240	-82.377668	131.471818	-0.087843	0.099387	0.991164	0.782573	0.622520	0.006934	-0.616330	0.776267	-0.132461	0	0	0
57645	0	0	0	0	0	9.731513	-0.080165	-1.219004	0.005731	-0.007455	-0.000499	-0.859863	0.287842	-0.210205	0.592079	-0.324852	-0.678760	-0.288441	177.023748	-82.376286	131.453290	-0.087827	0.099433	0.991161	0.782554	0.622545	0.006888	-0.616357	0.776242	-0.132488	0	0	0
57646	0	0	0	0	0	9.731398	-0.073889	-1.195895	0.001220	-0.003925	-0.005653	-0.861816	0.291016	-0.207520	0.592070	-0.324857	-0.678759	-0.288458	177.014049	-82.376041	131.461133	-0.087843	0.099424	0.991160	0.782573	0.622521	0.006911	-0.616331	0.776262	-0.132491	0	0	0
57647	0	0	0	0	0	9.755723	-0.077571	-1.220507	0.004607	-0.006960	-0.004880	-0.862549	0.292236	-0.207520	0.592068	-0.324850	-0.678769	-0.288445	177.015741	-82.374950	131.461143	-0.087855	0.099438	0.991158	0.782554	0.622544	0.006908	-0.616352	0.776242	-0.132510	0	0	0
57648	0	0	0	0	0	9.729368	-0.049396	-1.202943	0.005566	-0.003694	-0.005173	-0.860840	0.285645	-0.213867	0.592067	-0.324843	-0.678773	-0.288445	177.010530	-82.374851	131.466969	-0.087867	0.099431	0.991157	0.782547	0.622553	0.006920	-0.616360	0.776235	-0.132511	0	0	0
57649	0	0	0	0	0	9.757486	-0.094244	-1.191718	0.003393	-0.003810	-0.005412	-0.862305	0.285645	-0.199951	0.592074	-0.324833	-0.678773	-0.288443	177.008376	-82.375592	131.470287	-0.087864	0.099416	0.991159	0.782534	0.622569	0.006924	-0.616376	0.776224	-0.132498	0	0	0
57650	0	0	0	0	0	9.751761	-0.029054	-1.233710	0.006610	-0.002567	-0.005191	-0.864258	0.286377	-0.202148	0.592079	-0.324820	-0.678775	-0.288442	177.003436	-82.376137	131.476444	-0.087868	0.099399	0.991160	0.782521	0.622586	0.006935	-0.616393	0.776213	-0.132488	0	0	0
